participant	trial_num	practice	task	condition	RSVP	RAP	probePos	probe_presence	surprise_sound	surprise_img	probe_response	probe_resp_time	first_fixation_time	trial_start_time	surprise_start_time	probe_start_time	trial_end_time	trial_duration	actualEventTimes	plannedEventTimes	date	framerate	marker_vol	RAP_vol
9	1	FALSE	NA	v	['A', 'H', 'U', 'T', 'B', 'N', 'Z', 'V', 'M', 'P', 'X', 'S', 'R', 'Y', 'J', 'G']	[697, 986, 2059, 1888, 760, 1335, 2911, 2245, 1224, 1456, 4000, 1731, 1587, 2670, 1029, 944]	11	Present	NA	NA	PRESENT	0.3222200870513916	1.9073486328125e-6	1.9904308319091797	2.921710968017578	3.2717068195343018	6.103869915008545	4.113439083099365	[0.01943182945251465, 0.1199808120727539, 1.1041138172149658, 1.2707610130310059, 2.0215909481048584, 2.138260841369629, 2.2553257942199707, 2.372180938720703, 2.4888298511505127, 2.6055848598480225, 2.7224528789520264, 2.8390629291534424, 2.9561569690704346, 3.0727829933166504, 3.189560890197754, 3.3064308166503906, 3.4233169555664062, 3.540215015411377, 3.656775951385498, 3.7735719680786133, 3.8903088569641113, 4.103870868682861]	[1.9073486328125e-06, 0.11666857401529947, 1.0996685740152994, 1.2663685740152995, 2.0163685740152992, 2.133035240681966, 2.2497019073486326, 2.3663685740152993, 2.483035240681966, 2.5997019073486327, 2.7163685740152994, 2.833035240681966, 2.949701907348633, 3.0663685740152995, 3.183035240681966, 3.299701907348633, 3.4163685740152996, 3.5330352406819663, 3.649701907348633, 3.7663685740152997, 3.8830352406819664, 4.1163685740153]	2020_Nov_27_1647	59.91212382655597	1	1
9	2	FALSE	NA	v	['P', 'S', 'Z', 'E', 'M', 'R', 'C', 'T', 'U', 'H', 'X', 'V', 'W', 'Y', 'K', 'N']	[1456, 1731, 2911, 904, 1224, 1587, 829, 1888, 2059, 986, 4000, 2245, 2448, 2670, 1122, 1335]	11	Present	NA	NA	PRESENT	0.25525522232055664	6.10692286491394	8.103768825531006	9.037192821502686	9.387170791625977	12.220237970352173	4.116469144821167	[6.126353979110718, 6.225996971130371, 7.210641860961914, 7.377339839935303, 8.144776821136475, 8.244817018508911, 8.361668825149536, 8.495224952697754, 8.595263957977295, 8.712066888809204, 8.828779935836792, 8.945582866668701, 9.062500953674316, 9.179159879684448, 9.296084880828857, 9.412784814834595, 9.529578924179077, 9.646435022354126, 9.763139009475708, 9.8801589012146, 9.996850967407227, 10.220237970352173]	[6.1163685740153, 6.233035240681966, 7.216035240681966, 7.382735240681965, 8.132735240681965, 8.249401907348632, 8.3660685740153, 8.482735240681967, 8.599401907348634, 8.716068574015301, 8.832735240681968, 8.949401907348635, 9.066068574015302, 9.18273524068197, 9.299401907348637, 9.416068574015304, 9.532735240681971, 9.649401907348638, 9.766068574015305, 9.882735240681972, 9.99940190734864, 10.232735240681972]	2020_Nov_27_1647	59.91212382655597	1	1
9	3	FALSE	NV	v	['C', 'Y', 'U', 'S', 'M', 'V', 'Z', 'W', 'G', 'H', 'X', 'P', 'K', 'B', 'E', 'T']	[829, 2670, 2059, 1731, 1224, 2245, 2911, 2448, 944, 986, 4000, 1456, 1122, 760, 904, 1888]	11	Present	NA	NA	PRESENT	0.26841092109680176	12.213117837905884	14.219653844833374	15.153857946395874	15.503577947616575	18.336602926254272	4.116949081420898	[12.232548952102661, 12.349475860595703, 13.333836793899536, 13.500612020492554, 14.251402854919434, 14.36825680732727, 14.48506784439087, 14.601908922195435, 14.718702793121338, 14.835261821746826, 14.952217817306519, 15.068971872329712, 15.18585991859436, 15.302388906478882, 15.419416904449463, 15.536094903945923, 15.652973890304565, 15.769653797149658, 15.886590003967285, 16.00332498550415, 16.120078802108765, 16.336602926254272]	[12.232735240681972, 12.34940190734864, 13.33240190734864, 13.49910190734864, 14.24910190734864, 14.365768574015307, 14.482435240681975, 14.599101907348642, 14.715768574015309, 14.832435240681976, 14.949101907348643, 15.06576857401531, 15.182435240681977, 15.299101907348645, 15.415768574015312, 15.532435240681979, 15.649101907348646, 15.765768574015313, 15.88243524068198, 15.999101907348647, 16.115768574015313, 16.349101907348647]	2020_Nov_27_1647	59.91212382655597	1	1
9	4	FALSE	NV	v	['K', 'C', 'B', 'J', 'P', 'G', 'T', 'Z', 'H', 'X', 'R', 'N', 'S', 'V', 'Y', 'E']	[1122, 829, 760, 1029, 1456, 944, 1888, 2911, 986, 4000, 1587, 1335, 1731, 2245, 2670, 904]	10	Present	NA	NA	PRESENT	0.625560998916626	18.33647394180298	20.336262941360474	21.153276920318604	21.503291845321655	24.452970027923584	4.11670708656311	[18.35590386390686, 18.472437858581543, 19.456878900527954, 19.623762845993042, 20.374943017959595, 20.491302967071533, 20.608144998550415, 20.72509789466858, 20.8418128490448, 20.958587884902954, 21.07550287246704, 21.19219398498535, 21.30889391899109, 21.425710916519165, 21.542320013046265, 21.65940499305725, 21.776134967803955, 21.892887830734253, 22.00968885421753, 22.126704931259155, 22.226679801940918, 22.452970027923584]	[18.349101907348647, 18.465768574015314, 19.448768574015315, 19.615468574015313, 20.365468574015313, 20.48213524068198, 20.598801907348648, 20.715468574015315, 20.832135240681982, 20.94880190734865, 21.065468574015316, 21.182135240681983, 21.29880190734865, 21.415468574015318, 21.532135240681985, 21.648801907348652, 21.76546857401532, 21.882135240681986, 21.998801907348653, 22.11546857401532, 22.232135240681988, 22.465468574015322]	2020_Nov_27_1647	59.91212382655597	1	1
9	5	FALSE	NV	v	['H', 'R', 'P', 'B', 'Y', 'U', 'M', 'N', 'V', 'G', 'Z', 'X', 'S', 'T', 'K', 'A']	[986, 1587, 1456, 760, 2670, 2059, 1224, 1335, 2245, 944, 2911, 4000, 1731, 1888, 1122, 697]	12	Present	NA	NA	PRESENT	0.2622230052947998	24.44291090965271	26.45235586166382	27.50286078453064	27.852871894836422	30.569336891174316	4.116981029510498	[24.462342023849487, 24.579082012176514, 25.563514947891235, 25.73024296760559, 26.480963945388794, 26.597985982894897, 26.714667797088623, 26.831516981124878, 26.948259830474854, 27.06524896621704, 27.181931972503662, 27.298611879348755, 27.41553783416748, 27.53233790397644, 27.64912986755371, 27.765805959701538, 27.88277292251587, 27.999507904052734, 28.116297960281372, 28.233093976974487, 28.349797010421753, 28.569337844848633]	[24.465468574015322, 24.58213524068199, 25.56513524068199, 25.73183524068199, 26.48183524068199, 26.598501907348655, 26.715168574015323, 26.83183524068199, 26.948501907348657, 27.065168574015324, 27.18183524068199, 27.29850190734866, 27.415168574015325, 27.531835240681993, 27.64850190734866, 27.765168574015327, 27.881835240681994, 27.99850190734866, 28.11516857401533, 28.231835240681995, 28.348501907348663, 28.581835240681997]	2020_Nov_27_1647	59.91212382655597	1	1
9	6	FALSE	NN	v	['A', 'C', 'K', 'H', 'V', 'P', 'M', 'N', 'S', 'T', 'U', 'B', 'Y', 'W', 'Z', 'R']	[697, 829, 1122, 986, 2245, 1456, 1224, 1335, 1731, 1888, 2059, 760, 2670, 2448, 2911, 1587]	8	Absent	NA	NA	ABSENT	0.7547540664672852	30.566420793533325	32.569050788879395	33.15265488624573	33.50255489349365	36.68570399284363	4.116653203964233	[30.585851907730103, 30.702385902404785, 31.686585903167725, 31.853660821914673, 32.60434889793396, 32.721001863479614, 32.837777853012085, 32.95457696914673, 33.07155179977417, 33.18832588195801, 33.30510902404785, 33.422003984451294, 33.538633823394775, 33.65550494194031, 33.77231192588806, 33.88901996612549, 34.00570201873779, 34.122649908065796, 34.23945188522339, 34.35613489151001, 34.47311282157898, 34.685704946517944]	[30.581835240681997, 30.698501907348664, 31.681501907348665, 31.848201907348663, 32.59820190734867, 32.714868574015334, 32.831535240682, 32.94820190734867, 33.064868574015335, 33.181535240682, 33.29820190734867, 33.41486857401534, 33.531535240682004, 33.64820190734867, 33.76486857401534, 33.881535240682005, 33.99820190734867, 34.11486857401534, 34.23153524068201, 34.348201907348674, 34.46486857401534, 34.698201907348675]	2020_Nov_27_1647	59.91212382655597	1	1
9	7	FALSE	NN	v	['C', 'E', 'B', 'W', 'N', 'J', 'Y', 'K', 'P', 'V', 'R', 'S', 'M', 'T', 'U', 'G']	[829, 904, 760, 2448, 1335, 1029, 2670, 1122, 1456, 2245, 1587, 1731, 1224, 1888, 2059, 944]	12	Absent	NA	NA	ABSENT	0.528156042098999	36.67248201370239	38.685388803482056	39.735599994659424	40.08591389656067	42.80207085609436	4.116682052612305	[36.691911935806274, 36.80882501602173, 37.79323101043701, 37.96001195907593, 38.727322816848755, 38.82753801345825, 38.944270849227905, 39.061020851135254, 39.1778678894043, 39.294628858566284, 39.41162586212158, 39.52836585044861, 39.64519190788269, 39.76199793815613, 39.878636837005615, 39.99546480178833, 40.11285090446472, 40.22920799255371, 40.34587597846985, 40.46264386177063, 40.57957887649536, 40.80207085609436]	[36.698201907348675, 36.81486857401534, 37.79786857401534, 37.96456857401534, 38.71456857401534, 38.831235240682005, 38.94790190734867, 39.06456857401534, 39.18123524068201, 39.297901907348674, 39.41456857401534, 39.53123524068201, 39.647901907348675, 39.76456857401534, 39.88123524068201, 39.99790190734868, 40.114568574015344, 40.23123524068201, 40.34790190734868, 40.464568574015345, 40.58123524068201, 40.81456857401535]	2020_Nov_27_1647	59.91212382655597	1	1
9	8	FALSE	NV	v	['U', 'T', 'R', 'J', 'N', 'W', 'A', 'H', 'M', 'E', 'B', 'Z', 'X', 'V', 'Y', 'G']	[2059, 1888, 1587, 1029, 1335, 2448, 697, 986, 1224, 904, 760, 2911, 4000, 2245, 2670, 944]	13	Present	NA	NA	PRESENT	0.5085289478302002	42.7957239151001	44.801817893981934	45.96862196922302	46.31868290901184	48.91843795776367	4.116620063781738	[42.81515383720398, 42.93181586265564, 43.91631579399109, 44.083295822143555, 44.834144830703735, 44.95070195198059, 45.06749701499939, 45.184348821640015, 45.301273822784424, 45.4180269241333, 45.53483986854553, 45.65155601501465, 45.768369913101196, 45.885164976119995, 46.00200891494751, 46.11866879463196, 46.2354998588562, 46.35240197181702, 46.46928787231445, 46.586028814315796, 46.70272994041443, 46.91843795776367]	[42.81456857401535, 42.931235240682014, 43.91423524068201, 44.08093524068201, 44.83093524068201, 44.94760190734868, 45.064268574015344, 45.18093524068201, 45.29760190734868, 45.414268574015345, 45.53093524068201, 45.64760190734868, 45.76426857401535, 45.880935240682014, 45.99760190734868, 46.11426857401535, 46.230935240682015, 46.34760190734868, 46.46426857401535, 46.58093524068202, 46.697601907348684, 46.93093524068202]	2020_Nov_27_1647	59.91212382655597	1	1
9	9	FALSE	NV	v	['Z', 'H', 'P', 'M', 'A', 'V', 'K', 'N', 'C', 'G', 'B', 'X', 'R', 'Y', 'U', 'W']	[2911, 986, 1456, 1224, 697, 2245, 1122, 1335, 829, 944, 760, 4000, 1587, 2670, 2059, 2448]	12	Present	NA	NA	PRESENT	0.36976099014282227	48.919129848480225	50.91794300079346	51.96849584579468	52.318376779556274	55.03480386734009	4.116860866546631	[48.938560009002686, 49.055135011672974, 50.02274298667908, 50.18985199928284, 50.95727801322937, 51.07410001754761, 51.19083285331726, 51.30764293670654, 51.424497842788696, 51.54124879837036, 51.65788984298706, 51.77483582496643, 51.89164686203003, 52.0083909034729, 52.12538480758667, 52.24202585220337, 52.358829975128174, 52.4755380153656, 52.57558798789978, 52.69234085083008, 52.809284925460815, 53.03480386734009]	[48.93093524068202, 49.047601907348685, 50.03060190734868, 50.19730190734868, 50.94730190734868, 51.06396857401535, 51.180635240682015, 51.29730190734868, 51.41396857401535, 51.53063524068202, 51.647301907348684, 51.76396857401535, 51.88063524068202, 51.997301907348685, 52.11396857401535, 52.23063524068202, 52.34730190734869, 52.463968574015354, 52.58063524068202, 52.69730190734869, 52.813968574015355, 53.04730190734869]	2020_Nov_27_1647	59.91212382655597	1	1
9	10	FALSE	NN	v	['B', 'S', 'A', 'T', 'K', 'N', 'C', 'V', 'R', 'E', 'G', 'W', 'Z', 'H', 'J', 'Y']	[760, 1731, 697, 1888, 1122, 1335, 829, 2245, 1587, 904, 944, 2448, 2911, 986, 1029, 2670]	14	Absent	NA	NA	ABSENT	1.822465896606445	55.025508880615234	57.03446698188782	58.31830883026123	58.668221950531006	61.1511709690094	4.116703987121582	[55.04493999481201, 55.161842823028564, 56.146193981170654, 56.313035011291504, 57.06375288963318, 57.18059301376343, 57.29747295379639, 57.414201974868774, 57.531018018722534, 57.64769387245178, 57.7644989490509, 57.881481885910034, 57.998201847076416, 58.11491394042969, 58.231711864471436, 58.34839487075806, 58.46536302566528, 58.58204388618469, 58.69892501831055, 58.81563997268677, 58.93232989311218, 59.1511709690094]	[55.04730190734869, 55.16396857401536, 56.146968574015354, 56.31366857401535, 57.06366857401535, 57.18033524068202, 57.29700190734869, 57.413668574015354, 57.53033524068202, 57.64700190734869, 57.763668574015355, 57.88033524068202, 57.99700190734869, 58.11366857401536, 58.230335240682024, 58.34700190734869, 58.46366857401536, 58.580335240682025, 58.69700190734869, 58.81366857401536, 58.93033524068203, 59.16366857401536]	2020_Nov_27_1647	59.91212382655597	1	1
9	11	FALSE	NV	v	['U', 'K', 'G', 'T', 'B', 'Z', 'E', 'M', 'X', 'P', 'J', 'R', 'A', 'V', 'Y', 'C']	[2059, 1122, 944, 1888, 760, 2911, 904, 1224, 4000, 1456, 1029, 1587, 697, 2245, 2670, 829]	9	Present	NA	NA	PRESENT	0.23575496673583984	61.14890885353088	63.15072679519653	63.85107398033142	64.20113587379456	67.26753783226013	4.116811037063599	[61.168339014053345, 61.28483700752258, 62.269354820251465, 62.436118841171265, 63.187055826187134, 63.30388593673706, 63.42046594619751, 63.537383794784546, 63.65406799316406, 63.770906925201416, 63.8877968788147, 64.00465202331543, 64.12133884429932, 64.23813199996948, 64.35491895675659, 64.47170686721802, 64.5883858203888, 64.70529580116272, 64.82220983505249, 64.93894791603088, 65.03881597518921, 65.26753783226013]	[61.16366857401536, 61.28033524068203, 62.263335240682025, 62.430035240682024, 63.180035240682024, 63.29670190734869, 63.41336857401536, 63.530035240682025, 63.64670190734869, 63.76336857401536, 63.88003524068203, 63.996701907348694, 64.11336857401535, 64.23003524068201, 64.34670190734867, 64.46336857401533, 64.580035240682, 64.69670190734865, 64.81336857401531, 64.93003524068197, 65.04670190734863, 65.28003524068197]	2020_Nov_27_1647	59.91212382655597	1	1
9	12	FALSE	NA	v	['W', 'P', 'E', 'V', 'J', 'K', 'A', 'H', 'X', 'N', 'C', 'S', 'G', 'B', 'Y', 'Z']	[2448, 1456, 904, 2245, 1029, 1122, 697, 986, 4000, 1335, 829, 1731, 944, 760, 2670, 2911]	9	Present	NA	NA	PRESENT	0.3842611312866211	67.25541877746582	69.26733493804932	69.96760892868042	70.31746888160706	73.38390493392944	4.116569995880127	[67.27484893798828, 67.39163398742676, 68.37595200538635, 68.54263281822205, 69.31023502349854, 69.41045093536377, 69.52716183662415, 69.64372086524963, 69.76074481010437, 69.87735199928284, 69.99421286582947, 70.11141681671143, 70.22764086723328, 70.34451389312744, 70.46147084236145, 70.57812690734863, 70.6948459148407, 70.81177592277527, 70.92866802215576, 71.04548501968384, 71.162113904953, 71.38390398025513]	[67.28003524068197, 67.39670190734863, 68.37970190734863, 68.54640190734864, 69.29640190734864, 69.4130685740153, 69.52973524068196, 69.64640190734862, 69.76306857401528, 69.87973524068194, 69.9964019073486, 70.11306857401526, 70.22973524068192, 70.34640190734858, 70.46306857401524, 70.5797352406819, 70.69640190734856, 70.81306857401522, 70.92973524068188, 71.04640190734854, 71.1630685740152, 71.39640190734853]	2020_Nov_27_1647	59.91212382655597	1	1
9	13	FALSE	NA	v	['B', 'R', 'G', 'E', 'P', 'Z', 'T', 'S', 'U', 'J', 'K', 'X', 'M', 'Y', 'W', 'V']	[760, 1587, 944, 904, 1456, 2911, 1888, 1731, 2059, 1029, 1122, 4000, 1224, 2670, 2448, 2245]	12	Present	NA	NA	PRESENT	0.4048759937286377	73.37844395637512	75.38356280326843	76.43388485908508	76.78384685516357	79.50026988983154	4.11670708656311	[73.39787483215332, 73.51475596427917, 74.49893283843994, 74.66600394248962, 75.4167377948761, 75.53342199325562, 75.65032482147217, 75.76694679260254, 75.88375282287598, 76.00069499015808, 76.167484998703, 76.2343738079071, 76.35114288330078, 76.46794080734253, 76.5846688747406, 76.70141291618347, 76.81814789772034, 76.93511295318604, 77.05178689956665, 77.16858196258545, 77.28530883789062, 77.50027084350586]	[73.39640190734853, 73.5130685740152, 74.4960685740152, 74.6627685740152, 75.4127685740152, 75.52943524068186, 75.64610190734852, 75.76276857401518, 75.87943524068184, 75.9961019073485, 76.11276857401516, 76.22943524068182, 76.34610190734848, 76.46276857401514, 76.5794352406818, 76.69610190734846, 76.81276857401512, 76.92943524068178, 77.04610190734844, 77.1627685740151, 77.27943524068176, 77.5127685740151]	2020_Nov_27_1647	59.91212382655597	1	1
9	14	FALSE	NA	v	['G', 'H', 'T', 'C', 'Y', 'S', 'V', 'X', 'K', 'P', 'N', 'U', 'J', 'Z', 'A', 'M']	[944, 986, 1888, 829, 2670, 1731, 2245, 4000, 1122, 1456, 1335, 2059, 1029, 2911, 697, 1224]	8	Present	NA	NA	PRESENT	0.09026408195495604	79.50160479545593	81.4997489452362	82.08399295806885	82.43368577957153	85.61663794517517	4.116888999938965	[79.52103590965271, 79.63795900344849, 80.6057198047638, 80.77226281166077, 81.53998684883118, 81.65684080123901, 81.77341794967651, 81.89035892486572, 82.00698900222778, 82.12403702735901, 82.24060082435608, 82.34063482284546, 82.4573860168457, 82.57418894767761, 82.6909658908844, 82.8077929019928, 82.92465090751648, 83.0414559841156, 83.15820479393005, 83.27500486373901, 83.39194798469543, 83.61663699150085]	[79.5127685740151, 79.62943524068176, 80.61243524068176, 80.77913524068177, 81.52913524068177, 81.64580190734843, 81.76246857401509, 81.87913524068175, 81.99580190734841, 82.11246857401507, 82.22913524068173, 82.34580190734839, 82.46246857401505, 82.57913524068171, 82.69580190734837, 82.81246857401503, 82.92913524068169, 83.04580190734835, 83.16246857401501, 83.27913524068167, 83.39580190734833, 83.62913524068166]	2020_Nov_27_1647	59.91212382655597	1	1
9	15	FALSE	NN	v	['P', 'E', 'V', 'T', 'C', 'N', 'Z', 'W', 'B', 'A', 'Y', 'G', 'J', 'M', 'K', 'S']	[1456, 904, 2245, 1888, 829, 1335, 2911, 2448, 760, 697, 2670, 944, 1029, 1224, 1122, 1731]	12	Absent	NA	NA	ABSENT	0.3747160434722901	85.60821080207825	87.61624193191528	88.66677188873291	89.01664781570435	91.7330038547516	4.116761922836304	[85.62764096260071, 85.7445318698883, 86.72873783111572, 86.8957359790802, 87.64637494087219, 87.76314783096313, 87.88020491600037, 87.99674797058105, 88.11363887786865, 88.2302918434143, 88.34718084335327, 88.46391987800598, 88.58085489273071, 88.6976068019867, 88.81436896324158, 88.93112993240356, 89.04782485961914, 89.16481900215149, 89.28146290779114, 89.39830589294434, 89.51505780220032, 89.73300385475159]	[85.62913524068166, 85.74580190734832, 86.72880190734833, 86.89550190734833, 87.64550190734833, 87.76216857401499, 87.87883524068165, 87.99550190734831, 88.11216857401497, 88.22883524068163, 88.3455019073483, 88.46216857401495, 88.57883524068161, 88.69550190734827, 88.81216857401493, 88.9288352406816, 89.04550190734825, 89.16216857401491, 89.27883524068157, 89.39550190734823, 89.5121685740149, 89.74550190734823]	2020_Nov_27_1647	59.91212382655597	1	1
9	16	FALSE	AA	v	['P', 'G', 'J', 'T', 'A', 'surprise', 'K', 'H', 'X', 'W', 'N', 'U', 'M', 'R', 'C', 'S']	[1456, 944, 1029, 1888, 697, 'stimAuditory/all_stimAuditory/204.wav', 1122, 986, 4000, 2448, 1335, 2059, 1224, 1587, 829, 1731]	9	Present	stimAuditory/all_stimAuditory/204.wav	stimVisual/all_stimVisual/220.jpg	PRESENT	0.35603785514831543	91.73125982284546	93.7328429222107	94.43305778503418	94.78303480148315	97.8493709564209	4.116528034210205	[91.75069093704224, 91.86764788627625, 92.85202479362488, 93.01879692077637, 93.76960182189941, 93.88639879226685, 94.00324988365173, 94.12013101577759, 94.23679995536804, 94.35359692573547, 94.4702479839325, 94.58711695671082, 94.70399880409241, 94.82081198692322, 94.93747091293335, 95.05445384979248, 95.17108201980591, 95.28788900375366, 95.40469598770142, 95.52138090133667, 95.62154984474182, 95.8493709564209]	[91.74550190734823, 91.86216857401489, 92.84516857401489, 93.0118685740149, 93.7618685740149, 93.87853524068156, 93.99520190734822, 94.11186857401488, 94.22853524068154, 94.3452019073482, 94.46186857401486, 94.57853524068152, 94.69520190734818, 94.81186857401484, 94.9285352406815, 95.04520190734816, 95.16186857401482, 95.27853524068148, 95.39520190734814, 95.5118685740148, 95.62853524068146, 95.86186857401479]	2020_Nov_27_1647	59.91212382655597	1	1
9	17	FALSE	NA	v	['H', 'W', 'A', 'Y', 'R', 'B', 'Z', 'P', 'V', 'M', 'G', 'J', 'X', 'S', 'T', 'K']	[986, 2448, 697, 2670, 1587, 760, 2911, 1456, 2245, 1224, 944, 1029, 4000, 1731, 1888, 1122]	13	Present	NA	NA	PRESENT	0.3045079708099365	97.83778691291808	99.84910893440248	101.01604795455933	101.36608600616456	103.96573781967165	4.116628885269165	[97.85721683502197, 97.97418999671936, 98.9583899974823, 99.12556195259094, 99.89282393455505, 99.99279594421387, 100.11044096946716, 100.22667098045349, 100.34343385696411, 100.46006989479065, 100.57696580886841, 100.69361281394958, 100.81045389175415, 100.92719388008118, 101.04414796829224, 101.16085481643677, 101.27779197692871, 101.39445185661316, 101.51109290122986, 101.62796783447266, 101.74492597579956, 101.96573781967163]	[97.86186857401479, 97.97853524068145, 98.96153524068146, 99.12823524068146, 99.87823524068146, 99.99490190734812, 100.11156857401478, 100.22823524068144, 100.3449019073481, 100.46156857401476, 100.57823524068142, 100.69490190734808, 100.81156857401474, 100.9282352406814, 101.04490190734806, 101.16156857401472, 101.27823524068138, 101.39490190734804, 101.5115685740147, 101.62823524068136, 101.74490190734802, 101.97823524068136]	2020_Nov_27_1647	59.91212382655597	1	1
9	18	FALSE	NA	v	['P', 'W', 'V', 'T', 'M', 'E', 'N', 'U', 'R', 'J', 'G', 'X', 'S', 'B', 'H', 'Y']	[1456, 2448, 2245, 1888, 1224, 904, 1335, 2059, 1587, 1029, 944, 4000, 1731, 760, 986, 2670]	12	Present	NA	NA	PRESENT	0.28499388694763184	103.96101880073547	105.965322971344	107.01571798324584	107.36572790145874	110.08210396766664	4.116780996322632	[103.98044991493225, 104.09730195999146, 105.08174085617065, 105.24865293502808, 105.99943685531616, 106.11632490158081, 106.23309397697449, 106.34985780715942, 106.46650290489197, 106.58335399627686, 106.70002388954163, 106.8169310092926, 106.9338059425354, 107.05041599273682, 107.16724300384521, 107.2841157913208, 107.40094995498657, 107.51774001121521, 107.63433885574341, 107.7513267993927, 107.8680899143219, 108.08210396766663]	[103.97823524068136, 104.09490190734802, 105.07790190734802, 105.24460190734803, 105.99460190734803, 106.11126857401469, 106.22793524068135, 106.34460190734801, 106.46126857401467, 106.57793524068133, 106.69460190734799, 106.81126857401465, 106.92793524068131, 107.04460190734797, 107.16126857401463, 107.27793524068129, 107.39460190734795, 107.51126857401461, 107.62793524068127, 107.74460190734793, 107.86126857401459, 108.09460190734792]	2020_Nov_27_1647	59.91212382655597	1	1
9	19	FALSE	NN	v	['S', 'V', 'P', 'K', 'B', 'R', 'T', 'N', 'H', 'A', 'C', 'W', 'J', 'M', 'G', 'Y']	[1731, 2245, 1456, 1122, 760, 1587, 1888, 1335, 986, 697, 829, 2448, 1029, 1224, 944, 2670]	14	Absent	NA	NA	ABSENT	0.6981041431427002	110.08455991744997	112.08195400238036	113.366436958313	113.71532487869264	116.19847083091736	4.116516828536987	[110.10398983955383, 110.20370602607727, 111.18806791305542, 111.35500192642212, 112.12252402305603, 112.23950791358948, 112.35617399215698, 112.4562029838562, 112.57291793823242, 112.6897599697113, 112.80653285980225, 112.92331790924072, 113.04012393951416, 113.15689086914062, 113.27370882034302, 113.39049887657166, 113.50721001625061, 113.62416481971741, 113.74082779884338, 113.8577618598938, 113.97467088699341, 114.19846987724304]	[110.09460190734792, 110.21126857401458, 111.19426857401459, 111.36096857401459, 112.11096857401459, 112.22763524068125, 112.34430190734791, 112.46096857401457, 112.57763524068123, 112.69430190734789, 112.81096857401455, 112.92763524068121, 113.04430190734787, 113.16096857401453, 113.27763524068119, 113.39430190734785, 113.51096857401451, 113.62763524068117, 113.74430190734783, 113.86096857401449, 113.97763524068115, 114.21096857401449]	2020_Nov_27_1647	59.91212382655597	1	1
9	20	FALSE	NN	v	['G', 'S', 'U', 'C', 'M', 'N', 'E', 'W', 'Y', 'H', 'K', 'P', 'T', 'Z', 'V', 'J']	[944, 1731, 2059, 829, 1224, 1335, 904, 2448, 2670, 986, 1122, 1456, 1888, 2911, 2245, 1029]	12	Absent	NA	NA	ABSENT	0.3908350467681885	116.19089794158936	118.19803881645204	119.24841690063477	119.59844398498537	122.31483793258668	4.1167991161346436	[116.21032881736755, 116.3270959854126, 117.311518907547, 117.47845983505249, 118.2291419506073, 118.34590482711792, 118.46260595321655, 118.57944083213806, 118.69630789756775, 118.81300783157349, 118.92991590499878, 119.04657196998596, 119.16337990760803, 119.28021383285522, 119.39691591262817, 119.51388692855835, 119.6304829120636, 119.74749684333801, 119.86410188674927, 119.98108983039856, 120.09809494018555, 120.31483793258667]	[116.21096857401449, 116.32763524068115, 117.31063524068115, 117.47733524068116, 118.22733524068116, 118.34400190734782, 118.46066857401448, 118.57733524068114, 118.6940019073478, 118.81066857401446, 118.92733524068112, 119.04400190734778, 119.16066857401444, 119.2773352406811, 119.39400190734776, 119.51066857401442, 119.62733524068108, 119.74400190734774, 119.8606685740144, 119.97733524068106, 120.09400190734772, 120.32733524068105]	2020_Nov_27_1647	59.91212382655597	1	1
9	21	FALSE	NA	v	['E', 'Z', 'N', 'G', 'B', 'C', 'A', 'P', 'H', 'X', 'W', 'S', 'U', 'T', 'J', 'M']	[904, 2911, 1335, 944, 760, 829, 697, 1456, 986, 4000, 2448, 1731, 2059, 1888, 1029, 1224]	10	Present	NA	NA	PRESENT	0.18819403648376465	122.31410789489746	124.3145158290863	125.1316487789154	125.4815158843994	128.4312038421631	4.116688013076782	[122.33353781700134, 122.4503219127655, 123.43462896347046, 123.60155892372131, 124.35230493545532, 124.46901988983154, 124.58599495887756, 124.70274996757507, 124.81955790519714, 124.93643593788147, 125.05314683914185, 125.16988682746887, 125.28649592399597, 125.40353798866272, 125.52011394500732, 125.63702392578125, 125.75376582145691, 125.8705677986145, 125.98744988441467, 126.10420179367065, 126.2042908668518, 126.43120384216309]	[122.32733524068105, 122.44400190734771, 123.42700190734772, 123.59370190734772, 124.34370190734772, 124.46036857401438, 124.57703524068104, 124.6937019073477, 124.81036857401436, 124.92703524068102, 125.04370190734768, 125.16036857401434, 125.277035240681, 125.39370190734766, 125.51036857401432, 125.62703524068098, 125.74370190734764, 125.8603685740143, 125.97703524068096, 126.09370190734762, 126.21036857401428, 126.44370190734762]	2020_Nov_27_1647	59.91212382655597	1	1
9	22	FALSE	NA	v	['E', 'P', 'H', 'V', 'U', 'K', 'M', 'X', 'T', 'Y', 'B', 'Z', 'C', 'G', 'A', 'J']	[904, 1456, 986, 2245, 2059, 1122, 1224, 4000, 1888, 2670, 760, 2911, 829, 944, 697, 1029]	8	Present	NA	NA	PRESENT	0.1049342155456543	128.420560836792	130.43078994750977	131.0144419670105	131.365149974823	134.5475709438324	4.116780996322632	[128.43999195098877, 128.55679297447205, 129.54127287864685, 129.7081480026245, 130.4589138031006, 130.5755410194397, 130.6922960281372, 130.8093400001526, 130.92599201202393, 131.04277801513672, 131.1597559452057, 131.27630591392517, 131.39321494102478, 131.50997281074524, 131.62684082984924, 131.74357295036316, 131.86032700538635, 131.97711491584778, 132.09394598007202, 132.21077799797058, 132.3275020122528, 132.54756999015808]	[128.44370190734762, 128.5603685740143, 129.5433685740143, 129.7100685740143, 130.4600685740143, 130.57673524068096, 130.69340190734763, 130.8100685740143, 130.92673524068098, 131.04340190734766, 131.16006857401433, 131.276735240681, 131.39340190734768, 131.51006857401435, 131.62673524068103, 131.7434019073477, 131.86006857401438, 131.97673524068105, 132.09340190734773, 132.2100685740144, 132.32673524068107, 132.5600685740144]	2020_Nov_27_1647	59.91212382655597	1	1
9	23	FALSE	AV	v	['P', 'Z', 'G', 'V', 'N', 'A', 'R', 'S', 'M', 'C', 'surprise', 'U', 'T', 'X', 'K', 'W']	[1456, 2911, 944, 2245, 1335, 697, 1587, 1731, 1224, 829, 'stimAuditory/all_stimAuditory/109.wav', 2059, 1888, 4000, 1122, 2448]	14	Present	stimAuditory/all_stimAuditory/109.wav	stimVisual/all_stimVisual/107.jpg	ABSENT	0.8613641262054443	134.54394388198853	136.5473129749298	137.83129787445068	138.18109679222107	140.66393780708313	4.11662483215332	[134.5633749961853, 134.68014883995056, 135.66445684432983, 135.83116698265076, 136.5819218158722, 136.69882893562317, 136.81572484970093, 136.93247079849243, 137.04919385910034, 137.16608691215515, 137.2830629348755, 137.39959287643433, 137.51620602607727, 137.63327479362488, 137.74983191490173, 137.86676502227783, 137.98347783088684, 138.100350856781, 138.2172408103943, 138.33400893211365, 138.45064997673035, 138.66393899917603]	[134.5600685740144, 134.67673524068107, 135.65973524068107, 135.82643524068106, 136.57643524068106, 136.69310190734774, 136.8097685740144, 136.9264352406811, 137.04310190734776, 137.15976857401444, 137.2764352406811, 137.39310190734778, 137.50976857401446, 137.62643524068113, 137.7431019073478, 137.85976857401448, 137.97643524068116, 138.09310190734783, 138.2097685740145, 138.32643524068118, 138.44310190734785, 138.67643524068117]	2020_Nov_27_1647	59.91212382655597	1	1
9	24	FALSE	NA	v	['J', 'S', 'R', 'Z', 'K', 'B', 'G', 'Y', 'N', 'X', 'W', 'E', 'U', 'T', 'H', 'M']	[1029, 1731, 1587, 2911, 1122, 760, 944, 2670, 1335, 4000, 2448, 904, 2059, 1888, 986, 1224]	10	Present	NA	NA	PRESENT	0.25859785079956055	140.65046191215515	142.66368985176086	143.4805338382721	143.83051180839541	146.78030490875244	4.116615056991577	[140.66989302635193, 140.78645086288452, 141.77073693275452, 141.93767786026, 142.70541787147522, 142.80525088310242, 142.92200183868408, 143.03877592086792, 143.1556158065796, 143.27241683006287, 143.38937902450562, 143.50612998008728, 143.62296080589294, 143.73962879180908, 143.8563129901886, 143.97324299812317, 144.0898458957672, 144.20665192604065, 144.32368683815002, 144.4405038356781, 144.5571849346161, 144.78030586242676]	[140.67643524068117, 140.79310190734785, 141.77610190734785, 141.94280190734784, 142.69280190734784, 142.80946857401452, 142.9261352406812, 143.04280190734787, 143.15946857401454, 143.2761352406812, 143.3928019073479, 143.50946857401456, 143.62613524068124, 143.7428019073479, 143.85946857401458, 143.97613524068126, 144.09280190734793, 144.2094685740146, 144.32613524068128, 144.44280190734796, 144.55946857401463, 144.79280190734795]	2020_Nov_27_1647	59.91212382655597	1	1
9	25	FALSE	NV	v	['M', 'J', 'S', 'T', 'W', 'A', 'U', 'R', 'C', 'N', 'X', 'K', 'V', 'Y', 'Z', 'B']	[1224, 1029, 1731, 1888, 2448, 697, 2059, 1587, 829, 1335, 4000, 1122, 2245, 2670, 2911, 760]	11	Present	NA	NA	PRESENT	0.07915592193603516	146.77354884147644	148.78016090393066	149.71374988555908	150.06355786323547	152.89667081832886	4.116509914398193	[146.7929790019989, 146.90962982177734, 147.89398884773254, 148.0610809326172, 148.81160879135132, 148.92851400375366, 149.04518294334412, 149.16216492652893, 149.27894186973572, 149.3957757949829, 149.51263999938965, 149.62970995903015, 149.74589586257935, 149.8627109527588, 149.97979998588562, 150.09673190116882, 150.21312379837036, 150.3301649093628, 150.4466609954834, 150.5636568069458, 150.68043494224548, 150.89667081832886]	[146.79280190734795, 146.90946857401462, 147.89246857401463, 148.05916857401462, 148.80916857401462, 148.9258352406813, 149.04250190734797, 149.15916857401464, 149.27583524068132, 149.392501907348, 149.50916857401467, 149.62583524068134, 149.74250190734801, 149.8591685740147, 149.97583524068136, 150.09250190734804, 150.2091685740147, 150.32583524068139, 150.44250190734806, 150.55916857401473, 150.6758352406814, 150.90916857401473]	2020_Nov_27_1647	59.91212382655597	1	1
9	26	FALSE	VA	v	['C', 'W', 'B', 'V', 'M', 'U', 'G', 'R', 'surprise', 'S', 'J', 'X', 'Z', 'P', 'Y', 'A']	[829, 2448, 760, 2245, 1224, 2059, 944, 1587, 'stimAuditory/all_stimAuditory/219.wav', 1731, 1029, 4000, 2911, 1456, 2670, 697]	12	Present	NA	stimVisual/all_stimVisual/106.jpg	ABSENT	0.3563358783721924	152.8966839313507	154.89626288414	155.94780898094177	156.29659295082092	159.01303791999817	4.116775035858154	[152.9161148071289, 153.03300189971924, 154.01742601394653, 154.18425583839417, 154.935045003891, 155.05189895629883, 155.168438911438, 155.28531193733215, 155.4019958972931, 155.51903200149536, 155.63581895828247, 155.75259590148926, 155.852530002594, 155.9858260154724, 156.10281801223755, 156.2195439338684, 156.3363699913025, 156.45312881469727, 156.5700569152832, 156.6869659423828, 156.7870638370514, 157.01303696632385]	[152.90916857401473, 153.0258352406814, 154.0088352406814, 154.1755352406814, 154.9255352406814, 155.04220190734807, 155.15886857401475, 155.27553524068142, 155.3922019073481, 155.50886857401477, 155.62553524068144, 155.74220190734812, 155.8588685740148, 155.97553524068147, 156.09220190734814, 156.20886857401482, 156.3255352406815, 156.44220190734816, 156.55886857401484, 156.6755352406815, 156.7922019073482, 157.0255352406815]	2020_Nov_27_1647	59.91212382655597	1	1
9	27	FALSE	NV	v	['N', 'Z', 'M', 'T', 'J', 'W', 'R', 'P', 'H', 'U', 'B', 'V', 'A', 'X', 'Y', 'C']	[1335, 2911, 1224, 1888, 1029, 2448, 1587, 1456, 986, 2059, 760, 2245, 697, 4000, 2670, 829]	14	Present	NA	NA	PRESENT	0.37691617012023926	159.00332689285278	161.01281595230105	162.296621799469	162.6465859413147	165.12940382957458	4.11658787727356	[159.02275681495667, 159.13956785202026, 160.1241638660431, 160.29069995880127, 161.0414218902588, 161.15829586982727, 161.27524590492249, 161.3919198513031, 161.5087468624115, 161.62544083595276, 161.7422800064087, 161.85914397239685, 161.97587299346924, 162.09256792068481, 162.20915579795837, 162.3262448310852, 162.44285702705383, 162.55978202819824, 162.67656898498535, 162.79344391822815, 162.91019988059998, 163.12940287590027]	[159.0255352406815, 159.14220190734818, 160.12520190734818, 160.29190190734818, 161.04190190734818, 161.15856857401485, 161.27523524068152, 161.3919019073482, 161.50856857401487, 161.62523524068155, 161.74190190734822, 161.8585685740149, 161.97523524068157, 162.09190190734824, 162.20856857401492, 162.3252352406816, 162.44190190734827, 162.55856857401494, 162.67523524068162, 162.7919019073483, 162.90856857401496, 163.14190190734828]	2020_Nov_27_1647	59.91212382655597	1	1
9	28	FALSE	NA	v	['U', 'H', 'K', 'E', 'T', 'Z', 'B', 'G', 'Y', 'J', 'W', 'A', 'N', 'X', 'V', 'S']	[2059, 986, 1122, 904, 1888, 2911, 760, 944, 2670, 1029, 2448, 697, 1335, 4000, 2245, 1731]	14	Present	NA	NA	ABSENT	0.8055281639099121	165.12632298469543	167.12905979156494	168.41285490989685	168.76263785362244	171.2457709312439	4.116711139678955	[165.14575290679932, 165.26256489753723, 166.2470738887787, 166.4137418270111, 167.16460490226746, 167.28152680397034, 167.39829802513123, 167.51518082618713, 167.6318519115448, 167.7487277984619, 167.86542081832886, 167.9822700023651, 168.0989978313446, 168.21566700935364, 168.33263087272644, 168.4495108127594, 168.566232919693, 168.68287682533264, 168.79989194869995, 168.91665887832642, 169.03329300880432, 169.2457718849182]	[165.14190190734828, 165.25856857401496, 166.24156857401496, 166.40826857401495, 167.15826857401495, 167.27493524068163, 167.3916019073483, 167.50826857401498, 167.62493524068165, 167.74160190734833, 167.858268574015, 167.97493524068167, 168.09160190734835, 168.20826857401502, 168.3249352406817, 168.44160190734837, 168.55826857401505, 168.67493524068172, 168.7916019073484, 168.90826857401507, 169.02493524068174, 169.25826857401506]	2020_Nov_27_1647	59.91212382655597	1	1
9	29	FALSE	NV	v	['S', 'U', 'K', 'B', 'A', 'R', 'E', 'H', 'W', 'X', 'M', 'Y', 'J', 'C', 'N', 'T']	[1731, 2059, 1122, 760, 697, 1587, 904, 986, 2448, 4000, 1224, 2670, 1029, 829, 1335, 1888]	10	Present	NA	NA	PRESENT	1.4510529041290283	171.2329139709473	173.2452359199524	174.06233882904053	174.41237783432007	177.36213779449463	4.116901874542236	[171.25234484672546, 171.36906385421753, 172.35346388816833, 172.5204758644104, 173.28784799575806, 173.38788485527039, 173.5048508644104, 173.62153482437134, 173.7384169101715, 173.85511589050293, 173.9720139503479, 174.08867383003235, 174.20568180084229, 174.3223648071289, 174.43922400474548, 174.55588698387146, 174.67260789871216, 174.7895908355713, 174.9062569141388, 175.02311086654663, 175.13973879814148, 175.3621368408203]	[171.25826857401506, 171.37493524068174, 172.35793524068174, 172.52463524068173, 173.27463524068173, 173.3913019073484, 173.50796857401508, 173.62463524068176, 173.74130190734843, 173.8579685740151, 173.97463524068178, 174.09130190734845, 174.20796857401513, 174.3246352406818, 174.44130190734847, 174.55796857401515, 174.67463524068182, 174.7913019073485, 174.90796857401517, 175.02463524068185, 175.14130190734852, 175.37463524068184]	2020_Nov_27_1647	59.91212382655597	1	1
9	30	FALSE	NA	v	['Z', 'T', 'J', 'G', 'Y', 'H', 'W', 'E', 'S', 'X', 'A', 'K', 'V', 'C', 'P', 'B']	[2911, 1888, 1029, 944, 2670, 986, 2448, 904, 1731, 4000, 697, 1122, 2245, 829, 1456, 760]	10	Present	NA	NA	PRESENT	0.58331298828125	177.356262922287	179.36174082756042	180.17879486083984	180.52886581420896	183.4785048961639	4.116764068603516	[177.37569379806519, 177.49250483512878, 178.47679781913757, 178.64372396469116, 179.39438700675964, 179.51129698753357, 179.62801480293274, 179.74483799934387, 179.86153197288513, 179.97826886177063, 180.09537482261658, 180.21209597587585, 180.32871985435486, 180.4457449913025, 180.56230401992798, 180.6792778968811, 180.7957808971405, 180.91269183158875, 181.0295078754425, 181.14628982543945, 181.26307702064514, 181.47850394248962]	[177.37463524068184, 177.49130190734851, 178.47430190734852, 178.6410019073485, 179.3910019073485, 179.50766857401518, 179.62433524068186, 179.74100190734853, 179.8576685740152, 179.97433524068188, 180.09100190734856, 180.20766857401523, 180.3243352406819, 180.44100190734858, 180.55766857401525, 180.67433524068193, 180.7910019073486, 180.90766857401528, 181.02433524068195, 181.14100190734862, 181.2576685740153, 181.49100190734862]	2020_Nov_27_1647	59.91212382655597	1	1
9	31	FALSE	NA	v	['K', 'R', 'G', 'V', 'Y', 'W', 'C', 'J', 'N', 'P', 'U', 'E', 'A', 'X', 'T', 'H']	[1122, 1587, 944, 2245, 2670, 2448, 829, 1029, 1335, 1456, 2059, 904, 697, 4000, 1888, 986]	14	Present	NA	NA	PRESENT	0.2849140167236328	183.47948479652405	185.4784150123596	186.76183199882507	187.1120159626007	189.59487080574036	4.116455793380737	[183.4989368915558, 183.61597681045532, 184.58319783210754, 184.7499749660492, 185.51753997802734, 185.63450002670288, 185.7511749267578, 185.86810183525085, 185.9848608970642, 186.10143899917603, 186.218407869339, 186.33512997627258, 186.4521210193634, 186.5688328742981, 186.68560981750488, 186.80236291885376, 186.90219283103943, 187.0190269947052, 187.15281200408936, 187.2526078224182, 187.36957693099976, 187.59487080574036]	[183.49100190734862, 183.6076685740153, 184.5906685740153, 184.7573685740153, 185.5073685740153, 185.62403524068196, 185.74070190734864, 185.8573685740153, 185.97403524068199, 186.09070190734866, 186.20736857401533, 186.324035240682, 186.44070190734868, 186.55736857401536, 186.67403524068203, 186.7907019073487, 186.90736857401538, 187.02403524068205, 187.14070190734873, 187.2573685740154, 187.37403524068208, 187.6073685740154]	2020_Nov_27_1647	59.91212382655597	1	1
9	32	FALSE	VV	v	['J', 'T', 'R', 'Y', 'E', 'G', 'Z', 'W', 'H', 'N', 'surprise', 'K', 'C', 'X', 'B', 'U']	[1029, 1888, 1587, 2670, 904, 944, 2911, 2448, 986, 1335, 'stimAuditory/all_stimAuditory/207.wav', 1122, 829, 4000, 760, 2059]	14	Present	NA	stimVisual/all_stimVisual/217.jpg	ABSENT	0.5611929893493652	189.5859899520874	191.59445786476135	192.8781759738922	193.22815990448	195.71123790740967	4.116780042648315	[189.6054208278656, 189.72206091880798, 190.70692086219788, 190.87337183952332, 191.62411785125732, 191.74094891548157, 191.85789680480957, 191.97464895248413, 192.0913348197937, 192.20806193351746, 192.32488179206848, 192.44178700447083, 192.5583839416504, 192.67516684532166, 192.79197597503662, 192.90892481803894, 193.02573895454407, 193.14238500595093, 193.25933194160461, 193.3761579990387, 193.4926769733429, 193.71123790740967]	[189.6073685740154, 189.72403524068207, 190.70703524068207, 190.87373524068207, 191.62373524068207, 191.74040190734874, 191.85706857401541, 191.9737352406821, 192.09040190734876, 192.20706857401544, 192.3237352406821, 192.4404019073488, 192.55706857401546, 192.67373524068213, 192.7904019073488, 192.90706857401548, 193.02373524068216, 193.14040190734883, 193.2570685740155, 193.37373524068218, 193.49040190734885, 193.72373524068217]	2020_Nov_27_1647	59.91212382655597	1	1
9	33	FALSE	NV	v	['W', 'J', 'N', 'A', 'P', 'T', 'B', 'V', 'Y', 'H', 'G', 'Z', 'X', 'M', 'S', 'U']	[2448, 1029, 1335, 697, 1456, 1888, 760, 2245, 2670, 986, 944, 2911, 4000, 1224, 1731, 2059]	13	Present	NA	NA	PRESENT	0.1826770305633545	195.70896196365356	197.71075081825256	198.87778687477112	199.227854013443	201.82760381698608	4.1168529987335205	[195.72839283943176, 195.84524583816528, 196.82982993125916, 196.99653887748718, 197.74721598625183, 197.8641848564148, 197.98078179359436, 198.0976059436798, 198.2144739627838, 198.3313009738922, 198.44810581207275, 198.56482100486755, 198.68168592453003, 198.79860997200012, 198.91540384292603, 199.03205394744873, 199.14877486228943, 199.26544094085693, 199.3825228214264, 199.4993498325348, 199.59905695915222, 199.82760381698608]	[195.72373524068217, 195.84040190734885, 196.82340190734885, 196.99010190734884, 197.74010190734884, 197.85676857401552, 197.9734352406822, 198.09010190734887, 198.20676857401554, 198.32343524068222, 198.4401019073489, 198.55676857401556, 198.67343524068224, 198.7901019073489, 198.9067685740156, 199.02343524068226, 199.14010190734894, 199.2567685740156, 199.37343524068228, 199.49010190734896, 199.60676857401563, 199.84010190734895]	2020_Nov_27_1647	59.91212382655597	1	1
9	34	FALSE	NV	v	['H', 'K', 'M', 'U', 'P', 'B', 'V', 'N', 'J', 'S', 'Y', 'Z', 'A', 'X', 'R', 'C']	[986, 1122, 1224, 2059, 1456, 760, 2245, 1335, 1029, 1731, 2670, 2911, 697, 4000, 1587, 829]	14	Present	NA	NA	PRESENT	0.28318095207214355	201.8158929347992	203.82717895507812	205.11106896400452	205.46099090576172	207.9439709186554	4.1167919635772705	[201.8353238105774, 201.95166182518005, 202.93620085716248, 203.10309100151062, 203.8705108165741, 203.9706950187683, 204.08749794960022, 204.20425581932068, 204.32104086875916, 204.43793201446533, 204.55464100837708, 204.67153096199036, 204.7881498336792, 204.90507984161377, 205.02174186706543, 205.138592004776, 205.2554488182068, 205.37216687202454, 205.48884797096252, 205.6057689189911, 205.72237586975098, 205.9439709186554]	[201.84010190734895, 201.95676857401563, 202.93976857401563, 203.10646857401562, 203.85646857401562, 203.9731352406823, 204.08980190734897, 204.20646857401564, 204.32313524068232, 204.439801907349, 204.55646857401567, 204.67313524068234, 204.78980190734902, 204.9064685740157, 205.02313524068236, 205.13980190734904, 205.2564685740157, 205.3731352406824, 205.48980190734906, 205.60646857401574, 205.7231352406824, 205.95646857401573]	2020_Nov_27_1647	59.91212382655597	1	1
9	35	FALSE	NA	v	['R', 'W', 'J', 'Z', 'E', 'A', 'V', 'N', 'U', 'Y', 'K', 'X', 'P', 'C', 'G', 'T']	[1587, 2448, 1029, 2911, 904, 697, 2245, 1335, 2059, 2670, 1122, 4000, 1456, 829, 944, 1888]	12	Present	NA	NA	PRESENT	0.10369300842285156	207.93894386291504	209.9435389041901	210.99396991729736	211.34419298171997	214.0603380203247	4.1167991161346436	[207.9583740234375, 208.07502794265747, 209.05939292907715, 209.2261779308319, 209.9771068096161, 210.09400391578674, 210.2107219696045, 210.32756090164185, 210.44442081451416, 210.56105995178223, 210.677729845047, 210.7946479320526, 210.91131401062012, 211.02832579612732, 211.1452658176422, 211.26172184944153, 211.37852501869202, 211.49519395828247, 211.6122579574585, 211.72886180877686, 211.84584593772888, 212.0603368282318]	[207.95646857401573, 208.0731352406824, 209.0561352406824, 209.2228352406824, 209.9728352406824, 210.08950190734907, 210.20616857401575, 210.32283524068242, 210.4395019073491, 210.55616857401577, 210.67283524068245, 210.78950190734912, 210.9061685740158, 211.02283524068247, 211.13950190734914, 211.25616857401582, 211.3728352406825, 211.48950190734917, 211.60616857401584, 211.7228352406825, 211.8395019073492, 212.0728352406825]	2020_Nov_27_1647	59.91212382655597	1	1
9	36	FALSE	VV	v	['K', 'E', 'B', 'S', 'surprise', 'G', 'R', 'X', 'W', 'Y', 'V', 'U', 'N', 'M', 'H', 'J']	[1122, 904, 760, 1731, 'stimAuditory/all_stimAuditory/120.wav', 944, 1587, 4000, 2448, 2670, 2245, 2059, 1335, 1224, 986, 1029]	8	Present	NA	stimVisual/all_stimVisual/105.jpg	PRESENT	0.3408679962158203	214.06209993362427	216.06007385253903	216.64397192001343	216.99368381500244	220.17670392990112	4.1166300773620605	[214.08153080940247, 214.19837284088135, 215.16589879989624, 215.33293080329895, 216.1002459526062, 216.2169578075409, 216.3338189125061, 216.45059490203857, 216.55064582824707, 216.68413090705872, 216.78422784805298, 216.9010248184204, 217.0177538394928, 217.13462591171265, 217.25140595436096, 217.36818289756775, 217.48500180244446, 217.60176491737366, 217.71856093406677, 217.83528685569763, 217.95218586921692, 218.17670488357544]	[214.0728352406825, 214.18950190734918, 215.1725019073492, 215.33920190734918, 216.08920190734918, 216.20586857401585, 216.32253524068253, 216.4392019073492, 216.55586857401588, 216.67253524068255, 216.78920190734922, 216.9058685740159, 217.02253524068257, 217.13920190734925, 217.25586857401592, 217.3725352406826, 217.48920190734927, 217.60586857401594, 217.72253524068262, 217.8392019073493, 217.95586857401597, 218.1892019073493]	2020_Nov_27_1647	59.91212382655597	1	1
9	37	FALSE	NA	v	['A', 'T', 'N', 'B', 'W', 'P', 'R', 'U', 'Z', 'S', 'H', 'K', 'X', 'Y', 'C', 'V']	[697, 1888, 1335, 760, 2448, 1456, 1587, 2059, 2911, 1731, 986, 1122, 4000, 2670, 829, 2245]	13	Present	NA	NA	PRESENT	0.113692045211792	220.16863179206848	222.1763379573822	223.34336590766907	223.69352197647095	226.29307079315183	4.116732835769653	[220.18806290626526, 220.3047800064087, 221.28958797454834, 221.45592379570007, 222.20672702789307, 222.32344102859497, 222.44022297859192, 222.5571780204773, 222.67406702041626, 222.79072785377502, 222.90760588645935, 223.02427792549133, 223.14123392105103, 223.2579848766327, 223.37460684776306, 223.49162697792053, 223.60839581489563, 223.72518587112427, 223.84189081192017, 223.95870184898376, 224.0756528377533, 224.29306983947754]	[220.1892019073493, 220.30586857401596, 221.28886857401596, 221.45556857401596, 222.20556857401596, 222.32223524068263, 222.4389019073493, 222.55556857401598, 222.67223524068265, 222.78890190734933, 222.905568574016, 223.02223524068268, 223.13890190734935, 223.25556857401602, 223.3722352406827, 223.48890190734937, 223.60556857401605, 223.72223524068272, 223.8389019073494, 223.95556857401607, 224.07223524068274, 224.30556857401606]	2020_Nov_27_1647	59.91212382655597	1	1
9	38	FALSE	NV	v	['W', 'Y', 'U', 'V', 'T', 'A', 'Z', 'R', 'N', 'E', 'X', 'H', 'C', 'K', 'S', 'M']	[2448, 2670, 2059, 2245, 1888, 697, 2911, 1587, 1335, 904, 4000, 986, 829, 1122, 1731, 1224]	11	Present	NA	NA	PRESENT	0.15887188911437988	226.2916049957275	228.293004989624	229.22698187828064	229.57646989822388	232.40943789482117	4.1164329051971444	[226.31103587150574, 226.42804980278015, 227.41248083114624, 227.57934999465942, 228.32999396324158, 228.4468138217926, 228.56357598304749, 228.68049097061157, 228.79702281951904, 228.91407799720764, 229.03062891960144, 229.14745497703552, 229.26433300971985, 229.38111186027527, 229.49789690971375, 229.61452102661133, 229.73169589042664, 229.8483109474182, 229.96495079994202, 230.08191585540771, 230.18184685707092, 230.40943789482117]	[226.30556857401606, 226.42223524068274, 227.40523524068274, 227.57193524068273, 228.32193524068273, 228.4386019073494, 228.55526857401608, 228.67193524068276, 228.78860190734943, 228.9052685740161, 229.02193524068278, 229.13860190734945, 229.25526857401613, 229.3719352406828, 229.48860190734948, 229.60526857401615, 229.72193524068282, 229.8386019073495, 229.95526857401617, 230.07193524068285, 230.18860190734952, 230.42193524068284]	2020_Nov_27_1647	59.91212382655597	1	1
9	39	FALSE	VV	v	['A', 'H', 'Y', 'Z', 'P', 'surprise', 'K', 'E', 'X', 'U', 'C', 'M', 'R', 'G', 'J', 'B']	[697, 986, 2670, 2911, 1456, 'stimAuditory/all_stimAuditory/121.wav', 1122, 904, 4000, 2059, 829, 1224, 1587, 944, 1029, 760]	9	Present	NA	stimVisual/all_stimVisual/222.jpg	ABSENT	1.7952427864074707	232.39847087860107	234.4090588092804	235.10977387428284	235.45944094657895	238.52580499649048	4.116746187210083	[232.41790199279785, 232.53438687324524, 233.51892185211182, 233.6858367919922, 234.43636393547058, 234.55335879325867, 234.67013096809387, 234.7869598865509, 234.90375995635986, 235.0205819606781, 235.13716793060303, 235.2541298866272, 235.37075781822205, 235.4878318309784, 235.6045229434967, 235.72129797935486, 235.83814001083374, 235.95484685897827, 236.07159280776978, 236.18842387199402, 236.305077791214, 236.52580499649048]	[232.42193524068284, 232.53860190734952, 233.52160190734952, 233.6883019073495, 234.4383019073495, 234.5549685740162, 234.67163524068286, 234.78830190734953, 234.9049685740162, 235.02163524068288, 235.13830190734956, 235.25496857401623, 235.3716352406829, 235.48830190734958, 235.60496857401625, 235.72163524068293, 235.8383019073496, 235.95496857401628, 236.07163524068295, 236.18830190734963, 236.3049685740163, 236.53830190734962]	2020_Nov_27_1647	59.91212382655597	1	1
9	40	FALSE	NN	v	['C', 'G', 'J', 'M', 'H', 'A', 'W', 'N', 'P', 'U', 'V', 'K', 'B', 'Y', 'T', 'E']	[829, 944, 1029, 1224, 986, 697, 2448, 1335, 1456, 2059, 2245, 1122, 760, 2670, 1888, 904]	10	Absent	NA	NA	ABSENT	0.36806607246398926	238.5215139389038	240.52558588981628	241.34252190589905	241.69276785850525	244.6421709060669	4.11658501625061	[238.5409438610077, 238.65762090682983, 239.64202880859375, 239.80906987190247, 240.55962896347046, 240.67631101608276, 240.79319381713867, 240.9100639820099, 241.02690196037292, 241.14375400543213, 241.26044082641602, 241.37732791900635, 241.4941029548645, 241.61105394363403, 241.72755980491638, 241.8443729877472, 241.9612820148468, 242.07834482192993, 242.19484496116638, 242.31167602539062, 242.4284188747406, 242.6421718597412]	[238.53830190734962, 238.6549685740163, 239.6379685740163, 239.8046685740163, 240.5546685740163, 240.67133524068296, 240.78800190734964, 240.9046685740163, 241.021335240683, 241.13800190734966, 241.25466857401634, 241.371335240683, 241.48800190734968, 241.60466857401636, 241.72133524068303, 241.8380019073497, 241.95466857401638, 242.07133524068306, 242.18800190734973, 242.3046685740164, 242.42133524068308, 242.6546685740164]	2020_Nov_27_1647	59.91212382655597	1	1
9	41	FALSE	NV	v	['H', 'J', 'Z', 'C', 'U', 'R', 'T', 'M', 'P', 'X', 'A', 'W', 'E', 'G', 'B', 'S']	[986, 1029, 2911, 829, 2059, 1587, 1888, 1224, 1456, 4000, 697, 2448, 904, 944, 760, 1731]	10	Present	NA	NA	PRESENT	1.189296007156372	244.62784695625305	246.64173793792725	247.45884680747983	247.809045791626	250.7585380077362	4.11680006980896	[244.64727687835693, 244.76407384872437, 245.7485008239746, 245.9154908657074, 246.68290090560913, 246.7829189300537, 246.89969182014465, 247.01646780967712, 247.13324093818665, 247.25011682510376, 247.3668270111084, 247.4836459159851, 247.60055494308472, 247.71725487709045, 247.83405780792236, 247.95103096961975, 248.067636013031, 248.1844048500061, 248.3012888431549, 248.41795802116394, 248.5349838733673, 248.7585368156433]	[244.6546685740164, 244.77133524068307, 245.75433524068308, 245.92103524068307, 246.67103524068307, 246.78770190734974, 246.90436857401642, 247.0210352406831, 247.13770190734976, 247.25436857401644, 247.3710352406831, 247.4877019073498, 247.60436857401646, 247.72103524068314, 247.8377019073498, 247.95436857401648, 248.07103524068316, 248.18770190734983, 248.3043685740165, 248.42103524068318, 248.53770190734986, 248.77103524068318]	2020_Nov_27_1647	59.91212382655597	1	1
9	42	FALSE	NV	v	['H', 'J', 'Y', 'W', 'E', 'P', 'T', 'A', 'S', 'B', 'M', 'X', 'C', 'N', 'V', 'Z']	[986, 1029, 2670, 2448, 904, 1456, 1888, 697, 1731, 760, 1224, 4000, 829, 1335, 2245, 2911]	12	Present	NA	NA	PRESENT	0.593764066696167	250.75125885009768	252.75825691223145	253.80862283706665	254.1587679386139	256.8749039173126	4.116647005081177	[250.77068996429443, 250.8874750137329, 251.87171387672424, 252.03856897354126, 252.78992795944214, 252.90627884864807, 253.02296781539917, 253.1397089958191, 253.25671195983887, 253.3735339641571, 253.49020195007324, 253.60703802108765, 253.72391080856323, 253.84049701690674, 253.9574179649353, 254.07424187660217, 254.19102692604065, 254.30777502059937, 254.42453002929688, 254.54131889343262, 254.65808486938477, 254.87490391731262]	[250.77103524068318, 250.88770190734985, 251.87070190734985, 252.03740190734985, 252.78740190734985, 252.90406857401652, 253.0207352406832, 253.13740190734987, 253.25406857401654, 253.37073524068322, 253.4874019073499, 253.60406857401657, 253.72073524068324, 253.8374019073499, 253.9540685740166, 254.07073524068326, 254.18740190734994, 254.3040685740166, 254.42073524068329, 254.53740190734996, 254.65406857401663, 254.88740190734995]	2020_Nov_27_1647	59.91212382655597	1	1
9	43	FALSE	NV	v	['B', 'H', 'P', 'E', 'J', 'C', 'S', 'T', 'Z', 'N', 'X', 'G', 'Y', 'M', 'V', 'A']	[760, 986, 1456, 904, 1029, 829, 1731, 1888, 2911, 1335, 4000, 944, 2670, 1224, 2245, 697]	11	Present	NA	NA	PRESENT	0.23116087913513184	256.8742938041687	258.8746678829193	259.80814385414124	260.1583969593048	262.99127101898193	4.116603136062622	[256.8937249183655, 257.0107319355011, 257.99512100219727, 258.16196298599243, 258.9126989841461, 259.0295398235321, 259.14627599716187, 259.26294898986816, 259.37981700897217, 259.4966390132904, 259.61326599121094, 259.7302739620209, 259.84705901145935, 259.9636290073395, 260.08066296577454, 260.1974868774414, 260.3141338825226, 260.43095684051514, 260.54767084121704, 260.66458201408386, 260.7645239830017, 260.99126982688904]	[256.88740190734995, 257.0040685740166, 257.98706857401663, 258.1537685740166, 258.9037685740166, 259.0204352406833, 259.13710190735, 259.25376857401665, 259.3704352406833, 259.48710190735, 259.60376857401667, 259.72043524068334, 259.83710190735, 259.9537685740167, 260.07043524068337, 260.18710190735004, 260.3037685740167, 260.4204352406834, 260.53710190735006, 260.65376857401674, 260.7704352406834, 261.00376857401676]	2020_Nov_27_1647	59.91212382655597	1	1
9	44	FALSE	NV	v	['J', 'N', 'G', 'U', 'Y', 'A', 'C', 'B', 'E', 'W', 'T', 'P', 'X', 'H', 'R', 'K']	[1029, 1335, 944, 2059, 2670, 697, 829, 760, 904, 2448, 1888, 1456, 4000, 986, 1587, 1122]	13	Present	NA	NA	PRESENT	1.9157068729400637	262.9812948703766	264.9908277988434	266.1581199169159	266.50785994529724	269.10763788223267	4.116810083389282	[263.00072598457336, 263.1171588897705, 264.1014578342438, 264.2682499885559, 265.01899886131287, 265.1359558105469, 265.2527458667755, 265.36945486068726, 265.4862368106842, 265.60311484336853, 265.71991896629333, 265.8367049694061, 265.95359683036804, 266.0703639984131, 266.187068939209, 266.3039848804474, 266.42066979408264, 266.5375738143921, 266.65425300598145, 266.7711899280548, 266.88780784606934, 267.10765385627747]	[263.00376857401676, 263.12043524068343, 264.10343524068344, 264.27013524068343, 265.02013524068343, 265.1368019073501, 265.2534685740168, 265.37013524068345, 265.4868019073501, 265.6034685740168, 265.7201352406835, 265.83680190735015, 265.9534685740168, 266.0701352406835, 266.1868019073502, 266.30346857401685, 266.4201352406835, 266.5368019073502, 266.65346857401687, 266.77013524068354, 266.8868019073502, 267.12013524068357]	2020_Nov_27_1647	59.91212382655597	1	1
9	45	FALSE	NA	v	['Z', 'J', 'R', 'M', 'N', 'K', 'S', 'W', 'B', 'E', 'X', 'P', 'A', 'T', 'V', 'Y']	[2911, 1029, 1587, 1224, 1335, 1122, 1731, 2448, 760, 904, 4000, 1456, 697, 1888, 2245, 2670]	11	Present	NA	NA	PRESENT	0.31225085258483887	269.10419392585754	271.1072778701782	272.0411379337311	272.39092683792114	275.224004983902	4.116727113723755	[269.12362480163574, 269.2403588294983, 270.2246367931366, 270.3917419910431, 271.14224886894226, 271.2589910030365, 271.37601590156555, 271.4927718639374, 271.60974979400635, 271.72620582580566, 271.8432068824768, 271.9600088596344, 272.07710886001587, 272.19364190101624, 272.3103609085083, 272.42718291282654, 272.5440559387207, 272.6605908870697, 272.7776589393616, 272.8943819999695, 273.010892868042, 273.2240059375763]	[269.12013524068357, 269.23680190735024, 270.21980190735025, 270.38650190735024, 271.13650190735024, 271.2531685740169, 271.3698352406836, 271.48650190735026, 271.60316857401693, 271.7198352406836, 271.8365019073503, 271.95316857401696, 272.06983524068363, 272.1865019073503, 272.303168574017, 272.41983524068365, 272.5365019073503, 272.653168574017, 272.7698352406837, 272.88650190735035, 273.003168574017, 273.2365019073504]	2020_Nov_27_1647	59.91212382655597	1	1
9	46	FALSE	NN	v	['S', 'C', 'P', 'T', 'M', 'J', 'A', 'H', 'N', 'U', 'W', 'Z', 'B', 'V', 'K', 'E']	[1731, 829, 1456, 1888, 1224, 1029, 697, 986, 1335, 2059, 2448, 2911, 760, 2245, 1122, 904]	9	Absent	NA	NA	ABSENT	0.9258360862731934	275.21045899391174	277.2234859466553	277.92418384552	278.27430987358093	281.3403699398041	4.116883993148804	[275.22988986968994, 275.3466680049896, 276.33122086524963, 276.49809980392456, 277.2656090259552, 277.3657248020172, 277.48228883743286, 277.59932684898376, 277.71591782569885, 277.83286690711975, 277.94945001602173, 278.0663149356842, 278.1831359863281, 278.29987692832947, 278.4166920185089, 278.5334618091583, 278.6504487991333, 278.7673819065094, 278.88417196273804, 279.0008590221405, 279.11795687675476, 279.3403699398041]	[275.2365019073504, 275.35316857401705, 276.33616857401705, 276.50286857401704, 277.25286857401704, 277.3695352406837, 277.4862019073504, 277.60286857401707, 277.71953524068374, 277.8362019073504, 277.9528685740171, 278.06953524068376, 278.18620190735044, 278.3028685740171, 278.4195352406838, 278.53620190735046, 278.65286857401713, 278.7695352406838, 278.8862019073505, 279.00286857401716, 279.11953524068383, 279.3528685740172]	2020_Nov_27_1647	59.91212382655597	1	1
9	47	FALSE	AV	v	['M', 'E', 'G', 'N', 'C', 'R', 'A', 'S', 'Y', 'Z', 'surprise', 'H', 'B', 'X', 'K', 'U']	[1224, 904, 944, 1335, 829, 1587, 697, 1731, 2670, 2911, 'stimAuditory/all_stimAuditory/220.wav', 986, 760, 4000, 1122, 2059]	14	Present	stimAuditory/all_stimAuditory/219.wav	stimVisual/all_stimVisual/104.jpg	ABSENT	0.6579740047454834	281.3339858055115	283.3401298522949	284.6238639354706	284.97387886047363	287.4567368030548	4.116606950759888	[281.35341691970825, 281.4701030254364, 282.4547209739685, 282.62119793891907, 283.37205481529236, 283.4889409542084, 283.6060128211975, 283.72258496284485, 283.83917593955994, 283.9561939239502, 284.0728268623352, 284.1898329257965, 284.30644702911377, 284.4233000278473, 284.5399148464203, 284.65674781799316, 284.77372097969055, 284.8903708457947, 285.00740790367126, 285.12386083602905, 285.24083280563354, 285.4567379951477]	[281.3528685740172, 281.46953524068385, 282.45253524068386, 282.61923524068385, 283.36923524068385, 283.4859019073505, 283.6025685740172, 283.7192352406839, 283.83590190735055, 283.9525685740172, 284.0692352406839, 284.18590190735057, 284.30256857401724, 284.4192352406839, 284.5359019073506, 284.65256857401727, 284.76923524068394, 284.8859019073506, 285.0025685740173, 285.11923524068396, 285.23590190735064, 285.469235240684]	2020_Nov_27_1647	59.91212382655597	1	1
9	48	FALSE	NN	v	['J', 'G', 'N', 'V', 'M', 'A', 'Z', 'B', 'W', 'K', 'C', 'H', 'E', 'R', 'T', 'P']	[1029, 944, 1335, 2245, 1224, 697, 2911, 760, 2448, 1122, 829, 986, 904, 1587, 1888, 1456]	14	Absent	NA	NA	ABSENT	0.36720895767211914	287.4571318626404	289.456444978714	290.74002385139465	291.0904288291931	293.5731039047241	4.116658926010132	[287.47656297683716, 287.59317994117737, 288.57768082618713, 288.72775983810425, 289.4952189922333, 289.61303091049194, 289.72899889945984, 289.84556102752686, 289.9625840187073, 290.0791838169098, 290.19625782966614, 290.3129348754883, 290.4297468662262, 290.5463948249817, 290.66322588920593, 290.78019189834595, 290.89686584472656, 291.01368284225464, 291.1303639411926, 291.24734902381897, 291.34724593162537, 291.5731039047241]	[287.469235240684, 287.58590190735066, 288.56890190735066, 288.73560190735066, 289.48560190735066, 289.60226857401733, 289.718935240684, 289.8356019073507, 289.95226857401735, 290.068935240684, 290.1856019073507, 290.3022685740174, 290.41893524068405, 290.5356019073507, 290.6522685740174, 290.7689352406841, 290.88560190735075, 291.0022685740174, 291.1189352406841, 291.23560190735077, 291.35226857401744, 291.5856019073508]	2020_Nov_27_1647	59.91212382655597	1	1
9	49	FALSE	NV	v	['T', 'U', 'P', 'G', 'A', 'B', 'W', 'J', 'M', 'X', 'Z', 'H', 'E', 'C', 'Y', 'N']	[1888, 2059, 1456, 944, 697, 760, 2448, 1029, 1224, 4000, 2911, 986, 904, 829, 2670, 1335]	10	Present	NA	NA	PRESENT	0.16389107704162598	293.5638768672943	295.5728168487549	296.38968992233276	296.73968601226807	299.68947100639343	4.11665415763855	[293.5833079814911, 293.6998858451843, 294.68416595458984, 294.8509268760681, 295.60175490379333, 295.71859788894653, 295.8352539539337, 295.9522240161896, 296.06884479522705, 296.18589186668396, 296.3025438785553, 296.4194779396057, 296.53618693351746, 296.65300488471985, 296.76983880996704, 296.8864908218384, 297.0034399032593, 297.1201548576355, 297.23710894584656, 297.35386991500854, 297.4704918861389, 297.68946981430054]	[293.5856019073508, 293.70226857401747, 294.68526857401747, 294.85196857401746, 295.60196857401746, 295.71863524068414, 295.8353019073508, 295.9519685740175, 296.06863524068416, 296.18530190735083, 296.3019685740175, 296.4186352406842, 296.53530190735086, 296.65196857401753, 296.7686352406842, 296.8853019073509, 297.00196857401755, 297.1186352406842, 297.2353019073509, 297.3519685740176, 297.46863524068425, 297.7019685740176]	2020_Nov_27_1647	59.91212382655597	1	1
9	50	FALSE	AV	v	['G', 'U', 'M', 'W', 'H', 'N', 'C', 'surprise', 'J', 'E', 'X', 'S', 'R', 'B', 'V', 'K']	[944, 2059, 1224, 2448, 986, 1335, 829, 'stimAuditory/all_stimAuditory/224.wav', 1029, 904, 4000, 1731, 1587, 760, 2245, 1122]	11	Present	stimAuditory/all_stimAuditory/207.wav	stimVisual/all_stimVisual/50.jpg	PRESENT	0.257343053817749	299.68672585487366	301.6892189979553	302.62333393096924	302.97266483306885	305.80583786964417	4.116618871688843	[299.70615792274475, 299.8229949474335, 300.8072888851166, 300.97413301467896, 301.7250699996948, 301.8418319225311, 301.95848202705383, 302.07533383369446, 302.19224786758423, 302.3089919090271, 302.42590498924255, 302.54253792762756, 302.6593978404999, 302.7761809825897, 302.8929719924927, 303.009614944458, 303.12693095207214, 303.2434358596802, 303.36028695106506, 303.476833820343, 303.59374594688416, 303.80583786964417]	[299.7019685740176, 299.8186352406843, 300.8016352406843, 300.96833524068427, 301.71833524068427, 301.83500190735094, 301.9516685740176, 302.0683352406843, 302.18500190735097, 302.30166857401764, 302.4183352406843, 302.535001907351, 302.65166857401766, 302.76833524068434, 302.885001907351, 303.0016685740177, 303.11833524068436, 303.23500190735103, 303.3516685740177, 303.4683352406844, 303.58500190735106, 303.8183352406844]	2020_Nov_27_1647	59.91212382655597	1	1
9	51	FALSE	NA	v	['J', 'H', 'Y', 'B', 'N', 'Z', 'A', 'R', 'V', 'X', 'K', 'G', 'P', 'S', 'W', 'E']	[1029, 986, 2670, 760, 1335, 2911, 697, 1587, 2245, 4000, 1122, 944, 1456, 1731, 2448, 904]	10	Present	NA	NA	PRESENT	0.5176651477813721	305.79341983795166	307.80564188957214	308.6227879524231	308.97302889823914	311.9222049713135	4.116563081741333	[305.8128499984741, 305.92943382263184, 306.91403889656067, 307.0806498527527, 307.8481779098511, 307.9484260082245, 308.0650668144226, 308.181932926178, 308.2987949848175, 308.4155628681183, 308.5321569442749, 308.64897894859314, 308.7659738063812, 308.8827118873596, 308.99939799308777, 309.1161768436432, 309.23301887512207, 309.34973788261414, 309.46649980545044, 309.58352494239807, 309.70022892951965, 309.92220401763916]	[305.8183352406844, 305.9350019073511, 306.9180019073511, 307.0847019073511, 307.8347019073511, 307.95136857401775, 308.0680352406844, 308.1847019073511, 308.3013685740178, 308.41803524068445, 308.5347019073511, 308.6513685740178, 308.76803524068447, 308.88470190735114, 309.0013685740178, 309.1180352406845, 309.23470190735117, 309.35136857401784, 309.4680352406845, 309.5847019073512, 309.70136857401786, 309.9347019073512]	2020_Nov_27_1647	59.91212382655597	1	1
9	52	FALSE	NV	v	['P', 'K', 'M', 'H', 'V', 'J', 'A', 'R', 'B', 'Y', 'E', 'C', 'X', 'Z', 'U', 'T']	[1456, 1122, 1224, 986, 2245, 1029, 697, 1587, 760, 2670, 904, 829, 4000, 2911, 2059, 1888]	13	Present	NA	NA	PRESENT	0.32209110260009766	311.9164779186249	313.9218409061432	315.08996081352234	315.43980288505554	318.0385708808899	4.116729974746704	[311.9359200000763, 312.05274987220764, 313.0372648239136, 313.2042968273163, 313.9546549320221, 314.07171082496643, 314.18831992149353, 314.304967880249, 314.42192482948303, 314.53857588768005, 314.65558099746704, 314.77218198776245, 314.8890697956085, 315.0059988498688, 315.1226398944855, 315.23944187164307, 315.3562159538269, 315.47305488586426, 315.58979988098145, 315.7067677974701, 315.82350301742554, 316.0385708808899]	[311.9347019073512, 312.0513685740179, 313.0343685740179, 313.2010685740179, 313.9510685740179, 314.06773524068456, 314.18440190735123, 314.3010685740179, 314.4177352406846, 314.53440190735125, 314.6510685740179, 314.7677352406846, 314.8844019073513, 315.00106857401795, 315.1177352406846, 315.2344019073513, 315.351068574018, 315.46773524068465, 315.5844019073513, 315.701068574018, 315.81773524068467, 316.051068574018]	2020_Nov_27_1647	59.91212382655597	1	1
9	53	FALSE	NV	v	['Y', 'R', 'E', 'C', 'T', 'K', 'A', 'V', 'J', 'P', 'G', 'S', 'B', 'X', 'Z', 'N']	[2670, 1587, 904, 829, 1888, 1122, 697, 2245, 1029, 1456, 944, 1731, 760, 4000, 2911, 1335]	14	Present	NA	NA	PRESENT	0.3114511966705322	318.0398049354553	320.0381109714508	321.3220388889313	321.67377281188965	324.1549379825592	4.116827011108398	[318.0592358112335, 318.17611479759216, 319.1434528827667, 319.3103549480438, 320.0780417919159, 320.19483280181885, 320.3117108345032, 320.42842388153076, 320.54524993896484, 320.66203689575195, 320.7788338661194, 320.8954179286957, 320.9954059123993, 321.1292369365692, 321.2291178703308, 321.34581780433655, 321.4626908302307, 321.5793948173523, 321.71322894096375, 321.8130588531494, 321.92992401123047, 322.1549379825592]	[318.051068574018, 318.1677352406847, 319.1507352406847, 319.3174352406847, 320.0674352406847, 320.18410190735136, 320.30076857401804, 320.4174352406847, 320.5341019073514, 320.65076857401806, 320.76743524068473, 320.8841019073514, 321.0007685740181, 321.11743524068476, 321.23410190735143, 321.3507685740181, 321.4674352406848, 321.58410190735145, 321.7007685740181, 321.8174352406848, 321.9341019073515, 322.1674352406848]	2020_Nov_27_1647	59.91212382655597	1	1
9	54	FALSE	NN	v	['N', 'E', 'G', 'T', 'R', 'V', 'S', 'Y', 'Z', 'C', 'J', 'M', 'U', 'B', 'K', 'P']	[1335, 904, 944, 1888, 1587, 2245, 1731, 2670, 2911, 829, 1029, 1224, 2059, 760, 1122, 1456]	12	Absent	NA	NA	ABSENT	0.26801395416259766	324.14657497406006	326.1545670032501	327.2048828601837	327.55494379997253	330.2713038921356	4.116736888885498	[324.16600584983826, 324.28251791000366, 325.26694083213806, 325.43367886543274, 326.1845178604126, 326.30136799812317, 326.4181180000305, 326.53485798835754, 326.6517720222473, 326.76826000213623, 326.8852608203888, 327.00219082832336, 327.1188588142395, 327.23553586006165, 327.3525538444519, 327.46934485435486, 327.5860638618469, 327.7028980255127, 327.8196268081665, 327.9364240169525, 328.0532639026642, 328.2713038921356]	[324.1674352406848, 324.2841019073515, 325.2671019073515, 325.4338019073515, 326.1838019073515, 326.30046857401817, 326.41713524068484, 326.5338019073515, 326.6504685740182, 326.76713524068487, 326.88380190735154, 327.0004685740182, 327.1171352406849, 327.23380190735156, 327.35046857401824, 327.4671352406849, 327.5838019073516, 327.70046857401826, 327.81713524068493, 327.9338019073516, 328.0504685740183, 328.28380190735163]	2020_Nov_27_1647	59.91212382655597	1	1
9	55	FALSE	NN	v	['M', 'R', 'J', 'U', 'P', 'G', 'N', 'V', 'A', 'Y', 'S', 'Z', 'T', 'E', 'H', 'B']	[1224, 1587, 1029, 2059, 1456, 944, 1335, 2245, 697, 2670, 1731, 2911, 1888, 904, 986, 760]	14	Absent	NA	NA	ABSENT	0.1295158863067627	330.26947593688965	332.27087593078613	333.5547499656677	333.9046039581299	336.38767099380493	4.116795063018799	[330.28890681266785, 330.405690908432, 331.3900058269501, 331.5568850040436, 332.3078110218048, 332.42466592788696, 332.541396856308, 332.6581799983978, 332.77499890327454, 332.89165782928467, 333.00849080085754, 333.1252839565277, 333.2419559955597, 333.3588328361511, 333.4756848812103, 333.5923659801483, 333.7091248035431, 333.8259768486023, 333.94290685653687, 334.05983901023865, 334.159560918808, 334.38767099380493]	[330.28380190735163, 330.4004685740183, 331.3834685740183, 331.5501685740183, 332.3001685740183, 332.416835240685, 332.53350190735165, 332.6501685740183, 332.766835240685, 332.8835019073517, 333.00016857401835, 333.116835240685, 333.2335019073517, 333.35016857401837, 333.46683524068504, 333.5835019073517, 333.7001685740184, 333.81683524068507, 333.93350190735174, 334.0501685740184, 334.1668352406851, 334.40016857401844]	2020_Nov_27_1647	59.91212382655597	1	1
9	56	FALSE	NA	v	['B', 'M', 'J', 'G', 'H', 'V', 'W', 'A', 'X', 'E', 'T', 'R', 'P', 'N', 'Z', 'S']	[760, 1224, 1029, 944, 986, 2245, 2448, 697, 4000, 904, 1888, 1587, 1456, 1335, 2911, 1731]	9	Present	NA	NA	PRESENT	0.2219409942626953	336.37594389915466	338.38738083839417	339.0880229473114	339.43776082992554	342.50403785705566	4.116657018661499	[336.39537382125854, 336.51238083839417, 337.496563911438, 337.6635088920593, 338.4141478538513, 338.5310618877411, 338.64779901504517, 338.76469898223877, 338.88125586509705, 338.9982318878174, 339.1149079799652, 339.23180985450745, 339.3485519886017, 339.46543288230896, 339.5822069644928, 339.69903898239136, 339.81575083732605, 339.9326148033142, 340.0494170188904, 340.16629791259766, 340.2830078601837, 340.50403785705566]	[336.40016857401844, 336.5168352406851, 337.4998352406851, 337.6665352406851, 338.4165352406851, 338.5332019073518, 338.64986857401846, 338.76653524068513, 338.8832019073518, 338.9998685740185, 339.11653524068515, 339.2332019073518, 339.3498685740185, 339.4665352406852, 339.58320190735185, 339.6998685740185, 339.8165352406852, 339.9332019073519, 340.04986857401855, 340.1665352406852, 340.2832019073519, 340.51653524068524]	2020_Nov_27_1647	59.91212382655597	1	1
9	57	FALSE	NV	v	['H', 'Z', 'U', 'Y', 'K', 'R', 'P', 'S', 'M', 'A', 'X', 'V', 'C', 'E', 'T', 'B']	[986, 2911, 2059, 2670, 1122, 1587, 1456, 1731, 1224, 697, 4000, 2245, 829, 904, 1888, 760]	11	Present	NA	NA	PRESENT	0.21867084503173828	342.49913001060486	344.5039060115814	345.43738198280334	345.78742694854736	348.620404958725	4.116498947143555	[342.51856088638306, 342.63541984558105, 343.61982679367065, 343.7866280078888, 344.53768396377563, 344.65434885025024, 344.7710978984833, 344.88786482810974, 345.0046079158783, 345.121435880661, 345.23823499679565, 345.35483598709106, 345.4718987941742, 345.5884358882904, 345.70540595054626, 345.82215785980225, 345.9388539791107, 346.0557518005371, 346.1726088523865, 346.28928899765015, 346.4060809612274, 346.620404958725]	[342.51653524068524, 342.6332019073519, 343.6162019073519, 343.7829019073519, 344.5329019073519, 344.6495685740186, 344.76623524068526, 344.88290190735194, 344.9995685740186, 345.1162352406853, 345.23290190735196, 345.34956857401863, 345.4662352406853, 345.582901907352, 345.69956857401866, 345.81623524068533, 345.932901907352, 346.0495685740187, 346.16623524068535, 346.282901907352, 346.3995685740187, 346.63290190735205]	2020_Nov_27_1647	59.91212382655597	1	1
9	58	FALSE	NN	v	['P', 'C', 'A', 'M', 'R', 'T', 'E', 'Z', 'W', 'J', 'B', 'V', 'K', 'U', 'S', 'G']	[1456, 829, 697, 1224, 1587, 1888, 904, 2911, 2448, 1029, 760, 2245, 1122, 2059, 1731, 944]	14	Absent	NA	NA	ABSENT	0.3119320869445801	348.6224579811096	350.62006282806396	351.9038519859314	352.2539098262787	354.7367699146271	4.11670708656311	[348.6418888568878, 348.7417929172516, 349.72638487815857, 349.8932728767395, 350.660710811615, 350.76060485839844, 350.89442682266235, 350.9942479133606, 351.12783789634705, 351.2277309894562, 351.34456300735474, 351.46134185791016, 351.5782279968262, 351.69503593444824, 351.81182289123535, 351.92856097221375, 352.0453109741211, 352.1622009277344, 352.27894401550293, 352.3958218097687, 352.5127158164978, 352.7367699146271]	[348.63290190735205, 348.7495685740187, 349.7325685740187, 349.8992685740187, 350.6492685740187, 350.7659352406854, 350.88260190735207, 350.99926857401874, 351.1159352406854, 351.2326019073521, 351.34926857401877, 351.46593524068544, 351.5826019073521, 351.6992685740188, 351.81593524068546, 351.93260190735214, 352.0492685740188, 352.1659352406855, 352.28260190735216, 352.39926857401883, 352.5159352406855, 352.74926857401886]	2020_Nov_27_1647	59.91212382655597	1	1
9	59	FALSE	NN	v	['C', 'B', 'V', 'J', 'N', 'P', 'A', 'U', 'M', 'G', 'Z', 'S', 'W', 'E', 'Y', 'R']	[829, 760, 2245, 1029, 1335, 1456, 697, 2059, 1224, 944, 2911, 1731, 2448, 904, 2670, 1587]	14	Absent	NA	NA	ABSENT	0.2123570442199707	354.7292549610138	356.7363557815552	358.0204129219055	358.37028098106384	360.8531379699707	4.116782188415527	[354.7486870288849, 354.86518001556396, 355.8496708869934, 356.01629090309143, 356.7670660018921, 356.88411498069763, 357.0008499622345, 357.1177098751068, 357.23448491096497, 357.35105895996094, 357.4680268764496, 357.5847179889679, 357.7015199661255, 357.8183219432831, 357.9351189136505, 358.05200600624084, 358.1687738895416, 358.2853569984436, 358.40233087539673, 358.51901388168335, 358.6359179019928, 358.8531370162964]	[354.74926857401886, 354.86593524068553, 355.84893524068553, 356.0156352406855, 356.7656352406855, 356.8823019073522, 356.9989685740189, 357.11563524068555, 357.2323019073522, 357.3489685740189, 357.4656352406856, 357.58230190735225, 357.6989685740189, 357.8156352406856, 357.93230190735227, 358.04896857401894, 358.1656352406856, 358.2823019073523, 358.39896857401897, 358.51563524068564, 358.6323019073523, 358.86563524068566]	2020_Nov_27_1647	59.91212382655597	1	1
9	60	FALSE	NN	v	['M', 'E', 'Z', 'Y', 'P', 'N', 'C', 'G', 'J', 'V', 'B', 'T', 'R', 'H', 'W', 'K']	[1224, 904, 2911, 2670, 1456, 1335, 829, 944, 1029, 2245, 760, 1888, 1587, 986, 2448, 1122]	13	Absent	NA	NA	ABSENT	0.2417299747467041	360.8523337841034	362.8528900146485	364.0216670036316	364.3700368404389	366.9695038795471	4.116613864898682	[360.87176489830017, 360.98845982551575, 361.97270488739014, 362.1397190093994, 362.8904068470001, 363.0071039199829, 363.12408685684204, 363.24089193344116, 363.35757398605347, 363.4744338989258, 363.5911478996277, 363.7079179286957, 363.8246238231659, 363.9416069984436, 364.05859184265137, 364.17513394355774, 364.29184889793396, 364.40878200531006, 364.525563955307, 364.64233899116516, 364.7423529624939, 364.9695038795471]	[360.86563524068566, 360.98230190735234, 361.96530190735234, 362.13200190735233, 362.88200190735233, 362.998668574019, 363.1153352406857, 363.23200190735236, 363.34866857401903, 363.4653352406857, 363.5820019073524, 363.69866857401905, 363.8153352406857, 363.9320019073524, 364.0486685740191, 364.16533524068575, 364.2820019073524, 364.3986685740191, 364.5153352406858, 364.63200190735245, 364.7486685740191, 364.98200190735247]	2020_Nov_27_1647	59.91212382655597	1	1
9	61	FALSE	NV	v	['N', 'T', 'C', 'A', 'G', 'J', 'K', 'E', 'X', 'M', 'U', 'S', 'H', 'P', 'Y', 'W']	[1335, 1888, 829, 697, 944, 1029, 1122, 904, 4000, 1224, 2059, 1731, 986, 1456, 2670, 2448]	9	Present	NA	NA	PRESENT	0.15812206268310547	366.95859599113464	368.9690318107605	369.6697118282318	370.0195529460907	373.0858709812164	4.116839170455933	[366.97802686691284, 367.094929933548, 368.0794539451599, 368.24605202674866, 368.9968979358673, 369.11416697502136, 369.2305009365082, 369.34745502471924, 369.46412992477417, 369.58085083961487, 369.69754099845886, 369.81433486938477, 369.931275844574, 370.04818081855774, 370.16493487358093, 370.28168392181396, 370.3982639312744, 370.5153238773346, 370.6320300102234, 370.74876284599304, 370.86576795578003, 371.08587098121643]	[366.98200190735247, 367.09866857401914, 368.08166857401915, 368.24836857401914, 368.99836857401914, 369.1150352406858, 369.2317019073525, 369.34836857401916, 369.46503524068584, 369.5817019073525, 369.6983685740192, 369.81503524068586, 369.93170190735253, 370.0483685740192, 370.1650352406859, 370.28170190735256, 370.39836857401923, 370.5150352406859, 370.6317019073526, 370.74836857401925, 370.8650352406859, 371.0983685740193]	2020_Nov_27_1647	59.91212382655597	1	1
9	62	FALSE	NN	v	['W', 'H', 'R', 'S', 'Y', 'V', 'M', 'J', 'G', 'K', 'Z', 'E', 'N', 'C', 'P', 'B']	[2448, 986, 1587, 1731, 2670, 2245, 1224, 1029, 944, 1122, 2911, 904, 1335, 829, 1456, 760]	10	Absent	NA	NA	ABSENT	0.3227372169494629	373.0819509029389	375.0860388278961	375.9026038646698	376.2526068687439	379.2022378444672	4.116199016571045	[373.10138297080994, 373.2181758880615, 374.20280599594116, 374.36939001083374, 375.12008786201477, 375.2370538711548, 375.3537390232086, 375.4706928730011, 375.5874168872833, 375.7041199207306, 375.8210299015045, 375.9377839565277, 376.05456280708313, 376.1713728904724, 376.28787183761597, 376.4048578739166, 376.52150893211365, 376.6385598182678, 376.75512886047363, 376.8721218109131, 376.98888182640076, 377.20223784446716]	[373.0983685740193, 373.21503524068595, 374.19803524068595, 374.36473524068595, 375.11473524068595, 375.2314019073526, 375.3480685740193, 375.46473524068597, 375.58140190735264, 375.6980685740193, 375.814735240686, 375.93140190735267, 376.04806857401934, 376.164735240686, 376.2814019073527, 376.39806857401936, 376.51473524068604, 376.6314019073527, 376.7480685740194, 376.86473524068606, 376.98140190735273, 377.2147352406861]	2020_Nov_27_1647	59.91212382655597	1	1
9	63	FALSE	NA	v	['Y', 'R', 'P', 'E', 'W', 'J', 'G', 'S', 'X', 'C', 'K', 'N', 'T', 'V', 'M', 'U']	[2670, 1587, 1456, 904, 2448, 1029, 944, 1731, 4000, 829, 1122, 1335, 1888, 2245, 1224, 2059]	9	Present	NA	NA	PRESENT	0.08813595771789551	379.18837094306946	381.2019019126892	381.9022870063782	382.2523980140686	385.3186049461365	4.116703033447266	[379.20780086517334, 379.3245859146118, 380.30911898612976, 380.47598791122437, 381.24343395233154, 381.3433539867401, 381.460147857666, 381.5769588947296, 381.6937439441681, 381.8104908466339, 381.92727494239807, 382.04406094551086, 382.1608679294586, 382.2776439189911, 382.3945918083191, 382.51146388053894, 382.6281189918518, 382.74485182762146, 382.8618359565735, 382.978355884552, 383.095410823822, 383.3186049461365]	[379.2147352406861, 379.33140190735276, 380.31440190735276, 380.48110190735275, 381.23110190735275, 381.3477685740194, 381.4644352406861, 381.5811019073528, 381.69776857401945, 381.8144352406861, 381.9311019073528, 382.04776857401947, 382.16443524068615, 382.2811019073528, 382.3977685740195, 382.51443524068617, 382.63110190735284, 382.7477685740195, 382.8644352406862, 382.98110190735287, 383.09776857401954, 383.3311019073529]	2020_Nov_27_1647	59.91212382655597	1	1
9	64	FALSE	AA	v	['E', 'G', 'R', 'S', 'J', 'surprise', 'K', 'Z', 'X', 'V', 'B', 'N', 'Y', 'M', 'A', 'C']	[904, 944, 1587, 1731, 1029, 'stimAuditory/all_stimAuditory/117.wav', 1122, 2911, 4000, 2245, 760, 1335, 2670, 1224, 697, 829]	9	Present	stimAuditory/all_stimAuditory/120.wav	stimVisual/all_stimVisual/218.jpg	PRESENT	0.40473103523254395	385.31188678741455	387.3182330131531	388.0189399719238	388.3686139583587	391.4349708557129	4.1167378425598145	[385.33131885528564, 385.4479739665985, 386.4322078227997, 386.5993618965149, 387.3499720096588, 387.4668388366699, 387.58350896835327, 387.70039081573486, 387.81708884239197, 387.9337909221649, 388.05075097084045, 388.1674528121948, 388.28425788879395, 388.4008948802948, 388.5178289413452, 388.6346390247345, 388.7514679431915, 388.8681709766388, 388.98501682281494, 389.10170888900757, 389.21857380867004, 389.4349708557129]	[385.3311019073529, 385.44776857401956, 386.43076857401957, 386.59746857401956, 387.34746857401956, 387.46413524068623, 387.5808019073529, 387.6974685740196, 387.81413524068626, 387.93080190735293, 388.0474685740196, 388.1641352406863, 388.28080190735295, 388.3974685740196, 388.5141352406863, 388.630801907353, 388.74746857401965, 388.8641352406863, 388.980801907353, 389.0974685740197, 389.21413524068635, 389.4474685740197]	2020_Nov_27_1647	59.91212382655597	1	1
9	65	FALSE	NN	v	['A', 'G', 'R', 'S', 'N', 'H', 'T', 'K', 'M', 'U', 'E', 'V', 'C', 'W', 'Y', 'B']	[697, 944, 1587, 1731, 1335, 986, 1888, 1122, 1224, 2059, 904, 2245, 829, 2448, 2670, 760]	14	Absent	NA	NA	ABSENT	0.3777618408203125	391.43502497673035	393.4346878528595	394.7183709144592	395.0682549476623	397.5513379573822	4.116650104522705	[391.45445489883423, 391.57116293907166, 392.5553638935089, 392.7224078178406, 393.47309494018555, 393.58992981910706, 393.7067708969116, 393.8234188556671, 393.9401788711548, 394.0571517944336, 394.1740229129791, 394.29062700271606, 394.40750789642334, 394.5241889953613, 394.6410939693451, 394.75794982910156, 394.8746569156647, 394.99139285087585, 395.10870480537415, 395.22489285469055, 395.3251519203186, 395.5513370037079]	[391.4474685740197, 391.56413524068637, 392.5471352406864, 392.71383524068636, 393.46383524068636, 393.58050190735304, 393.6971685740197, 393.8138352406864, 393.93050190735306, 394.04716857401974, 394.1638352406864, 394.2805019073531, 394.39716857401976, 394.51383524068643, 394.6305019073531, 394.7471685740198, 394.86383524068646, 394.98050190735313, 395.0971685740198, 395.2138352406865, 395.33050190735315, 395.5638352406865]	2020_Nov_27_1647	59.91212382655597	1	1
9	66	FALSE	NN	v	['T', 'B', 'N', 'A', 'E', 'C', 'J', 'M', 'R', 'W', 'S', 'U', 'P', 'K', 'V', 'G']	[1888, 760, 1335, 697, 904, 829, 1029, 1224, 1587, 2448, 1731, 2059, 1456, 1122, 2245, 944]	14	Absent	NA	NA	ABSENT	0.20638298988342285	397.5414547920227	399.5510687828064	400.8348798751831	401.18538093566895	403.6677038669586	4.116635084152222	[397.5608859062195, 397.6776268482208, 398.66201186180115, 398.82878279685974, 399.57962799072266, 399.696496963501, 399.8133499622345, 399.93010687828064, 400.04691982269287, 400.16351795196533, 400.28049993515015, 400.3972978591919, 400.5140309333801, 400.63056898117065, 400.7476439476013, 400.86427998542786, 400.98123693466187, 401.0979428291321, 401.2147479057312, 401.33135080337524, 401.4483017921448, 401.6677029132843]	[397.5638352406865, 397.6805019073532, 398.6635019073532, 398.83020190735317, 399.58020190735317, 399.69686857401985, 399.8135352406865, 399.9302019073532, 400.04686857401987, 400.16353524068654, 400.2802019073532, 400.3968685740199, 400.51353524068656, 400.63020190735324, 400.7468685740199, 400.8635352406866, 400.98020190735326, 401.09686857401994, 401.2135352406866, 401.3302019073533, 401.44686857401996, 401.6802019073533]	2020_Nov_27_1647	59.91212382655597	1	1
9	67	FALSE	NN	v	['M', 'U', 'P', 'W', 'Y', 'N', 'V', 'H', 'G', 'B', 'R', 'A', 'C', 'Z', 'S', 'E']	[1224, 2059, 1456, 2448, 2670, 1335, 2245, 986, 944, 760, 1587, 697, 829, 2911, 1731, 904]	10	Absent	NA	NA	ABSENT	0.3551208972930908	403.6646227836609	405.66744780540466	406.4861299991608	406.83441495895386	409.78407096862793	4.116623163223267	[403.684054851532, 403.80093479156494, 404.78505182266235, 404.95209193229675, 405.7032539844513, 405.81951999664307, 405.93636083602905, 406.05318999290466, 406.16992688179016, 406.28697395324707, 406.4035029411316, 406.5203149318695, 406.6370208263397, 406.75386691093445, 406.87071084976196, 406.9874448776245, 407.1043448448181, 407.2211458683014, 407.33805894851685, 407.4547288417816, 407.5714650154114, 407.78407096862793]	[403.6802019073533, 403.79686857402, 404.77986857402, 404.94656857402, 405.69656857402, 405.81323524068665, 405.9299019073533, 406.04656857402, 406.1632352406867, 406.27990190735335, 406.39656857402, 406.5132352406867, 406.62990190735337, 406.74656857402005, 406.8632352406867, 406.9799019073534, 407.09656857402007, 407.21323524068674, 407.3299019073534, 407.4465685740201, 407.56323524068677, 407.7965685740201]	2020_Nov_27_1647	59.91212382655597	1	1
9	68	FALSE	NA	v	['U', 'T', 'G', 'S', 'Z', 'B', 'R', 'V', 'N', 'P', 'C', 'K', 'X', 'Y', 'A', 'E']	[2059, 1888, 944, 1731, 2911, 760, 1587, 2245, 1335, 1456, 829, 1122, 4000, 2670, 697, 904]	13	Present	NA	NA	PRESENT	0.7763919830322266	409.771057844162	411.7837297916413	412.9509258270264	413.3007178306579	415.90043783187866	4.116708040237427	[409.79048800468445, 409.90740990638733, 410.8917279243469, 411.0584509372711, 411.8260807991028, 411.92630195617676, 412.04299688339233, 412.15963101387024, 412.27659487724304, 412.39347982406616, 412.5102159976959, 412.62681794166565, 412.7436809539795, 412.8603467941284, 412.9773938655853, 413.0939738750458, 413.21093702316284, 413.32773780822754, 413.44450402259827, 413.5612688064575, 413.6781768798828, 413.90043783187866]	[409.7965685740201, 409.9132352406868, 410.8962352406868, 411.0629352406868, 411.8129352406868, 411.92960190735346, 412.04626857402013, 412.1629352406868, 412.2796019073535, 412.39626857402016, 412.51293524068683, 412.6296019073535, 412.7462685740202, 412.86293524068685, 412.9796019073535, 413.0962685740202, 413.2129352406869, 413.32960190735355, 413.4462685740202, 413.5629352406869, 413.6796019073536, 413.9129352406869]	2020_Nov_27_1647	59.91212382655597	1	1
9	69	FALSE	NN	v	['S', 'U', 'Z', 'K', 'V', 'A', 'G', 'N', 'H', 'E', 'W', 'C', 'M', 'P', 'T', 'R']	[1731, 2059, 2911, 1122, 2245, 697, 944, 1335, 986, 904, 2448, 829, 1224, 1456, 1888, 1587]	13	Absent	NA	NA	ABSENT	0.19704794883728027	415.89469289779663	417.90016198158264	419.066987991333	419.4170548915863	422.016804933548	4.116642951965332	[415.9141240119934, 416.03063201904297, 417.01481080055237, 417.18162298202515, 417.9325268268585, 418.0493588447571, 418.1660649776459, 418.2828619480133, 418.3996558189392, 418.51647090911865, 418.63340187072754, 418.75018882751465, 418.8671259880066, 418.9836800098419, 419.1006429195404, 419.2172679901123, 419.3341579437256, 419.45093393325806, 419.56755900382996, 419.6844689846039, 419.80127596855164, 420.01680397987366]	[415.9129352406869, 416.0296019073536, 417.0126019073536, 417.1793019073536, 417.9293019073536, 418.04596857402026, 418.16263524068694, 418.2793019073536, 418.3959685740203, 418.51263524068696, 418.62930190735364, 418.7459685740203, 418.862635240687, 418.97930190735366, 419.09596857402033, 419.212635240687, 419.3293019073537, 419.44596857402036, 419.56263524068703, 419.6793019073537, 419.7959685740204, 420.0293019073537]	2020_Nov_27_1647	59.91212382655597	1	1
9	70	FALSE	VV	v	['N', 'W', 'B', 'Y', 'R', 'K', 'P', 'H', 'G', 'A', 'surprise', 'C', 'Z', 'X', 'J', 'V']	[1335, 2448, 760, 2670, 1587, 1122, 1456, 986, 944, 697, 'stimAuditory/all_stimAuditory/208.wav', 829, 2911, 4000, 1029, 2245]	14	Present	NA	stimVisual/all_stimVisual/122.jpg	PRESENT	0.6180520057678223	422.0176818370819	424.0166368484497	425.3004059791565	425.6505148410797	428.1331708431244	4.116533994674683	[422.037113904953, 422.1538779735565, 423.12138080596924, 423.2881488800049, 424.05580496788025, 424.17268085479736, 424.2894937992096, 424.4061949253082, 424.52304792404175, 424.6397979259491, 424.75652289390564, 424.87344098091125, 424.9902048110962, 425.107460975647, 425.22366881370544, 425.34055185317993, 425.4405279159546, 425.5573079586029, 425.69078397750854, 425.7908229827881, 425.90783190727234, 426.1331717967987]	[422.0293019073537, 422.1459685740204, 423.1289685740204, 423.2956685740204, 424.0456685740204, 424.16233524068707, 424.27900190735375, 424.3956685740204, 424.5123352406871, 424.62900190735377, 424.74566857402044, 424.8623352406871, 424.9790019073538, 425.09566857402046, 425.21233524068714, 425.3290019073538, 425.4456685740205, 425.56233524068716, 425.67900190735384, 425.7956685740205, 425.9123352406872, 426.14566857402053]	2020_Nov_27_1647	59.91212382655597	1	1
9	71	FALSE	NV	v	['R', 'T', 'J', 'M', 'W', 'G', 'C', 'Z', 'K', 'H', 'X', 'N', 'Y', 'V', 'B', 'E']	[1587, 1888, 1029, 1224, 2448, 944, 829, 2911, 1122, 986, 4000, 1335, 2670, 2245, 760, 904]	11	Present	NA	NA	PRESENT	0.5829060077667236	428.1241858005524	430.13262486457825	431.06664085388184	431.4168047904968	434.2495369911194	4.116912126541138	[428.14361691474915, 428.2604298591614, 429.24478483200073, 429.4114007949829, 430.16226983070374, 430.27903485298157, 430.39608788490295, 430.51265501976013, 430.6294958591461, 430.74640583992004, 430.86321902275085, 430.9799268245697, 431.09661889076233, 431.21371579170227, 431.3300738334656, 431.4468059539795, 431.5638949871063, 431.6806478500366, 431.79725980758667, 431.9139997959137, 432.0310208797455, 432.2495379447937]	[428.14566857402053, 428.2623352406872, 429.2453352406872, 429.4120352406872, 430.1620352406872, 430.2787019073539, 430.39536857402055, 430.5120352406872, 430.6287019073539, 430.7453685740206, 430.86203524068725, 430.9787019073539, 431.0953685740206, 431.21203524068727, 431.32870190735395, 431.4453685740206, 431.5620352406873, 431.67870190735397, 431.79536857402064, 431.9120352406873, 432.028701907354, 432.26203524068734]	2020_Nov_27_1647	59.91212382655597	1	1
9	72	FALSE	NA	v	['H', 'J', 'E', 'R', 'K', 'G', 'P', 'Z', 'M', 'C', 'V', 'N', 'X', 'Y', 'W', 'B']	[986, 1029, 904, 1587, 1122, 944, 1456, 2911, 1224, 829, 2245, 1335, 4000, 2670, 2448, 760]	13	Present	NA	NA	PRESENT	0.27625298500061035	434.24730587005615	436.2490799427033	437.4165198802948	437.7664158344269	440.3659038543701	4.11682391166687	[434.26673579216003, 434.38360691070557, 435.3679749965668, 435.534677028656, 436.2855257987976, 436.4023280143738, 436.5192348957062, 436.63585686683655, 436.7528009414673, 436.86942887306213, 436.9864218235016, 437.10321497917175, 437.2197289466858, 437.33660793304443, 437.4534058570862, 437.5700788497925, 437.6869568824768, 437.80369782447815, 437.9205229282379, 438.0372278690338, 438.1373598575592, 438.3659038543701]	[434.26203524068734, 434.378701907354, 435.361701907354, 435.528401907354, 436.278401907354, 436.3950685740207, 436.51173524068736, 436.62840190735403, 436.7450685740207, 436.8617352406874, 436.97840190735405, 437.09506857402073, 437.2117352406874, 437.3284019073541, 437.44506857402075, 437.5617352406874, 437.6784019073541, 437.7950685740208, 437.91173524068745, 438.0284019073541, 438.1450685740208, 438.37840190735415]	2020_Nov_27_1647	59.91212382655597	1	1
9	73	FALSE	NA	v	['B', 'V', 'W', 'J', 'A', 'R', 'P', 'H', 'Y', 'X', 'E', 'T', 'S', 'K', 'U', 'N']	[760, 2245, 2448, 1029, 697, 1587, 1456, 986, 2670, 4000, 904, 1888, 1731, 1122, 2059, 1335]	10	Present	NA	NA	PRESENT	0.360853910446167	440.3538157939911	442.36541295051575	443.18263697624207	443.53257489204407	446.48227095603943	4.116858005523682	[440.37324595451355, 440.4900689125061, 441.4744679927826, 441.64118099212646, 442.40864181518555, 442.5089008808136, 442.6256549358368, 442.7425158023834, 442.85906195640564, 442.9760959148407, 443.0926778316498, 443.20970487594604, 443.3265600204468, 443.443247795105, 443.5600519180298, 443.6766200065613, 443.7936317920685, 443.91033387184143, 444.02723598480225, 444.14380502700806, 444.2606689929962, 444.48227095603943]	[440.37840190735415, 440.4950685740208, 441.4780685740208, 441.6447685740208, 442.3947685740208, 442.5114352406875, 442.62810190735416, 442.74476857402084, 442.8614352406875, 442.9781019073542, 443.09476857402086, 443.21143524068754, 443.3281019073542, 443.4447685740209, 443.56143524068756, 443.67810190735423, 443.7947685740209, 443.9114352406876, 444.02810190735426, 444.14476857402093, 444.2614352406876, 444.49476857402095]	2020_Nov_27_1647	59.91212382655597	1	1
9	74	FALSE	NV	v	['N', 'M', 'C', 'W', 'G', 'R', 'S', 'X', 'B', 'Y', 'Z', 'J', 'P', 'U', 'E', 'A']	[1335, 1224, 829, 2448, 944, 1587, 1731, 4000, 760, 2670, 2911, 1029, 1456, 2059, 904, 697]	8	Present	NA	NA	PRESENT	0.8690390586853027	446.47743797302246	448.4820837974548	449.0655829906464	449.41560888290405	452.59863781929016	4.116554021835327	[446.49686789512634, 446.6133530139923, 447.5975148677826, 447.76441979408264, 448.51508593559265, 448.6322138309479, 448.74891781806946, 448.86575293540955, 448.9823899269104, 449.0995738506317, 449.2159638404846, 449.3328378200531, 449.44954085350037, 449.56657886505127, 449.6832778453827, 449.8000338077545, 449.91680002212524, 450.03339982032776, 450.1505010128021, 450.26719999313354, 450.38383889198303, 450.59863781929016]	[446.49476857402095, 446.6114352406876, 447.59443524068763, 447.7611352406876, 448.5111352406876, 448.6278019073543, 448.74446857402097, 448.86113524068764, 448.9778019073543, 449.094468574021, 449.21113524068767, 449.32780190735434, 449.444468574021, 449.5611352406877, 449.67780190735436, 449.79446857402104, 449.9111352406877, 450.0278019073544, 450.14446857402106, 450.26113524068774, 450.3778019073544, 450.61113524068776]	2020_Nov_27_1647	59.91212382655597	1	1
9	75	FALSE	NN	v	['S', 'B', 'E', 'A', 'U', 'Z', 'V', 'W', 'M', 'P', 'N', 'G', 'J', 'R', 'K', 'H']	[1731, 760, 904, 697, 2059, 2911, 2245, 2448, 1224, 1456, 1335, 944, 1029, 1587, 1122, 986]	10	Absent	NA	NA	ABSENT	0.6746418476104736	452.6004238128662	454.59841680526733	455.4154369831085	455.7653679847718	458.7150049209595	4.116588115692139	[452.619854927063, 452.7363348007202, 453.7040479183197, 453.87093901634216, 454.6384959220886, 454.7551438808441, 454.8719918727875, 454.9890568256378, 455.10585284233093, 455.2224998474121, 455.3392848968506, 455.43924498558044, 455.55600094795227, 455.6727788448334, 455.78969979286194, 455.9063518047333, 456.0231649875641, 456.1401858329773, 456.25674986839294, 456.3734998703003, 456.49048590660095, 456.7150049209595]	[452.61113524068776, 452.72780190735443, 453.71080190735444, 453.87750190735443, 454.62750190735443, 454.7441685740211, 454.8608352406878, 454.97750190735445, 455.0941685740211, 455.2108352406878, 455.3275019073545, 455.44416857402115, 455.5608352406878, 455.6775019073545, 455.79416857402117, 455.91083524068785, 456.0275019073545, 456.1441685740212, 456.26083524068787, 456.37750190735454, 456.4941685740212, 456.72750190735456]	2020_Nov_27_1647	59.91212382655597	1	1
9	76	FALSE	NV	v	['Z', 'S', 'V', 'G', 'E', 'M', 'N', 'J', 'T', 'B', 'Y', 'A', 'C', 'X', 'W', 'H']	[2911, 1731, 2245, 944, 904, 1224, 1335, 1029, 1888, 760, 2670, 697, 829, 4000, 2448, 986]	14	Present	NA	NA	ABSENT	1.1751642227172852	458.7067949771881	460.7148928642273	461.9983758926392	462.3482458591461	464.8313708305359	4.116477966308594	[458.726224899292, 458.84314489364624, 459.8275189399719, 459.99418091773987, 460.74482798576355, 460.8616828918457, 460.97877192497253, 461.0955100059509, 461.2122600078583, 461.3289330005646, 461.445613861084, 461.56262397766113, 461.6792719364166, 461.7961959838867, 461.91293382644653, 462.02978587150574, 462.14656686782837, 462.26336193084717, 462.38020491600037, 462.49694299697876, 462.61375999450684, 462.8313708305359]	[458.72750190735456, 458.84416857402124, 459.82716857402124, 459.99386857402123, 460.74386857402123, 460.8605352406879, 460.9772019073546, 461.09386857402126, 461.21053524068793, 461.3272019073546, 461.4438685740213, 461.56053524068795, 461.67720190735463, 461.7938685740213, 461.910535240688, 462.02720190735465, 462.1438685740213, 462.260535240688, 462.3772019073547, 462.49386857402135, 462.610535240688, 462.84386857402137]	2020_Nov_27_1647	59.91212382655597	1	1
9	77	FALSE	AA	v	['U', 'A', 'N', 'Y', 'B', 'W', 'surprise', 'S', 'T', 'X', 'J', 'G', 'P', 'Z', 'R', 'V']	[2059, 697, 1335, 2670, 760, 2448, 'stimAuditory/all_stimAuditory/203.wav', 1731, 1888, 4000, 1029, 944, 1456, 2911, 1587, 2245]	10	Present	stimAuditory/all_stimAuditory/121.wav	stimVisual/all_stimVisual/215.jpg	PRESENT	0.24456310272216797	464.8300189971924	466.83111786842346	467.648188829422	467.99827885627747	470.9477379322052	4.116620063781738	[464.8494498729706, 464.96619987487793, 465.95050597190857, 466.1180069446564, 466.8681859970093, 466.9851248264313, 467.1018497943878, 467.21867990493774, 467.33546900749207, 467.452260017395, 467.5689368247986, 467.68570494651794, 467.80256485939026, 467.919401884079, 468.0361030101776, 468.153039932251, 468.26968002319336, 468.3863699436188, 468.5033118724823, 468.620080947876, 468.72009801864624, 468.9477379322052]	[464.84386857402137, 464.96053524068805, 465.94353524068805, 466.11023524068804, 466.86023524068804, 466.9769019073547, 467.0935685740214, 467.21023524068806, 467.32690190735474, 467.4435685740214, 467.5602352406881, 467.67690190735476, 467.79356857402144, 467.9102352406881, 468.0269019073548, 468.14356857402146, 468.26023524068813, 468.3769019073548, 468.4935685740215, 468.61023524068816, 468.72690190735483, 468.9602352406882]	2020_Nov_27_1647	59.91212382655597	1	1
9	78	FALSE	NV	v	['P', 'V', 'S', 'Y', 'M', 'N', 'B', 'T', 'A', 'X', 'H', 'W', 'U', 'K', 'R', 'E']	[1456, 2245, 1731, 2670, 1224, 1335, 760, 1888, 697, 4000, 986, 2448, 2059, 1122, 1587, 904]	10	Present	NA	NA	PRESENT	0.39308786392211914	470.9364387989044	472.9475049972534	473.764417886734	474.1145558357239	477.0641038417816	4.116598844528198	[470.9558689594269, 471.0726909637451, 472.05707693099976, 472.2240710258484, 472.97453689575195, 473.09161400794983, 473.2083668708801, 473.3251428604126, 473.4421229362488, 473.55865383148193, 473.6755588054657, 473.7922978401184, 473.90903997421265, 474.02578496932983, 474.1427597999573, 474.25962591171265, 474.3763608932495, 474.49308681488037, 474.6098368167877, 474.7266299724579, 474.8434000015259, 475.0641038417816]	[470.9602352406882, 471.07690190735485, 472.05990190735486, 472.22660190735485, 472.97660190735485, 473.0932685740215, 473.2099352406882, 473.32660190735487, 473.44326857402154, 473.5599352406882, 473.6766019073549, 473.79326857402157, 473.90993524068824, 474.0266019073549, 474.1432685740216, 474.25993524068826, 474.37660190735494, 474.4932685740216, 474.6099352406883, 474.72660190735496, 474.84326857402164, 475.076601907355]	2020_Nov_27_1647	59.91212382655597	1	1
9	79	FALSE	NA	v	['P', 'A', 'J', 'U', 'M', 'R', 'G', 'V', 'T', 'X', 'S', 'W', 'K', 'H', 'Y', 'N']	[1456, 697, 1029, 2059, 1224, 1587, 944, 2245, 1888, 4000, 1731, 2448, 1122, 986, 2670, 1335]	10	Present	NA	NA	PRESENT	0.2696108818054199	477.05990386009216	479.0639998912811	479.88073086738586	480.23092699050903	483.1804709434509	4.1164710521698	[477.07933592796326, 477.19596886634827, 478.180508852005, 478.34711480140686, 479.0984699726105, 479.21469497680664, 479.33151602745056, 479.4483528137207, 479.56517696380615, 479.68192887306213, 479.7986469268799, 479.9155008792877, 480.0322539806366, 480.1492178440094, 480.2660458087921, 480.3826220035553, 480.4994978904724, 480.6161379814148, 480.732990026474, 480.84987902641296, 480.9666678905487, 481.1804699897766]	[477.076601907355, 477.19326857402166, 478.17626857402166, 478.34296857402165, 479.09296857402165, 479.2096352406883, 479.326301907355, 479.4429685740217, 479.55963524068835, 479.676301907355, 479.7929685740217, 479.9096352406884, 480.02630190735505, 480.1429685740217, 480.2596352406884, 480.37630190735507, 480.49296857402175, 480.6096352406884, 480.7263019073551, 480.84296857402177, 480.95963524068844, 481.1929685740218]	2020_Nov_27_1647	59.91212382655597	1	1
