participant	trial_num	practice	task	condition	RSVP	RAP	probePos	probe_presence	surprise_sound	surprise_img	probe_response	probe_resp_time	first_fixation_time	trial_start_time	surprise_start_time	probe_start_time	trial_end_time	trial_duration	actualEventTimes	plannedEventTimes	date	framerate	marker_vol	RAP_vol
9	1	FALSE	NV	a	['G', 'A', 'E', 'R', 'N', 'K', 'T', 'Y', 'V', 'B', 'C', 'J', 'W', 'X', 'S', 'P']	[944, 697, 904, 1587, 1335, 1122, 1888, 2670, 2245, 760, 829, 1029, 2448, 4000, 1731, 1456]	14	Present	NA	NA	PRESENT	0.3198051452636719	1.9073486328125e-6	2.002358913421631	3.285702260261953	3.635704406009165	6.103870153427124	4.101511240005493	[0.007419109344482422, 0.12425804138183594, 1.0871920585632324, 1.2759850025177002, 2.026308059692383, 2.126400947570801, 2.243149995803833, 2.3599259853363037, 2.4767470359802246, 2.5934231281280518, 2.7104361057281494, 2.8270809650421143, 2.944016933441162, 3.0607831478118896, 3.1776630878448486, 3.2942559719085693, 3.4112401008605957, 3.5279719829559326, 3.64461612701416, 3.761491060256958, 3.8782060146331787, 4.103870153427124]	[2.1457672119140625e-06, 0.11666881242721192, 1.0996688124272118, 1.2663688124272119, 2.0163688124272117, 2.1330354790872117, 2.2497021457472117, 2.3663688124072118, 2.483035479067212, 2.599702145727212, 2.716368812387212, 2.833035479047212, 2.949702145707212, 3.066368812367212, 3.183035479027212, 3.299702145687212, 3.416368812347212, 3.533035479007212, 3.649702145667212, 3.766368812327212, 3.883035478987212, 4.1163688123205455]	2020_Nov_27_1711	59.93301249442724	1	0.375
9	2	FALSE	NV	a	['S', 'P', 'U', 'Y', 'N', 'G', 'R', 'W', 'V', 'E', 'X', 'K', 'H', 'J', 'B', 'Z']	[1731, 1456, 2059, 2670, 1335, 944, 1587, 2448, 2245, 904, 4000, 1122, 986, 1029, 760, 2911]	11	Present	NA	NA	PRESENT	0.2603170871734619	6.106697082519531	8.115428924560547	9.04876941039792	9.398772271400867	12.220237016677856	4.10480809211731	[6.114114999771118, 6.230936050415039, 7.203561067581177, 7.382127046585083, 8.13281798362732, 8.24966311454773, 8.366506099700928, 8.483227968215942, 8.59995412826538, 8.716668128967285, 8.833491086959839, 8.95042610168457, 9.067086935043335, 9.183907985687256, 9.3006751537323, 9.417596101760864, 9.534372091293335, 9.651157140731812, 9.767884969711304, 9.884696960449219, 10.001497983932495, 10.220237016677856]	[6.1163688123205455, 6.233035478980545, 7.216035478980545, 7.382735478980544, 8.132735478980544, 8.249402145640545, 8.366068812300545, 8.482735478960546, 8.599402145620546, 8.716068812280547, 8.832735478940547, 8.949402145600548, 9.066068812260548, 9.182735478920549, 9.29940214558055, 9.41606881224055, 9.53273547890055, 9.64940214556055, 9.766068812220551, 9.882735478880551, 9.999402145540552, 10.232735478873884]	2020_Nov_27_1711	59.93301249442724	1	0.375
9	3	FALSE	NV	a	['U', 'B', 'T', 'R', 'C', 'M', 'E', 'J', 'G', 'A', 'N', 'K', 'X', 'Z', 'V', 'H']	[2059, 760, 1888, 1587, 829, 1224, 904, 1029, 944, 697, 1335, 1122, 4000, 2911, 2245, 986]	13	Present	NA	NA	PRESENT	0.2258288860321045	12.230159997940063	14.231788873672484	15.398463646504174	15.748464600158492	18.336604118347168	4.104815244674683	[12.23757815361023, 12.354022979736328, 13.31992793083191, 13.505277156829834, 14.25592303276062, 14.372942924499512, 14.489607095718384, 14.606570959091187, 14.72315502166748, 14.840124130249023, 14.956737041473389, 15.073800086975098, 15.190545082092285, 15.307024002075195, 15.423808097839355, 15.54069995880127, 15.65752911567688, 15.774250984191895, 15.891144037246704, 16.007764101028442, 16.10786199569702, 16.336605072021484]	[12.232735478873884, 12.349402145533885, 13.332402145533885, 13.499102145533886, 14.249102145533886, 14.365768812193886, 14.482435478853887, 14.599102145513887, 14.715768812173888, 14.832435478833888, 14.949102145493889, 15.06576881215389, 15.18243547881389, 15.29910214547389, 15.41576881213389, 15.532435478793891, 15.649102145453892, 15.765768812113892, 15.882435478773893, 15.999102145433893, 16.115768812093894, 16.349102145427228]	2020_Nov_27_1711	59.93301249442724	1	0.375
9	4	FALSE	NA	a	['P', 'E', 'A', 'U', 'B', 'T', 'R', 'X', 'S', 'J', 'N', 'V', 'K', 'M', 'C', 'Z']	[1456, 904, 697, 2059, 760, 1888, 1587, 4000, 1731, 1029, 1335, 2245, 1122, 1224, 829, 2911]	8	Present	NA	NA	PRESENT	0.22211503982543945	18.33633589744568	20.348461866378784	20.93180330591047	21.281805213239107	24.452970027923584	4.1045081615448	[18.34375309944153, 18.460678100585938, 19.436293125152588, 19.611774921417236, 20.362534046173096, 20.479448080062866, 20.596051931381226, 20.712934017181396, 20.829920053482056, 20.946556091308594, 21.063387155532837, 21.179973125457764, 21.296877145767212, 21.41364097595215, 21.530465126037598, 21.64724612236023, 21.7640860080719, 21.8807110786438, 21.99755096435547, 22.114381074905396, 22.231648921966553, 22.452970027923584]	[18.349102145427228, 18.465768812087227, 19.448768812087227, 19.615468812087226, 20.365468812087226, 20.482135478747225, 20.598802145407223, 20.715468812067222, 20.83213547872722, 20.94880214538722, 21.065468812047218, 21.182135478707217, 21.298802145367215, 21.415468812027214, 21.532135478687213, 21.64880214534721, 21.76546881200721, 21.88213547866721, 21.998802145327208, 22.115468811987206, 22.232135478647205, 22.46546881198054]	2020_Nov_27_1711	59.93301249442724	1	0.375
9	5	FALSE	NA	a	['V', 'E', 'A', 'N', 'W', 'U', 'C', 'J', 'Z', 'T', 'X', 'K', 'Y', 'S', 'H', 'G']	[2245, 904, 697, 1335, 2448, 2059, 829, 1029, 2911, 1888, 4000, 1122, 2670, 1731, 986, 944]	11	Present	NA	NA	PRESENT	0.20275306701660156	24.459564924240112	26.46439290046692	27.39773433997861	27.74773624730724	30.569338083267212	4.104945182800293	[24.466982126235962, 24.583626985549927, 25.552660942077637, 25.735034942626953, 26.48570704460144, 26.60257315635681, 26.719277143478394, 26.836162090301514, 26.952935934066772, 27.069814920425415, 27.186393976211548, 27.303367137908936, 27.420017957687378, 27.536922931671143, 27.653638124465942, 27.770277976989746, 27.887155055999756, 28.004117012023926, 28.12079405784607, 28.237677097320557, 28.35451912879944, 28.569337129592896]	[24.46546881198054, 24.582135478640538, 25.56513547864054, 25.731835478640537, 26.481835478640537, 26.598502145300536, 26.715168811960535, 26.831835478620533, 26.948502145280532, 27.06516881194053, 27.18183547860053, 27.298502145260528, 27.415168811920527, 27.531835478580525, 27.648502145240524, 27.765168811900523, 27.88183547856052, 27.99850214522052, 28.11516881188052, 28.231835478540518, 28.348502145200516, 28.58183547853385]	2020_Nov_27_1711	59.93301249442724	1	0.375
9	6	FALSE	NA	a	['M', 'V', 'H', 'E', 'K', 'G', 'C', 'U', 'T', 'N', 'S', 'R', 'X', 'Z', 'Y', 'A']	[1224, 2245, 986, 904, 1122, 944, 829, 2059, 1888, 1335, 1731, 1587, 4000, 2911, 2670, 697]	13	Present	NA	NA	PRESENT	0.207719087600708	30.582815885543823	32.58103799819946	33.74771157893826	34.09771372468547	36.68570399284363	4.104665994644165	[30.590233087539673, 30.707016944885254, 31.669031143188477, 31.84128713607788, 32.609265089035034, 32.70888900756836, 32.82597494125366, 32.942651987075806, 33.05951499938965, 33.17623209953308, 33.29309296607971, 33.40967392921448, 33.52663612365723, 33.64338207244873, 33.76006603240967, 33.87696099281311, 33.99375295639038, 34.11048603057861, 34.227466106414795, 34.34410214424133, 34.46100211143494, 34.68570399284363]	[30.58183547853385, 30.69850214519385, 31.68150214519385, 31.84820214519385, 32.59820214519385, 32.714868811853854, 32.83153547851386, 32.94820214517386, 33.06486881183386, 33.18153547849386, 33.298202145153866, 33.41486881181387, 33.53153547847387, 33.64820214513387, 33.764868811793875, 33.88153547845388, 33.99820214511388, 34.11486881177388, 34.231535478433884, 34.348202145093886, 34.46486881175389, 34.69820214508722]	2020_Nov_27_1711	59.93301249442724	1	0.375
9	7	FALSE	NN	a	['U', 'Y', 'Z', 'V', 'J', 'S', 'G', 'N', 'R', 'M', 'T', 'C', 'A', 'P', 'H', 'W']	[2059, 2670, 2911, 2245, 1029, 1731, 944, 1335, 1587, 1224, 1888, 829, 697, 1456, 986, 2448]	11	Absent	NA	NA	ABSENT	0.19661998748779297	36.689231872558594	38.69711899757385	39.63046019866696	39.98046234441418	42.80207109451294	4.104952096939087	[36.69665002822876, 36.81339907646179, 37.785396099090576, 37.964667081832886, 38.71541714668274, 38.832234144210815, 38.94901514053345, 39.065840005874634, 39.18260598182678, 39.299559116363525, 39.41634011268616, 39.532994985580444, 39.649765968322754, 39.766600131988525, 39.883219957351685, 40.000088930130005, 40.11691999435425, 40.23374700546265, 40.350414991378784, 40.46735405921936, 40.584068059921265, 40.80207109451294]	[36.69820214508722, 36.814868811747225, 37.79786881174722, 37.96456881174722, 38.71456881174722, 38.83123547840722, 38.947902145067225, 39.06456881172723, 39.18123547838723, 39.29790214504723, 39.414568811707234, 39.531235478367236, 39.64790214502724, 39.76456881168724, 39.88123547834724, 39.997902145007245, 40.11456881166725, 40.23123547832725, 40.34790214498725, 40.464568811647254, 40.581235478307256, 40.81456881164059]	2020_Nov_27_1711	59.93301249442724	1	0.375
9	8	FALSE	NV	a	['C', 'Z', 'M', 'V', 'U', 'P', 'T', 'Y', 'G', 'W', 'H', 'R', 'B', 'X', 'S', 'N']	[829, 2911, 1224, 2245, 2059, 1456, 1888, 2670, 944, 2448, 986, 1587, 760, 4000, 1731, 1335]	14	Present	NA	NA	PRESENT	0.1619861125946045	42.81274509429931	44.81355690956116	46.09689834905285	46.44690025638148	48.91843795776367	4.104881048202515	[42.8201630115509, 42.93670392036438, 43.90176200866699, 44.08792996406555, 44.838603019714355, 44.9555721282959, 45.072263956069946, 45.188950061798096, 45.305907011032104, 45.42259097099304, 45.53928804397583, 45.65624213218689, 45.77285313606262, 45.872843980789185, 45.989737033843994, 46.106431007385254, 46.223345041275024, 46.340039014816284, 46.45693397521973, 46.5736620426178, 46.69050407409668, 46.918437004089355]	[42.81456881164059, 42.93123547830059, 43.91423547830059, 44.08093547830059, 44.83093547830059, 44.94760214496059, 45.06426881162059, 45.180935478280595, 45.2976021449406, 45.4142688116006, 45.5309354782606, 45.647602144920604, 45.76426881158061, 45.88093547824061, 45.99760214490061, 46.11426881156061, 46.230935478220616, 46.34760214488062, 46.46426881154062, 46.58093547820062, 46.697602144860625, 46.93093547819396]	2020_Nov_27_1711	59.93301249442724	1	0.375
9	9	FALSE	NA	a	['K', 'H', 'G', 'P', 'R', 'Y', 'U', 'S', 'X', 'Z', 'T', 'A', 'J', 'N', 'V', 'B']	[1122, 986, 944, 1456, 1587, 2670, 2059, 1731, 4000, 2911, 1888, 697, 1029, 1335, 2245, 760]	9	Present	NA	NA	PRESENT	0.078395843505859375	48.919025897979736	50.92984390258789	51.62985200877958	51.979852962433895	55.03480410575867	4.104960203170776	[48.926443099975586, 49.04309797286987, 50.01813006401062, 50.19421100616455, 50.94500207901001, 51.06184411048889, 51.178926944732666, 51.29557013511658, 51.41232204437256, 51.52912402153015, 51.6459801197052, 51.76275897026062, 51.87952709197998, 51.99626111984253, 52.11310315132141, 52.230170011520386, 52.34655809402466, 52.46352005004883, 52.5802960395813, 52.69720101356506, 52.81380105018616, 53.03480505943298]	[48.93093547819396, 49.04760214485396, 50.03060214485396, 50.19730214485396, 50.94730214485396, 51.06396881151396, 51.18063547817396, 51.297302144833964, 51.413968811493966, 51.53063547815397, 51.64730214481397, 51.76396881147397, 51.880635478133975, 51.99730214479398, 52.11396881145398, 52.23063547811398, 52.347302144773984, 52.463968811433986, 52.58063547809399, 52.69730214475399, 52.81396881141399, 53.04730214474733]	2020_Nov_27_1711	59.93301249442724	1	0.375
9	10	FALSE	NN	a	['E', 'W', 'N', 'T', 'Z', 'C', 'H', 'M', 'Y', 'U', 'J', 'B', 'P', 'A', 'V', 'S']	[904, 2448, 1335, 1888, 2911, 829, 986, 1224, 2670, 2059, 1029, 760, 1456, 697, 2245, 1731]	10	Absent	NA	NA	ABSENT	0.563014030456543	55.0422260761261	57.046289920806885	57.862964693658576	58.21296660098721	61.1511709690094	4.104881048202515	[55.04964303970337, 55.16637206077576, 56.13449311256409, 56.31765413284302, 57.068387031555176, 57.185243129730225, 57.301790952682495, 57.418792963027954, 57.53554105758667, 57.65238904953003, 57.769071102142334, 57.886043071746826, 58.00276708602905, 58.119527101516724, 58.23617506027222, 58.352883100509644, 58.469943046569824, 58.58643198013306, 58.703408002853394, 58.82027292251587, 58.93701696395874, 59.15117001533508]	[55.04730214474733, 55.16396881140733, 56.146968811407326, 56.313668811407325, 57.063668811407325, 57.18033547806733, 57.29700214472733, 57.41366881138733, 57.530335478047334, 57.647002144707336, 57.76366881136734, 57.88033547802734, 57.99700214468734, 58.113668811347345, 58.23033547800735, 58.34700214466735, 58.46366881132735, 58.580335477987354, 58.69700214464736, 58.81366881130736, 58.93033547796736, 59.163668811300695]	2020_Nov_27_1711	59.93301249442724	1	0.375
9	11	FALSE	NA	a	['E', 'A', 'P', 'G', 'Y', 'J', 'C', 'R', 'B', 'X', 'S', 'Z', 'M', 'W', 'N', 'H']	[904, 697, 1456, 944, 2670, 1029, 829, 1587, 760, 4000, 1731, 2911, 1224, 2448, 1335, 986]	10	Present	NA	NA	PRESENT	0.17625880241394043	61.16546797752381	63.16259789466858	63.979271713845954	64.32927362117458	67.26753807067871	4.104940176010132	[61.17288613319397, 61.27274203300476, 62.250864028930664, 62.424448013305664, 63.17466902732849, 63.29157114028931, 63.40847301483154, 63.52528715133667, 63.64205503463745, 63.75876712799072, 63.87569212913513, 63.99238395690918, 64.1093020439148, 64.22587203979492, 64.34278702735901, 64.45952606201172, 64.57643795013428, 64.6928870677948, 64.80991315841675, 64.92678999900818, 65.04354000091553, 65.26753807067871]	[61.163668811300695, 61.2803354779607, 62.263335477960695, 62.43003547796069, 63.18003547796069, 63.296702144620696, 63.4133688112807, 63.5300354779407, 63.6467021446007, 63.763368811260705, 63.88003547792071, 63.99670214458071, 64.1133688112407, 64.2300354779007, 64.3467021445607, 64.46336881122069, 64.58003547788068, 64.69670214454068, 64.81336881120068, 64.93003547786067, 65.04670214452067, 65.280035477854]	2020_Nov_27_1711	59.93301249442724	1	0.375
9	12	FALSE	NV	a	['H', 'W', 'P', 'Y', 'E', 'V', 'J', 'G', 'Z', 'B', 'T', 'C', 'A', 'X', 'U', 'N']	[986, 2448, 1456, 2670, 904, 2245, 1029, 944, 2911, 760, 1888, 829, 697, 4000, 2059, 1335]	14	Present	NA	NA	PRESENT	0.13290119171142578	67.27192902565002	69.27886009216309	70.5622012932362	70.91220224689052	73.38390398025513	4.105043888092041	[67.2793459892273, 67.3961250782013, 68.36722803115845, 68.54709696769714, 69.2979941368103, 69.41486310958862, 69.5317599773407, 69.6485071182251, 69.76530599594116, 69.88205003738403, 69.99888300895691, 70.11563515663147, 70.23241996765137, 70.34904193878174, 70.46583199501038, 70.58253908157349, 70.6995940208435, 70.81634902954102, 70.93322014808655, 71.04978799819946, 71.16673612594604, 71.38390302658081]	[67.280035477854, 67.396702144514, 68.379702144514, 68.546402144514, 69.296402144514, 69.413068811174, 69.529735477834, 69.64640214449399, 69.76306881115399, 69.87973547781398, 69.99640214447398, 70.11306881113397, 70.22973547779397, 70.34640214445396, 70.46306881111396, 70.57973547777395, 70.69640214443395, 70.81306881109394, 70.92973547775394, 71.04640214441393, 71.16306881107393, 71.39640214440726]	2020_Nov_27_1711	59.93301249442724	1	0.375
9	13	FALSE	AA	a	['H', 'W', 'K', 'B', 'R', 'J', 'T', 'C', 'Z', 'V', 'surprise', 'E', 'N', 'X', 'S', 'G']	[986, 2448, 1122, 760, 1587, 1029, 1888, 829, 2911, 2245, 'stimAuditory/all_stimAuditory/209.wav', 904, 1335, 4000, 1731, 944]	14	Present	stimAuditory/all_stimAuditory/209.wav	NA	PRESENT	0.62602996826171875	73.39531087875366	75.3953320980072	76.67867329908032	77.02867520640895	79.50027108192444	4.104938983917236	[73.40272808074951, 73.51922106742859, 74.48359608650208, 74.67042708396912, 75.42125511169434, 75.53794598579407, 75.65499711036682, 75.77169394493103, 75.87160015106201, 75.98840403556824, 76.10511803627014, 76.2219729423523, 76.33873915672302, 76.45552802085876, 76.57228803634644, 76.68909692764282, 76.80588006973267, 76.92264914512634, 77.03945899009705, 77.1563241481781, 77.2730700969696, 77.50027012825012]	[73.39640214440726, 73.51306881106726, 74.49606881106726, 74.66276881106727, 75.41276881106727, 75.52943547772726, 75.64610214438726, 75.76276881104725, 75.87943547770725, 75.99610214436724, 76.11276881102724, 76.22943547768723, 76.34610214434723, 76.46276881100722, 76.57943547766722, 76.69610214432721, 76.81276881098721, 76.9294354776472, 77.0461021443072, 77.1627688109672, 77.27943547762719, 77.51276881096052]	2020_Nov_27_1711	59.93301249442724	1	0.375
9	14	FALSE	NA	a	['V', 'N', 'Z', 'S', 'B', 'P', 'J', 'K', 'H', 'C', 'X', 'Y', 'E', 'W', 'A', 'G']	[2245, 1335, 2911, 1731, 760, 1456, 1029, 1122, 986, 829, 4000, 2670, 904, 2448, 697, 944]	11	Present	NA	NA	PRESENT	0.25470995903015137	79.50151109695435	81.51163387298584	82.44497435882322	82.79497626615185	85.61663699150085	4.105003118515015	[79.50892901420593, 79.62563014030457, 80.59996294975281, 80.77702498435974, 81.52769303321838, 81.64450597763062, 81.76139807701111, 81.87807703018188, 81.99498915672302, 82.11164808273315, 82.22838592529297, 82.34544515609741, 82.46212196350098, 82.5789840221405, 82.69544696807861, 82.81252813339233, 82.92918801307678, 83.04593992233276, 83.16320300102234, 83.27957510948181, 83.39627194404602, 83.61663794517517]	[79.51276881096052, 79.62943547762052, 80.61243547762052, 80.77913547762053, 81.52913547762053, 81.64580214428052, 81.76246881094052, 81.87913547760051, 81.99580214426051, 82.1124688109205, 82.2291354775805, 82.3458021442405, 82.46246881090049, 82.57913547756048, 82.69580214422048, 82.81246881088047, 82.92913547754047, 83.04580214420047, 83.16246881086046, 83.27913547752046, 83.39580214418045, 83.62913547751378]	2020_Nov_27_1711	59.93301249442724	1	0.375
9	15	FALSE	NA	a	['C', 'N', 'B', 'M', 'U', 'Y', 'T', 'K', 'E', 'X', 'P', 'A', 'H', 'V', 'G', 'S']	[829, 1335, 760, 1224, 2059, 2670, 1888, 1122, 904, 4000, 1456, 697, 986, 2245, 944, 1731]	10	Present	NA	NA	PRESENT	0.21112990379333496	85.62478303909302	87.62807202339172	88.44474655782483	88.79474870357204	91.73300409317017	4.104932069778442	[85.63220000267029, 85.74891304969788, 86.71633005142212, 86.90014410018921, 87.65083813667297, 87.76764106750488, 87.88458204269409, 88.00125503540039, 88.1182210445404, 88.2350001335144, 88.35179209709167, 88.46838212013245, 88.5851640701294, 88.70196509361267, 88.8187460899353, 88.93542194366455, 89.05239510536194, 89.16926407814026, 89.28600001335144, 89.40287208557129, 89.51969003677368, 89.7330060005188]	[85.62913547751378, 85.74580214417378, 86.72880214417378, 86.89550214417379, 87.64550214417379, 87.76216881083378, 87.87883547749378, 87.99550214415378, 88.11216881081377, 88.22883547747377, 88.34550214413376, 88.46216881079376, 88.57883547745375, 88.69550214411375, 88.81216881077374, 88.92883547743374, 89.04550214409373, 89.16216881075373, 89.27883547741372, 89.39550214407372, 89.51216881073371, 89.74550214406705]	2020_Nov_27_1711	59.93301249442724	1	0.375
9	16	FALSE	NV	a	['E', 'W', 'H', 'K', 'M', 'C', 'Z', 'J', 'V', 'U', 'G', 'B', 'X', 'T', 'P', 'S']	[904, 2448, 986, 1122, 1224, 829, 2911, 1029, 2245, 2059, 944, 760, 4000, 1888, 1456, 1731]	13	Present	NA	NA	PRESENT	0.3364250659942627	91.73111605644226	93.74446392059326	94.91113773975064	95.26113964707926	97.8493709564209	4.104907035827637	[91.73853397369385, 91.85524702072144, 92.83269596099854, 93.00653314590454, 93.75763702392578, 93.87413597106934, 93.99112796783447, 94.10777807235718, 94.22466206550598, 94.34138202667236, 94.458251953125, 94.57500505447388, 94.69165015220642, 94.80859303474426, 94.92543697357178, 95.04225206375122, 95.1590850353241, 95.27565813064575, 95.3925609588623, 95.50938296318054, 95.62605810165405, 95.8493709564209]	[91.74550214406705, 91.86216881072704, 92.84516881072705, 93.01186881072705, 93.76186881072705, 93.87853547738705, 93.99520214404704, 94.11186881070704, 94.22853547736703, 94.34520214402703, 94.46186881068702, 94.57853547734702, 94.69520214400701, 94.81186881066701, 94.928535477327, 95.045202143987, 95.161868810647, 95.27853547730699, 95.39520214396698, 95.51186881062698, 95.62853547728697, 95.86186881062031]	2020_Nov_27_1711	59.93301249442724	1	0.375
9	17	FALSE	AV	a	['E', 'R', 'M', 'G', 'C', 'K', 'B', 'A', 'surprise', 'Y', 'J', 'X', 'N', 'H', 'W', 'T']	[904, 1587, 1224, 944, 829, 1122, 760, 697, 'stimAuditory/all_stimAuditory/220.wav', 2670, 1029, 4000, 1335, 986, 2448, 1888]	12	Present	stimAuditory/all_stimAuditory/220.wav	NA	PRESENT	0.413057804107666	97.85420894622804	99.86087107658386	100.91087894433696	101.26088109008418	103.9657371044159	4.104866027832031	[97.8616271018982, 97.97859406471252, 98.94906497001648, 99.12981605529785, 99.8805160522461, 99.99749302864075, 100.11412000656128, 100.23108196258545, 100.34780406951904, 100.4644341468811, 100.58134412765503, 100.69814109802246, 100.81507611274719, 100.93164992332458, 101.04857802391052, 101.16538906097412, 101.28218293190002, 101.39893794059753, 101.51570296287537, 101.63256192207336, 101.74933505058289, 101.9657371044159]	[97.86186881062031, 97.9785354772803, 98.96153547728031, 99.12823547728031, 99.87823547728031, 99.99490214394031, 100.1115688106003, 100.2282354772603, 100.3449021439203, 100.46156881058029, 100.57823547724028, 100.69490214390028, 100.81156881056027, 100.92823547722027, 101.04490214388026, 101.16156881054026, 101.27823547720025, 101.39490214386025, 101.51156881052025, 101.62823547718024, 101.74490214384024, 101.97823547717357]	2020_Nov_27_1711	59.93301249442724	1	0.375
9	18	FALSE	NA	a	['J', 'S', 'H', 'U', 'W', 'N', 'G', 'X', 'M', 'R', 'E', 'V', 'P', 'B', 'A', 'Y']	[1029, 1731, 986, 2059, 2448, 1335, 944, 4000, 1224, 1587, 904, 2245, 1456, 760, 697, 2670]	8	Present	NA	NA	PRESENT	0.12236404418945312	103.97796702384947	105.9774239063263	106.560765345858	106.91076725318662	110.08210396766664	4.104680061340332	[103.98538494110107, 104.10182309150696, 105.06542706489563, 105.25308609008789, 106.00376009941101, 106.10385203361511, 106.22052907943726, 106.33736205101013, 106.45414113998413, 106.57102012634277, 106.68779397010803, 106.80452013015747, 106.92134404182434, 107.03824806213379, 107.15491509437561, 107.27190709114075, 107.38843107223511, 107.50539708137512, 107.62220597267151, 107.73904204368591, 107.8556900024414, 108.08210396766663]	[103.97823547717357, 104.09490214383356, 105.07790214383357, 105.24460214383357, 105.99460214383357, 106.11126881049357, 106.22793547715357, 106.34460214381356, 106.46126881047356, 106.57793547713355, 106.69460214379355, 106.81126881045354, 106.92793547711354, 107.04460214377353, 107.16126881043353, 107.27793547709352, 107.39460214375352, 107.51126881041351, 107.6279354770735, 107.7446021437335, 107.8612688103935, 108.09460214372683]	2020_Nov_27_1711	59.93301249442724	1	0.375
9	19	FALSE	NV	a	['T', 'Z', 'J', 'P', 'K', 'B', 'W', 'H', 'R', 'A', 'X', 'E', 'V', 'U', 'G', 'S']	[1888, 2911, 1029, 1456, 1122, 760, 2448, 986, 1587, 697, 4000, 904, 2245, 2059, 944, 1731]	11	Present	NA	NA	PRESENT	0.2631189823150635	110.0840470790863	112.09376692771912	113.0271083672308	113.37711027455944	116.19847106933594	4.104704141616821	[110.09146499633789, 110.2082200050354, 111.18179702758789, 111.35965514183044, 112.11019396781921, 112.2271089553833, 112.343994140625, 112.46081209182739, 112.57764196395874, 112.6942310333252, 112.81104493141174, 112.92790603637695, 113.04478812217712, 113.16185593605042, 113.27833199501038, 113.39509510993958, 113.5118100643158, 113.62860703468323, 113.74539113044739, 113.86212110519409, 113.979012966156, 114.19847106933594]	[110.09460214372683, 110.21126881038683, 111.19426881038683, 111.36096881038684, 112.11096881038684, 112.22763547704683, 112.34430214370683, 112.46096881036682, 112.57763547702682, 112.69430214368681, 112.81096881034681, 112.9276354770068, 113.0443021436668, 113.16096881032679, 113.27763547698679, 113.39430214364678, 113.51096881030678, 113.62763547696677, 113.74430214362677, 113.86096881028676, 113.97763547694676, 114.2109688102801]	2020_Nov_27_1711	59.93301249442724	1	0.375
9	20	FALSE	NV	a	['N', 'W', 'H', 'S', 'Y', 'P', 'E', 'B', 'Z', 'X', 'R', 'V', 'G', 'T', 'J', 'C']	[1335, 2448, 986, 1731, 2670, 1456, 904, 760, 2911, 4000, 1587, 2245, 944, 1888, 1029, 829]	10	Present	NA	NA	PRESENT	0.10735297203063963	116.20740795135498	118.2101550102234	119.0268295446565	119.3768316904037	122.31483793258668	4.104682922363281	[116.21482515335083, 116.33145594596863, 117.29816508293152, 117.48287892341614, 118.2335319519043, 118.35039901733398, 118.4670820236206, 118.583899974823, 118.70065712928772, 118.81747913360596, 118.93432807922363, 119.05104207992554, 119.16776704788208, 119.28444314002991, 119.40156292915344, 119.51843905448914, 119.63537502288818, 119.75179314613342, 119.86870098114014, 119.98526000976562, 120.10202407836914, 120.31483912467957]	[116.2109688102801, 116.32763547694009, 117.31063547694009, 117.4773354769401, 118.2273354769401, 118.3440021436001, 118.46066881026009, 118.57733547692008, 118.69400214358008, 118.81066881024007, 118.92733547690007, 119.04400214356006, 119.16066881022006, 119.27733547688005, 119.39400214354005, 119.51066881020004, 119.62733547686004, 119.74400214352004, 119.86066881018003, 119.97733547684003, 120.09400214350002, 120.32733547683335]	2020_Nov_27_1711	59.93301249442724	1	0.375
9	21	FALSE	NN	a	['G', 'Z', 'K', 'C', 'S', 'A', 'U', 'V', 'P', 'N', 'B', 'Y', 'J', 'M', 'T', 'E']	[944, 2911, 1122, 829, 1731, 697, 2059, 2245, 1456, 1335, 760, 2670, 1029, 1224, 1888, 904]	8	Absent	NA	NA	ABSENT	0.7925820350646973	122.3136658668518	124.32631492614746	124.90965636567915	125.2596582730078	128.43120503425598	4.1048901081085205	[122.32110810279846, 122.43793392181396, 123.4145290851593, 123.58965301513672, 124.33993601799011, 124.4568600654602, 124.57355213165283, 124.69037795066833, 124.80731296539307, 124.92392992973328, 125.04087996482849, 125.15763902664185, 125.27425408363342, 125.3912661075592, 125.50789999961853, 125.62468314170837, 125.74155807495117, 125.85819411277771, 125.97521996498108, 126.09192204475403, 126.2087631225586, 126.43120503425598]	[122.32733547683335, 122.44400214349335, 123.42700214349335, 123.59370214349336, 124.34370214349336, 124.46036881015335, 124.57703547681335, 124.69370214347335, 124.81036881013334, 124.92703547679334, 125.04370214345333, 125.16036881011333, 125.27703547677332, 125.39370214343332, 125.51036881009331, 125.6270354767533, 125.7437021434133, 125.8603688100733, 125.97703547673329, 126.09370214339329, 126.21036881005328, 126.44370214338662]	2020_Nov_27_1711	59.93301249442724	1	0.375
9	22	FALSE	NN	a	['Y', 'M', 'N', 'T', 'G', 'S', 'B', 'K', 'A', 'U', 'R', 'C', 'P', 'V', 'Z', 'H']	[2670, 1224, 1335, 1888, 944, 1731, 760, 1122, 697, 2059, 1587, 829, 1456, 2245, 2911, 986]	10	Absent	NA	NA	ABSENT	0.8453009128570557	128.43707609176636	130.4427559375763	131.25943071042798	131.60943261775662	134.5475709438324	4.1048150062561035	[128.44449305534363, 128.561203956604, 129.53089809417725, 129.71254801750183, 130.46304607391357, 130.57986497879028, 130.6969029903412, 130.81359314918518, 130.93027305603027, 131.04722809791565, 131.1640441417694, 131.28086709976196, 131.3976891040802, 131.51444602012634, 131.63111114501953, 131.74793195724487, 131.86477303504944, 131.9814670085907, 132.09811401367188, 132.2149510383606, 132.33192706108093, 132.54756999015808]	[128.44370214338662, 128.5603688100466, 129.54336881004662, 129.7100688100466, 130.4600688100466, 130.5767354767066, 130.6934021433666, 130.8100688100266, 130.9267354766866, 131.04340214334658, 131.16006881000658, 131.27673547666657, 131.39340214332657, 131.51006880998656, 131.62673547664656, 131.74340214330655, 131.86006880996655, 131.97673547662654, 132.09340214328654, 132.21006880994653, 132.32673547660653, 132.56006880993985]	2020_Nov_27_1711	59.93301249442724	1	0.375
9	23	FALSE	NV	a	['J', 'N', 'S', 'C', 'M', 'E', 'H', 'A', 'V', 'X', 'T', 'G', 'Y', 'Z', 'B', 'R']	[1029, 1335, 1731, 829, 1224, 904, 986, 697, 2245, 4000, 1888, 944, 2670, 2911, 760, 1587]	10	Present	NA	NA	PRESENT	0.0828390121459961	134.56014108657837	136.55928897857666	137.37596375142834	137.7259666124313	140.6639380455017	4.104649066925049	[134.56755805015564, 134.68437314033508, 135.6472611427307, 135.8187861442566, 136.5864541530609, 136.6863169670105, 136.80313515663147, 136.9199619293213, 137.0369849205017, 137.1535840034485, 137.27042198181152, 137.38732314109802, 137.50411701202393, 137.62096905708313, 137.73756313323975, 137.85450506210327, 137.97116613388062, 138.0881130695343, 138.2045979499817, 138.3215639591217, 138.43829107284546, 138.6639380455017]	[134.56006880993985, 134.67673547659984, 135.65973547659985, 135.82643547659984, 136.57643547659984, 136.69310214325984, 136.80976880991983, 136.92643547657983, 137.04310214323982, 137.15976880989982, 137.2764354765598, 137.3931021432198, 137.5097688098798, 137.6264354765398, 137.7431021431998, 137.8597688098598, 137.97643547651978, 138.09310214317978, 138.20976880983977, 138.32643547649977, 138.44310214315976, 138.67643547649308]	2020_Nov_27_1711	59.93301249442724	1	0.375
9	24	FALSE	NA	a	['T', 'Y', 'J', 'U', 'W', 'M', 'V', 'B', 'G', 'X', 'P', 'R', 'S', 'N', 'E', 'K']	[1888, 2670, 1029, 2059, 2448, 1224, 2245, 760, 944, 4000, 1456, 1587, 1731, 1335, 904, 1122]	10	Present	NA	NA	PRESENT	0.3511528968811035	140.66648197174072	142.67571997642517	143.49239474927683	143.8423966566055	146.78030395507812	4.104583978652954	[140.673898935318, 140.79085206985474, 141.76362800598145, 141.94209694862366, 142.69284200668335, 142.8098020553589, 142.9264371395111, 143.04341912269592, 143.1603889465332, 143.27694392204285, 143.39361810684204, 143.5102801322937, 143.62720799446106, 143.74392414093018, 143.8608000278473, 143.9774990081787, 144.09444499015808, 144.21116614341736, 144.32806992530823, 144.4446849822998, 144.56161999702454, 144.78030514717102]	[140.67643547649308, 140.79310214315308, 141.77610214315308, 141.94280214315307, 142.69280214315307, 142.80946880981307, 142.92613547647306, 143.04280214313306, 143.15946880979305, 143.27613547645305, 143.39280214311304, 143.50946880977304, 143.62613547643303, 143.74280214309303, 143.85946880975303, 143.97613547641302, 144.09280214307302, 144.209468809733, 144.326135476393, 144.442802143053, 144.559468809713, 144.79280214304632]	2020_Nov_27_1711	59.93301249442724	1	0.375
9	25	FALSE	NV	a	['Z', 'V', 'R', 'C', 'Y', 'G', 'P', 'B', 'S', 'K', 'U', 'M', 'X', 'W', 'T', 'H']	[2911, 2245, 1587, 829, 2670, 944, 1456, 760, 1731, 1122, 2059, 1224, 4000, 2448, 1888, 986]	13	Present	NA	NA	PRESENT	0.1485450267791748	146.78988790512085	148.7918210029602	149.95849553737332	150.30849768312052	152.89667105674744	4.1048500537872314	[146.79730606079102, 146.91411709785461, 147.87999296188354, 148.06535696983337, 148.8163230419159, 148.93292713165283, 149.04972100257874, 149.16651010513306, 149.28316402435303, 149.40007495880127, 149.5169539451599, 149.63378500938416, 149.75040006637573, 149.86728811264038, 149.98409295082092, 150.10070204734802, 150.21771812438965, 150.33447909355164, 150.4513120651245, 150.55108904838562, 150.66789412498474, 150.89667105674744]	[146.79280214304632, 146.9094688097063, 147.89246880970632, 148.0591688097063, 148.8091688097063, 148.9258354763663, 149.0425021430263, 149.1591688096863, 149.2758354763463, 149.39250214300628, 149.50916880966628, 149.62583547632627, 149.74250214298627, 149.85916880964626, 149.97583547630626, 150.09250214296625, 150.20916880962625, 150.32583547628624, 150.44250214294624, 150.55916880960623, 150.67583547626623, 150.90916880959955]	2020_Nov_27_1711	59.93301249442724	1	0.375
9	26	FALSE	NN	a	['Y', 'U', 'T', 'N', 'A', 'W', 'C', 'E', 'J', 'G', 'H', 'P', 'M', 'K', 'B', 'Z']	[2670, 2059, 1888, 1335, 697, 2448, 829, 904, 1029, 944, 986, 1456, 1224, 1122, 760, 2911]	13	Absent	NA	NA	ABSENT	0.9289960861206056	152.89643788337708	154.90808987617493	156.07476464900662	156.42476655633524	159.01303696632385	4.104947090148926	[152.90385603904724, 153.0205111503601, 153.9963629245758, 154.17217898368835, 154.92253804206848, 155.03947615623474, 155.15606713294983, 155.27304601669312, 155.38963294029236, 155.50669312477112, 155.62336802482605, 155.74026703834534, 155.85692501068115, 155.97375106811523, 156.09045696258545, 156.2074761390686, 156.3240931034088, 156.44102311134338, 156.5577609539032, 156.6743950843811, 156.79124808311462, 157.01303696632385]	[152.90916880959955, 153.02583547625954, 154.00883547625955, 154.17553547625954, 154.92553547625954, 155.04220214291954, 155.15886880957953, 155.27553547623953, 155.39220214289952, 155.50886880955952, 155.6255354762195, 155.7422021428795, 155.8588688095395, 155.9755354761995, 156.0922021428595, 156.2088688095195, 156.32553547617948, 156.44220214283948, 156.55886880949947, 156.67553547615947, 156.79220214281946, 157.02553547615278]	2020_Nov_27_1711	59.93301249442724	1	0.375
9	27	FALSE	NA	a	['E', 'N', 'G', 'H', 'T', 'C', 'V', 'A', 'R', 'W', 'X', 'M', 'U', 'Y', 'P', 'S']	[904, 1335, 944, 986, 1888, 829, 2245, 697, 1587, 2448, 4000, 1224, 2059, 2670, 1456, 1731]	11	Present	NA	NA	PRESENT	0.08558297157287598	159.01949286460876	161.02474188804626	161.95808332755794	162.3080852348866	165.12940502166748	4.104663133621216	[159.02691006660461, 159.1438910961151, 160.11273097991943, 160.2949161529541, 161.04573011398315, 161.16259098052979, 161.27940893173218, 161.39611196517944, 161.51309895515442, 161.62984204292297, 161.7465410232544, 161.86329293251038, 161.9801869392395, 162.09688210487366, 162.21386694908142, 162.33053994178772, 162.44739413261414, 162.5642249584198, 162.6810281276703, 162.79765605926514, 162.91436004638672, 163.12940502166748]	[159.02553547615278, 159.14220214281278, 160.12520214281278, 160.29190214281277, 161.04190214281277, 161.15856880947277, 161.27523547613276, 161.39190214279276, 161.50856880945275, 161.62523547611275, 161.74190214277274, 161.85856880943274, 161.97523547609273, 162.09190214275273, 162.20856880941272, 162.32523547607272, 162.44190214273272, 162.5585688093927, 162.6752354760527, 162.7919021427127, 162.9085688093727, 163.14190214270602]	2020_Nov_27_1711	59.93301249442724	1	0.375
9	28	FALSE	VA	a	['M', 'T', 'Y', 'G', 'E', 'Z', 'C', 'surprise', 'V', 'P', 'X', 'K', 'U', 'N', 'W', 'J']	[1224, 1888, 2670, 944, 904, 2911, 829, 'stimAuditory/all_stimAuditory/210.wav', 2245, 1456, 4000, 1122, 2059, 1335, 2448, 1029]	11	Present	NA	NA	PRESENT	0.1146981716156006	165.14311599731445	167.14087986946106	168.07422130897274	168.4242232163014	171.2457709312439	4.104891061782837	[165.15053296089172, 165.2668149471283, 166.22909808158875, 166.40142607688904, 167.16959714889526, 167.26912903785706, 167.38597798347473, 167.50275707244873, 167.6195559501648, 167.7364101409912, 167.85294699668884, 167.96993398666382, 168.08674693107605, 168.20335793495178, 168.32026410102844, 168.43707394599915, 168.55374193191528, 168.67070198059082, 168.7873339653015, 168.90415501594543, 169.02093601226807, 169.2457709312439]	[165.14190214270602, 165.258568809366, 166.24156880936602, 166.408268809366, 167.158268809366, 167.274935476026, 167.391602142686, 167.508268809346, 167.624935476006, 167.74160214266598, 167.85826880932598, 167.97493547598597, 168.09160214264597, 168.20826880930596, 168.32493547596596, 168.44160214262595, 168.55826880928595, 168.67493547594594, 168.79160214260594, 168.90826880926593, 169.02493547592593, 169.25826880925925]	2020_Nov_27_1711	59.93301249442724	1	0.375
9	29	FALSE	NA	a	['M', 'V', 'N', 'Z', 'B', 'U', 'W', 'H', 'J', 'A', 'S', 'K', 'C', 'X', 'G', 'E']	[1224, 2245, 1335, 2911, 760, 2059, 2448, 986, 1029, 697, 1731, 1122, 829, 4000, 944, 904]	14	Present	NA	NA	PRESENT	0.1909539699554443	171.24928498268127	173.25719809532166	174.54054025006909	174.8905412037234	177.3621380329132	4.104939937591553	[171.25670194625854, 171.3735089302063, 172.34546399116516, 172.52477598190308, 173.2754509449005, 173.39221096038818, 173.50898909568787, 173.62578010559082, 173.74258613586426, 173.85949897766113, 173.9762899875641, 174.09308409690857, 174.20982599258423, 174.32666206359863, 174.4434380531311, 174.56032800674438, 174.6770839691162, 174.79386496543884, 174.91077399253845, 175.0273540019989, 175.14426803588867, 175.3621370792389]	[171.25826880925925, 171.37493547591924, 172.35793547591925, 172.52463547591924, 173.27463547591924, 173.39130214257924, 173.50796880923923, 173.62463547589923, 173.74130214255922, 173.85796880921922, 173.9746354758792, 174.0913021425392, 174.2079688091992, 174.3246354758592, 174.4413021425192, 174.5579688091792, 174.67463547583918, 174.79130214249918, 174.90796880915917, 175.02463547581917, 175.14130214247916, 175.37463547581248]	2020_Nov_27_1711	59.93301249442724	1	0.375
9	30	FALSE	NN	a	['T', 'E', 'K', 'S', 'G', 'W', 'N', 'J', 'C', 'P', 'B', 'R', 'Y', 'Z', 'M', 'H']	[1888, 904, 1122, 1731, 944, 2448, 1335, 1029, 829, 1456, 760, 1587, 2670, 2911, 1224, 986]	12	Absent	NA	NA	ABSENT	0.44481682777404785	177.37238788604736	179.37359309196472	180.42360095971785	180.7736028670465	183.47850513458252	4.104912042617798	[177.3798050880432, 177.49671006202698, 178.46182703971863, 178.6478991508484, 179.39861011505127, 179.51535415649414, 179.63232111930847, 179.74909710884094, 179.86579513549805, 179.9826581478119, 180.09956812858582, 180.21634197235107, 180.33312511444092, 180.4499261379242, 180.54985308647156, 180.66665506362915, 180.7834451198578, 180.90016913414001, 181.01698803901672, 181.13376212120056, 181.250559091568, 181.47850394248962]	[177.37463547581248, 177.49130214247248, 178.47430214247248, 178.64100214247247, 179.39100214247247, 179.50766880913247, 179.62433547579246, 179.74100214245246, 179.85766880911245, 179.97433547577245, 180.09100214243244, 180.20766880909244, 180.32433547575243, 180.44100214241243, 180.55766880907242, 180.67433547573242, 180.79100214239241, 180.9076688090524, 181.0243354757124, 181.1410021423724, 181.2576688090324, 181.49100214236572]	2020_Nov_27_1711	59.93301249442724	1	0.375
9	31	FALSE	NV	a	['A', 'W', 'M', 'E', 'S', 'N', 'J', 'B', 'K', 'R', 'X', 'G', 'T', 'Y', 'H', 'U']	[697, 2448, 1224, 904, 1731, 1335, 1029, 760, 1122, 1587, 4000, 944, 1888, 2670, 986, 2059]	11	Present	NA	NA	PRESENT	0.393376111984253	183.4790060520172	185.4900798797607	186.4234203655981	186.77342227292675	189.59487104415896	4.104791164398193	[183.4864320755005, 183.60325002670288, 184.57819604873657, 184.7545530796051, 185.50532603263855, 185.62198114395142, 185.73865413665771, 185.855642080307, 185.97232699394226, 186.0891261100769, 186.20607709884644, 186.3228919506073, 186.43953609466553, 186.55642914772034, 186.6731309890747, 186.78978395462036, 186.90678596496582, 187.0234010219574, 187.14020609855652, 187.25697112083435, 187.37395000457764, 187.59487009048462]	[183.49100214236572, 183.6076688090257, 184.59066880902571, 184.7573688090257, 185.5073688090257, 185.6240354756857, 185.7407021423457, 185.8573688090057, 185.9740354756657, 186.09070214232568, 186.20736880898568, 186.32403547564567, 186.44070214230567, 186.55736880896566, 186.67403547562566, 186.79070214228565, 186.90736880894565, 187.02403547560564, 187.14070214226564, 187.25736880892563, 187.37403547558563, 187.60736880891895]	2020_Nov_27_1711	59.93301249442724	1	0.375
9	32	FALSE	NV	a	['T', 'V', 'Y', 'J', 'H', 'P', 'B', 'A', 'K', 'E', 'S', 'X', 'C', 'M', 'N', 'G']	[1888, 2245, 2670, 1029, 986, 1456, 760, 697, 1122, 904, 1731, 4000, 829, 1224, 1335, 944]	12	Present	NA	NA	PRESENT	0.18978500366210935	189.60209703445437	191.60632705688477	192.6563349246379	193.0063370703851	195.71123814582825	4.1049110889434814	[189.60951495170593, 189.72631812095642, 190.69456315040588, 190.87766313552856, 191.62841200828552, 191.74524307250977, 191.86202192306519, 191.97866797447205, 192.09556698799133, 192.21216011047363, 192.32919001579285, 192.44593405723572, 192.56285214424133, 192.67953205108643, 192.79619312286377, 192.91297793388367, 193.02997612953186, 193.14660692214966, 193.26358914375305, 193.38039112091064, 193.49703907966614, 193.71123695373535]	[189.60736880891895, 189.72403547557894, 190.70703547557895, 190.87373547557894, 191.62373547557894, 191.74040214223893, 191.85706880889893, 191.97373547555893, 192.09040214221892, 192.20706880887892, 192.3237354755389, 192.4404021421989, 192.5570688088589, 192.6737354755189, 192.7904021421789, 192.9070688088389, 193.02373547549888, 193.14040214215888, 193.25706880881887, 193.37373547547887, 193.49040214213886, 193.72373547547218]	2020_Nov_27_1711	59.93301249442724	1	0.375
9	33	FALSE	NV	a	['T', 'B', 'K', 'W', 'R', 'A', 'Z', 'C', 'M', 'H', 'X', 'P', 'J', 'U', 'E', 'G']	[1888, 760, 1122, 2448, 1587, 697, 2911, 829, 1224, 986, 4000, 1456, 1029, 2059, 904, 944]	11	Present	NA	NA	PRESENT	0.04311490058898926	195.72555708885193	197.72261786460876	198.65595835044613	199.00596025777477	201.82760405540463	4.104986190795898	[195.73297595977783, 195.83278799057007, 196.81092810630798, 196.98414206504822, 197.73485898971558, 197.85168313980103, 197.96855998039246, 198.085294008255, 198.20222115516663, 198.31891012191772, 198.4355230331421, 198.5525450706482, 198.66916298866272, 198.78605008125305, 198.9028079509735, 199.01966094970703, 199.13645005226135, 199.25304508209229, 199.3700349330902, 199.48675107955933, 199.60362911224365, 199.82760500907898]	[195.72373547547218, 195.84040214213218, 196.82340214213218, 196.99010214213217, 197.74010214213217, 197.85676880879217, 197.97343547545216, 198.09010214211216, 198.20676880877215, 198.32343547543215, 198.44010214209214, 198.55676880875214, 198.67343547541213, 198.79010214207213, 198.90676880873212, 199.02343547539212, 199.14010214205211, 199.2567688087121, 199.3734354753721, 199.4901021420321, 199.6067688086921, 199.84010214202542]	2020_Nov_27_1711	59.93301249442724	1	0.375
9	34	FALSE	NA	a	['M', 'B', 'U', 'H', 'R', 'Y', 'P', 'X', 'C', 'V', 'K', 'Z', 'S', 'N', 'G', 'A']	[1224, 760, 2059, 986, 1587, 2670, 1456, 4000, 829, 2245, 1122, 2911, 1731, 1335, 944, 697]	8	Present	NA	NA	PRESENT	0.06356000900268555	201.83177709579468	203.8390998840332	204.4224413235649	204.77244323089351	207.94396996498108	4.104870080947876	[201.83919405937195, 201.9561049938202, 202.92729496955872, 203.10729813575745, 203.85814809799194, 203.97483706474304, 204.09164905548096, 204.20850896835327, 204.3252251148224, 204.4420781135559, 204.55892896652222, 204.67562103271484, 204.7923300266266, 204.90931701660156, 205.0260190963745, 205.14295315742493, 205.25990509986877, 205.37631106376648, 205.49322509765625, 205.60985493659973, 205.72681307792664, 205.94396996498108]	[201.84010214202542, 201.9567688086854, 202.93976880868541, 203.1064688086854, 203.8564688086854, 203.9731354753454, 204.0898021420054, 204.2064688086654, 204.3231354753254, 204.43980214198538, 204.55646880864538, 204.67313547530537, 204.78980214196537, 204.90646880862536, 205.02313547528536, 205.13980214194535, 205.25646880860535, 205.37313547526534, 205.48980214192534, 205.60646880858533, 205.72313547524533, 205.95646880857865]	2020_Nov_27_1711	59.93301249442724	1	0.375
9	35	FALSE	NA	a	['G', 'B', 'T', 'J', 'V', 'P', 'C', 'M', 'H', 'A', 'N', 'X', 'R', 'U', 'Z', 'W']	[944, 760, 1888, 1029, 2245, 1456, 829, 1224, 986, 697, 1335, 4000, 1587, 2059, 2911, 2448]	12	Present	NA	NA	PRESENT	0.06902408599853516	207.9550859928131	209.9554889202118	211.0054970263835	211.3554989337121	214.0603380203247	4.104849100112915	[207.96250295639038, 208.07934308052063, 209.04366302490234, 209.2305929660797, 209.98137211799622, 210.08120393753052, 210.21493315696716, 210.31478214263916, 210.4315550327301, 210.54838109016418, 210.66524696350098, 210.78197193145752, 210.89878010749817, 211.01558303833008, 211.13240003585815, 211.24920010566711, 211.3659529685974, 211.48279094696045, 211.59958910942078, 211.71630597114563, 211.83308792114258, 212.0603370666504]	[207.95646880857865, 208.07313547523864, 209.05613547523865, 209.22283547523864, 209.97283547523864, 210.08950214189863, 210.20616880855863, 210.32283547521862, 210.43950214187862, 210.55616880853862, 210.6728354751986, 210.7895021418586, 210.9061688085186, 211.0228354751786, 211.1395021418386, 211.2561688084986, 211.37283547515858, 211.48950214181858, 211.60616880847857, 211.72283547513857, 211.83950214179856, 212.07283547513188]	2020_Nov_27_1711	59.93301249442724	1	0.375
9	36	FALSE	NV	a	['A', 'V', 'U', 'P', 'H', 'Z', 'N', 'K', 'G', 'B', 'X', 'W', 'E', 'J', 'S', 'M']	[697, 2245, 2059, 1456, 986, 2911, 1335, 1122, 944, 760, 4000, 2448, 904, 1029, 1731, 1224]	11	Present	NA	NA	PRESENT	0.08142685890197754	214.0615820884705	216.0718080997467	217.0051493008398	217.35515120816845	220.176705121994	4.1048970222473145	[214.06899905204773, 214.18579602241516, 215.1600320339203, 215.33734393119812, 216.08777904510498, 216.2046880722046, 216.32145810127258, 216.43821501731873, 216.55500102043152, 216.67176795005798, 216.788556098938, 216.90521597862244, 217.02215313911438, 217.13893914222717, 217.25577306747437, 217.37236905097961, 217.48931097984314, 217.6061670780182, 217.72301292419434, 217.8397319316864, 217.95645093917847, 218.17670607566833]	[214.07283547513188, 214.18950214179188, 215.17250214179188, 215.33920214179187, 216.08920214179187, 216.20586880845187, 216.32253547511186, 216.43920214177186, 216.55586880843185, 216.67253547509185, 216.78920214175184, 216.90586880841184, 217.02253547507183, 217.13920214173183, 217.25586880839182, 217.37253547505182, 217.48920214171181, 217.6058688083718, 217.7225354750318, 217.8392021416918, 217.9558688083518, 218.18920214168512]	2020_Nov_27_1711	59.93301249442724	1	0.375
9	37	FALSE	NN	a	['T', 'M', 'G', 'C', 'V', 'A', 'W', 'J', 'Y', 'N', 'R', 'P', 'U', 'S', 'Z', 'E']	[1888, 1224, 944, 829, 2245, 697, 2448, 1029, 2670, 1335, 1587, 1456, 2059, 1731, 2911, 904]	9	Absent	NA	NA	ABSENT	0.3901910781860352	220.18470001220703	222.18813109397888	222.888138961752	223.23813991540632	226.29307007789612	4.104938983917236	[220.1921169757843, 220.3089120388031, 221.27639603614807, 221.46016693115234, 222.2109730243683, 222.32782697677612, 222.4446530342102, 222.56138801574707, 222.6782350540161, 222.79496693611145, 222.91160106658936, 223.02863311767578, 223.14543104171753, 223.26208806037903, 223.37905502319336, 223.49570894241333, 223.61264204978943, 223.72932314872742, 223.84618496894836, 223.96288800239563, 224.07961010932922, 224.29307103157043]	[220.18920214168512, 220.3058688083451, 221.28886880834511, 221.4555688083451, 222.2055688083451, 222.3222354750051, 222.4389021416651, 222.5555688083251, 222.6722354749851, 222.78890214164508, 222.90556880830508, 223.02223547496507, 223.13890214162507, 223.25556880828506, 223.37223547494506, 223.48890214160505, 223.60556880826505, 223.72223547492504, 223.83890214158504, 223.95556880824503, 224.07223547490503, 224.30556880823835]	2020_Nov_27_1711	59.93301249442724	1	0.375
9	38	FALSE	VV	a	['Y', 'G', 'W', 'T', 'M', 'A', 'E', 'surprise', 'Z', 'S', 'X', 'H', 'C', 'N', 'K', 'B']	[2670, 944, 2448, 1888, 1224, 697, 904, 'stimAuditory/all_stimAuditory/213.wav', 2911, 1731, 4000, 986, 829, 1335, 1122, 760]	11	Present	NA	NA	PRESENT	0.33926892280578613	226.29141807556152	228.30446100234985	229.23780220344295	229.58780434919015	232.40943694114685	4.104975938796997	[226.2988350391388, 226.41535902023315, 227.3927640914917, 227.56675601005554, 228.3174021244049, 228.43434715270996, 228.5511610507965, 228.66796398162842, 228.78456115722656, 228.90145111083984, 229.0181369781494, 229.13495802879333, 229.25183200836182, 229.36870312690735, 229.4854371547699, 229.60233807563782, 229.71893692016602, 229.83573698997498, 229.9527051448822, 230.06930994987488, 230.18619394302368, 230.40943694114685]	[226.30556880823835, 226.42223547489834, 227.40523547489835, 227.57193547489834, 228.32193547489834, 228.43860214155833, 228.55526880821833, 228.67193547487832, 228.78860214153832, 228.90526880819831, 229.0219354748583, 229.1386021415183, 229.2552688081783, 229.3719354748383, 229.4886021414983, 229.60526880815829, 229.72193547481828, 229.83860214147828, 229.95526880813827, 230.07193547479827, 230.18860214145826, 230.42193547479158]	2020_Nov_27_1711	59.93301249442724	1	0.375
9	39	FALSE	NV	a	['Z', 'Y', 'E', 'V', 'P', 'U', 'T', 'S', 'G', 'N', 'X', 'A', 'C', 'K', 'R', 'J']	[2911, 2670, 904, 2245, 1456, 2059, 1888, 1731, 944, 1335, 4000, 697, 829, 1122, 1587, 1029]	11	Present	NA	NA	PRESENT	0.151993989944458	232.41445088386536	234.42086386680603	235.3542053063177	235.70420721364636	238.52580499649048	4.104941129684448	[232.42186999320984, 232.53874611854553, 233.50912809371948, 233.68980503082275, 234.44063806533813, 234.55741596221924, 234.6742660999298, 234.79108095169067, 234.90788912773132, 235.0247621536255, 235.14151215553284, 235.25831699371338, 235.37509393692017, 235.49186515808105, 235.60849714279175, 235.725270986557, 235.8422930240631, 235.95902609825134, 236.07580709457397, 236.19286108016968, 236.309406042099, 236.5258059501648]	[232.42193547479158, 232.53860214145158, 233.52160214145158, 233.68830214145157, 234.43830214145157, 234.55496880811157, 234.67163547477156, 234.78830214143156, 234.90496880809155, 235.02163547475155, 235.13830214141154, 235.25496880807154, 235.37163547473153, 235.48830214139153, 235.60496880805152, 235.72163547471152, 235.8383021413715, 235.9549688080315, 236.0716354746915, 236.1883021413515, 236.3049688080115, 236.53830214134481]	2020_Nov_27_1711	59.93301249442724	1	0.375
9	40	FALSE	NN	a	['N', 'J', 'H', 'S', 'C', 'W', 'P', 'T', 'K', 'M', 'Y', 'A', 'R', 'E', 'Z', 'U']	[1335, 1029, 986, 1731, 829, 2448, 1456, 1888, 1122, 1224, 2670, 697, 1587, 904, 2911, 2059]	11	Absent	NA	NA	ABSENT	0.10915684700012208	238.53773403167725	240.5374400615692	241.4707812626623	241.8207834084095	244.64217114448547	4.10473108291626	[238.54515194892883, 238.66228413581848, 239.62549495697021, 239.8132450580597, 240.56386303901672, 240.66392612457275, 240.78075098991394, 240.8975510597229, 241.01426005363464, 241.13104915618896, 241.24780893325806, 241.36456108093262, 241.48137402534485, 241.59819102287292, 241.71502113342285, 241.8317379951477, 241.94849014282227, 242.06552910804749, 242.182137966156, 242.2989239692688, 242.41590213775635, 242.64217114448547]	[238.53830214134481, 238.6549688080048, 239.6379688080048, 239.8046688080048, 240.5546688080048, 240.6713354746648, 240.7880021413248, 240.9046688079848, 241.0213354746448, 241.13800214130478, 241.25466880796478, 241.37133547462477, 241.48800214128477, 241.60466880794476, 241.72133547460476, 241.83800214126475, 241.95466880792475, 242.07133547458474, 242.18800214124474, 242.30466880790473, 242.42133547456473, 242.65466880789805]	2020_Nov_27_1711	59.93301249442724	1	0.375
9	41	FALSE	AV	a	['B', 'J', 'M', 'U', 'Y', 'G', 'C', 'Z', 'H', 'T', 'surprise', 'R', 'E', 'X', 'W', 'P']	[760, 1029, 1224, 2059, 2670, 944, 829, 2911, 986, 1888, 'stimAuditory/all_stimAuditory/206.wav', 1587, 904, 4000, 2448, 1456]	14	Present	stimAuditory/all_stimAuditory/210.wav	NA	PRESENT	0.53774094581604	244.643944978714	246.65368008613584	247.93702128720895	248.28702343295615	250.7585380077362	4.104857921600342	[244.65136194229126, 244.76842403411865, 245.74186301231384, 245.91948103904724, 246.6706600189209, 246.78712511062622, 246.9040870666504, 247.0208170413971, 247.13756012916565, 247.25433015823364, 247.37117409706116, 247.48793292045593, 247.60481214523315, 247.7214550971985, 247.83843803405762, 247.9549880027771, 248.07198810577393, 248.18886399269104, 248.30560207366943, 248.4222490787506, 248.53918600082397, 248.75853896141052]	[244.65466880789805, 244.77133547455804, 245.75433547455805, 245.92103547455804, 246.67103547455804, 246.78770214121803, 246.90436880787803, 247.02103547453802, 247.13770214119802, 247.25436880785801, 247.371035474518, 247.487702141178, 247.604368807838, 247.721035474498, 247.837702141158, 247.95436880781799, 248.07103547447798, 248.18770214113798, 248.30436880779797, 248.42103547445797, 248.53770214111796, 248.77103547445128]	2020_Nov_27_1711	59.93301249442724	1	0.375
9	42	FALSE	NA	a	['W', 'A', 'K', 'H', 'M', 'R', 'Z', 'P', 'S', 'U', 'E', 'V', 'T', 'X', 'Y', 'C']	[2448, 697, 1122, 986, 1224, 1587, 2911, 1456, 1731, 2059, 904, 2245, 1888, 4000, 2670, 829]	14	Present	NA	NA	PRESENT	0.262448787689209	250.7673990726471	252.76986002922055	254.0532012302937	254.4032033760409	256.8749051094055	4.1050450801849365	[250.77481508255005, 250.89173793792725, 251.85822796821594, 252.0426790714264, 252.79374504089355, 252.91049599647522, 253.02725195884705, 253.14399313926697, 253.26075315475464, 253.37759494781494, 253.4944200515747, 253.61119103431702, 253.72782015800476, 253.84482097625732, 253.9614019393921, 254.0783131122589, 254.1951060295105, 254.3117470741272, 254.42857098579407, 254.54545998573303, 254.66236996650696, 254.8749029636383]	[250.77103547445128, 250.88770214111128, 251.87070214111128, 252.03740214111127, 252.78740214111127, 252.90406880777127, 253.02073547443126, 253.13740214109126, 253.25406880775125, 253.37073547441125, 253.48740214107124, 253.60406880773124, 253.72073547439123, 253.83740214105123, 253.95406880771122, 254.07073547437122, 254.1874021410312, 254.3040688076912, 254.4207354743512, 254.5374021410112, 254.6540688076712, 254.88740214100451]	2020_Nov_27_1711	59.93301249442724	1	0.375
9	43	FALSE	NA	a	['H', 'W', 'T', 'Z', 'Y', 'E', 'N', 'R', 'C', 'P', 'X', 'A', 'S', 'K', 'J', 'U']	[986, 2448, 1888, 2911, 2670, 904, 1335, 1587, 829, 1456, 4000, 697, 1731, 1122, 1029, 2059]	11	Present	NA	NA	PRESENT	0.09168004989624023	256.8740499019623	258.88632106781006	259.8196622689032	260.16966441465036	262.9912700653076	4.104948997497559	[256.88146805763245, 256.99803400039673, 257.97459292411804, 258.14935994148254, 258.9000279903412, 259.0170109272003, 259.13380002975464, 259.25060200691223, 259.367201089859, 259.4841570854187, 259.60081601142883, 259.71772503852844, 259.8343811035156, 259.95121598243713, 260.0681610107422, 260.1847801208496, 260.30164408683777, 260.4182550907135, 260.53521513938904, 260.65214800834656, 260.7688889503479, 260.9912700653076]	[256.8874021410045, 257.0040688076645, 257.9870688076645, 258.1537688076645, 258.9037688076645, 259.02043547432453, 259.13710214098455, 259.2537688076446, 259.3704354743046, 259.4871021409646, 259.60376880762465, 259.72043547428467, 259.8371021409447, 259.9537688076047, 260.07043547426474, 260.18710214092476, 260.3037688075848, 260.4204354742448, 260.53710214090484, 260.65376880756486, 260.7704354742249, 261.00376880755823]	2020_Nov_27_1711	59.93301249442724	1	0.375
9	44	FALSE	NN	a	['G', 'V', 'P', 'E', 'W', 'C', 'H', 'Y', 'N', 'Z', 'T', 'U', 'S', 'K', 'J', 'M']	[944, 2245, 1456, 904, 2448, 829, 986, 2670, 1335, 2911, 1888, 2059, 1731, 1122, 1029, 1224]	12	Absent	NA	NA	ABSENT	0.19220209121704104	262.99709391593933	265.00257301330566	266.05258088105876	266.402583026806	269.10763692855835	4.1050639152526855	[263.0045120716095, 263.1212100982666, 264.0909631252289, 264.2724800109863, 265.02327394485474, 265.1401209831238, 265.25707507133484, 265.37356209754944, 265.49056911468506, 265.6071779727936, 265.72401309013367, 265.840744972229, 265.9577009677887, 266.0743420124054, 266.1914520263672, 266.307893037796, 266.42478799819946, 266.54152393341064, 266.65850615501404, 266.77526593208313, 266.89198899269104, 267.10763812065125]	[263.00376880755823, 263.12043547421825, 264.10343547421826, 264.27013547421825, 265.02013547421825, 265.1368021408783, 265.2534688075383, 265.3701354741983, 265.48680214085834, 265.60346880751837, 265.7201354741784, 265.8368021408384, 265.95346880749844, 266.07013547415846, 266.1868021408185, 266.3034688074785, 266.42013547413853, 266.53680214079856, 266.6534688074586, 266.7701354741186, 266.8868021407786, 267.120135474112]	2020_Nov_27_1711	59.93301249442724	1	0.375
9	45	FALSE	NV	a	['E', 'W', 'U', 'J', 'H', 'Z', 'Y', 'K', 'P', 'X', 'N', 'T', 'R', 'C', 'S', 'M']	[904, 2448, 2059, 1029, 986, 2911, 2670, 1122, 1456, 4000, 1335, 1888, 1587, 829, 1731, 1224]	10	Present	NA	NA	PRESENT	0.20535492897033691	269.1202709674835	271.1190540790558	271.9357286134889	272.2857307592361	275.224004983902	4.104950904846191	[269.1276891231537, 269.24453711509705, 270.2073299884796, 270.37887692451477, 271.14641404151917, 271.2464339733124, 271.3633301258087, 271.48006105422974, 271.59692192077637, 271.71387815475464, 271.8304851055145, 271.947340965271, 272.06425499916077, 272.1807870864868, 272.29774498939514, 272.4145109653473, 272.53132915496826, 272.6481840610504, 272.7649199962616, 272.88157200813293, 272.99848794937134, 273.224004983902]	[269.120135474112, 269.236802140772, 270.219802140772, 270.386502140772, 271.136502140772, 271.253168807432, 271.36983547409204, 271.48650214075207, 271.6031688074121, 271.7198354740721, 271.83650214073214, 271.95316880739216, 272.0698354740522, 272.1865021407122, 272.30316880737223, 272.41983547403225, 272.5365021406923, 272.6531688073523, 272.7698354740123, 272.88650214067235, 273.0031688073324, 273.2365021406657]	2020_Nov_27_1711	59.93301249442724	1	0.375
9	46	FALSE	VA	a	['H', 'R', 'Y', 'T', 'B', 'U', 'V', 'surprise', 'N', 'E', 'X', 'M', 'W', 'Z', 'P', 'S']	[986, 1587, 2670, 1888, 760, 2059, 2245, 'stimAuditory/all_stimAuditory/222.wav', 1335, 904, 4000, 1224, 2448, 2911, 1456, 1731]	11	Present	NA	NA	PRESENT	0.22604584693908691	275.22682094573975	277.2357130050659	278.16905420615905	278.5190563519062	281.340371131897	4.104658126831055	[275.2342391014099, 275.35108399391174, 276.3236970901489, 276.5025429725647, 277.25300908088684, 277.3698379993439, 277.48647809028625, 277.6033959388733, 277.72027492523193, 277.8371069431305, 277.95376896858215, 278.070543050766, 278.1873149871826, 278.3040521144867, 278.4209179878235, 278.5376341342926, 278.65485405921936, 278.7712380886078, 278.888160943985, 279.00484013557434, 279.1215829849243, 279.3403720855713]	[275.2365021406657, 275.35316880732574, 276.33616880732575, 276.50286880732574, 277.25286880732574, 277.36953547398576, 277.4862021406458, 277.6028688073058, 277.71953547396583, 277.83620214062586, 277.9528688072859, 278.0695354739459, 278.18620214060593, 278.30286880726595, 278.419535473926, 278.536202140586, 278.652868807246, 278.76953547390605, 278.88620214056607, 279.0028688072261, 279.1195354738861, 279.35286880721947]	2020_Nov_27_1711	59.93301249442724	1	0.375
9	47	FALSE	NN	a	['N', 'Z', 'Y', 'V', 'P', 'E', 'H', 'J', 'A', 'S', 'T', 'R', 'U', 'B', 'M', 'W']	[1335, 2911, 2670, 2245, 1456, 904, 986, 1029, 697, 1731, 1888, 1587, 2059, 760, 1224, 2448]	14	Absent	NA	NA	ABSENT	0.8554010391235352	281.34992003440857	283.35194087028503	284.635283263451	284.98528540919824	287.4567379951477	4.104797124862671	[281.35733699798584, 281.4742901325226, 282.440083026886, 282.6254041194916, 283.3761510848999, 283.49289107322693, 283.6098561286926, 283.72658705711365, 283.8433110713959, 283.9601700305939, 284.07704997062683, 284.1935670375824, 284.3105549812317, 284.42723202705383, 284.54396200180054, 284.6608180999756, 284.777713060379, 284.8943729400635, 285.01116609573364, 285.12814593315125, 285.2281050682068, 285.4567370414734]	[281.35286880721947, 281.4695354738795, 282.4525354738795, 282.6192354738795, 283.3692354738795, 283.4859021405395, 283.60256880719953, 283.71923547385956, 283.8359021405196, 283.9525688071796, 284.0692354738396, 284.18590214049965, 284.3025688071597, 284.4192354738197, 284.5359021404797, 284.65256880713974, 284.76923547379977, 284.8859021404598, 285.0025688071198, 285.11923547377984, 285.23590214043986, 285.4692354737732]	2020_Nov_27_1711	59.93301249442724	1	0.375
9	48	FALSE	NA	a	['Y', 'S', 'W', 'G', 'Z', 'C', 'T', 'H', 'J', 'P', 'X', 'B', 'R', 'K', 'M', 'V']	[2670, 1731, 2448, 944, 2911, 829, 1888, 986, 1029, 1456, 4000, 760, 1587, 1122, 1224, 2245]	11	Present	NA	NA	PRESENT	1.2118780612945557	287.45630192756653	289.4681239128113	290.4014753659033	290.7514772732319	293.573105096817	4.104981184005737	[287.4637191295624, 287.5808229446411, 288.55642795562744, 288.73189997673035, 289.4826490879059, 289.5994551181793, 289.7163989543915, 289.83294010162354, 289.94998693466187, 290.06662702560425, 290.18340015411377, 290.30007100105286, 290.4169819355011, 290.5336661338806, 290.6508541107178, 290.7674379348755, 290.8840501308441, 291.0009479522705, 291.1176450252533, 291.2346770763397, 291.35139203071594, 291.5731041431427]	[287.4692354737732, 287.58590214043323, 288.56890214043324, 288.73560214043323, 289.48560214043323, 289.60226880709325, 289.7189354737533, 289.8356021404133, 289.9522688070733, 290.06893547373335, 290.18560214039337, 290.3022688070534, 290.4189354737134, 290.53560214037344, 290.65226880703347, 290.7689354736935, 290.8856021403535, 291.00226880701354, 291.11893547367356, 291.2356021403336, 291.3522688069936, 291.58560214032696]	2020_Nov_27_1711	59.93301249442724	1	0.375
9	49	FALSE	NV	a	['N', 'U', 'W', 'J', 'Y', 'P', 'E', 'C', 'V', 'A', 'X', 'S', 'Z', 'B', 'H', 'T']	[1335, 2059, 2448, 1029, 2670, 1456, 904, 829, 2245, 697, 4000, 1731, 2911, 760, 986, 1888]	11	Present	NA	NA	PRESENT	0.4804670810699463	293.5795919895172	295.5845379829407	296.5178794224524	296.86788132978097	299.6894700527191	4.104932069778442	[293.5870101451874, 293.70390605926514, 294.6727981567383, 294.8550910949707, 295.6058449745178, 295.72258615493774, 295.83949613571167, 295.9563820362091, 296.07314705848694, 296.19014501571655, 296.3068051338196, 296.42344999313354, 296.54012298583984, 296.65723395347595, 296.7736301422119, 296.89070415496826, 297.00734305381775, 297.12417912483215, 297.24085903167725, 297.3578770160675, 297.4746639728546, 297.6894700527191]	[293.58560214032696, 293.702268806987, 294.685268806987, 294.851968806987, 295.601968806987, 295.718635473647, 295.835302140307, 295.95196880696705, 296.06863547362707, 296.1853021402871, 296.3019688069471, 296.41863547360714, 296.53530214026716, 296.6519688069272, 296.7686354735872, 296.88530214024723, 297.00196880690726, 297.1186354735673, 297.2353021402273, 297.3519688068873, 297.46863547354735, 297.7019688068807]	2020_Nov_27_1711	59.93301249442724	1	0.375
9	50	FALSE	VA	a	['H', 'B', 'S', 'T', 'J', 'K', 'Y', 'surprise', 'G', 'U', 'X', 'Z', 'C', 'E', 'R', 'N']	[986, 760, 1731, 1888, 1029, 1122, 2670, 'stimAuditory/all_stimAuditory/218.wav', 944, 2059, 4000, 2911, 829, 904, 1587, 1335]	11	Present	NA	NA	PRESENT	0.2778000831604004	299.7028980255127	301.70082902908325	302.63416927650206	302.98417142224923	305.8058371543884	4.105008125305176	[299.71031498908997, 299.82704401016235, 300.7891619205475, 300.96142506599426, 301.7291650772095, 301.8290841579437, 301.94587898254395, 302.0626709461212, 302.179486989975, 302.296462059021, 302.4132180213928, 302.53007102012634, 302.64670395851135, 302.763375043869, 302.8803160190582, 302.99695014953613, 303.11402106285095, 303.23061299324036, 303.34753012657166, 303.46439814567566, 303.58115100860596, 303.80583810806274]	[299.7019688068807, 299.8186354735407, 300.8016354735407, 300.9683354735407, 301.7183354735407, 301.83500214020074, 301.95166880686077, 302.0683354735208, 302.1850021401808, 302.30166880684084, 302.41833547350086, 302.5350021401609, 302.6516688068209, 302.76833547348093, 302.88500214014095, 303.001668806801, 303.118335473461, 303.235002140121, 303.35166880678105, 303.4683354734411, 303.5850021401011, 303.81833547343444]	2020_Nov_27_1711	59.93301249442724	1	0.375
9	51	FALSE	NN	a	['Z', 'T', 'P', 'Y', 'E', 'A', 'U', 'N', 'R', 'G', 'S', 'C', 'H', 'K', 'V', 'W']	[2911, 1888, 1456, 2670, 904, 697, 2059, 1335, 1587, 944, 1731, 829, 986, 1122, 2245, 2448]	14	Absent	NA	NA	ABSENT	0.4182431697845459	305.80933809280396	307.81733798980713	309.1006794292988	309.45068133662744	311.9222049713135	4.104866981506348	[305.81675601005554, 305.93372893333435, 306.90553092956543, 307.08509397506714, 307.8355860710144, 307.95247411727905, 308.06927704811096, 308.18582797050476, 308.3028700351715, 308.4196331501007, 308.53647899627686, 308.65303802490234, 308.76993703842163, 308.88671803474426, 309.00353503227234, 309.1202549934387, 309.2369830608368, 309.35387110710144, 309.4707169532776, 309.58740305900574, 309.7041530609131, 309.9222049713135]	[305.81833547343444, 305.93500214009447, 306.9180021400945, 307.08470214009446, 307.83470214009446, 307.9513688067545, 308.0680354734145, 308.18470214007453, 308.30136880673456, 308.4180354733946, 308.5347021400546, 308.65136880671463, 308.76803547337465, 308.8847021400347, 309.0013688066947, 309.1180354733547, 309.23470214001475, 309.35136880667477, 309.4680354733348, 309.5847021399948, 309.70136880665484, 309.9347021399882]	2020_Nov_27_1711	59.93301249442724	1	0.375
9	52	FALSE	NV	a	['Z', 'S', 'W', 'G', 'B', 'E', 'J', 'K', 'T', 'N', 'V', 'X', 'Y', 'R', 'U', 'P']	[2911, 1731, 2448, 944, 760, 904, 1029, 1122, 1888, 1335, 2245, 4000, 2670, 1587, 2059, 1456]	12	Present	NA	NA	PRESENT	0.19974708557128903	311.93268489837646	313.9335880279541	314.9835949420329	315.3335970877801	318.0385699272156	4.104981899261475	[311.9401021003723, 312.0568730831146, 313.0218939781189, 313.2078700065613, 313.95875215530396, 314.0756320953369, 314.1924409866333, 314.30917596817017, 314.4259021282196, 314.5427579879761, 314.6597390174866, 314.7762019634247, 314.8930540084839, 315.00998306274414, 315.1098430156708, 315.2266471385956, 315.34338998794556, 315.46020007133484, 315.57701206207275, 315.693834066391, 315.81062293052673, 316.0385711193085]	[311.9347021399882, 312.0513688066482, 313.0343688066482, 313.2010688066482, 313.9510688066482, 314.06773547330823, 314.18440213996826, 314.3010688066283, 314.4177354732883, 314.5344021399483, 314.65106880660835, 314.7677354732684, 314.8844021399284, 315.0010688065884, 315.11773547324844, 315.23440213990847, 315.3510688065685, 315.4677354732285, 315.58440213988854, 315.70106880654856, 315.8177354732086, 316.05106880654193]	2020_Nov_27_1711	59.93301249442724	1	0.375
9	53	FALSE	NN	a	['Z', 'J', 'G', 'C', 'H', 'U', 'V', 'W', 'Y', 'P', 'B', 'R', 'M', 'N', 'K', 'T']	[2911, 1029, 944, 829, 986, 2059, 2245, 2448, 2670, 1456, 760, 1587, 1224, 1335, 1122, 1888]	9	Absent	NA	NA	ABSENT	0.692202091217041	318.03905391693115	320.05032300949097	320.7503308772641	321.1003330230113	324.1549370288849	4.104614019393921	[318.046471118927, 318.1633450984955, 319.13826513290405, 319.3145749568939, 320.06522703170776, 320.1820011138916, 320.29898595809937, 320.4157040119171, 320.5325119495392, 320.649316072464, 320.7661831378937, 320.88295006752014, 320.9996919631958, 321.1162440776825, 321.23321413993835, 321.35004711151123, 321.46676802635193, 321.58356404304504, 321.70024394989014, 321.81721806526184, 321.93389105796814, 322.1549389362335]	[318.05106880654193, 318.16773547320196, 319.15073547320196, 319.31743547320195, 320.06743547320195, 320.184102139862, 320.300768806522, 320.417435473182, 320.53410213984205, 320.6507688065021, 320.7674354731621, 320.8841021398221, 321.00076880648214, 321.11743547314217, 321.2341021398022, 321.3507688064622, 321.46743547312224, 321.58410213978226, 321.7007688064423, 321.8174354731023, 321.93410213976233, 322.1674354730957]	2020_Nov_27_1711	59.93301249442724	1	0.375
9	54	FALSE	NN	a	['T', 'Y', 'H', 'R', 'M', 'P', 'J', 'S', 'K', 'G', 'V', 'E', 'C', 'Z', 'W', 'B']	[1888, 2670, 986, 1587, 1224, 1456, 1029, 1731, 1122, 944, 2245, 904, 829, 2911, 2448, 760]	14	Absent	NA	NA	ABSENT	0.30458712577819824	324.1624319553375	326.16684007644653	327.4501812775196	327.80018342326684	330.2713041305542	4.104464054107666	[324.1698491573334, 324.28635907173157, 325.25463008880615, 325.4377119541168, 326.1887171268463, 326.30531311035156, 326.42198300361633, 326.5388560295105, 326.6557631492615, 326.7725319862366, 326.8893060684204, 327.0059790611267, 327.1229040622711, 327.2396881580353, 327.3562259674072, 327.47322607040405, 327.59010314941406, 327.7068729400635, 327.8236401081085, 327.94021010398865, 328.0570809841156, 328.2713050842285]	[324.1674354730957, 324.2841021397557, 325.2671021397557, 325.4338021397557, 326.1838021397557, 326.3004688064157, 326.41713547307575, 326.53380213973577, 326.6504688063958, 326.7671354730558, 326.88380213971584, 327.00046880637586, 327.1171354730359, 327.2338021396959, 327.35046880635593, 327.46713547301596, 327.583802139676, 327.700468806336, 327.81713547299603, 327.93380213965605, 328.0504688063161, 328.2838021396494]	2020_Nov_27_1711	59.93301249442724	1	0.375
9	55	FALSE	VV	a	['Y', 'J', 'Z', 'W', 'S', 'B', 'M', 'H', 'C', 'surprise', 'A', 'P', 'X', 'N', 'K', 'T']	[2670, 1029, 2911, 2448, 1731, 760, 1224, 986, 829, 'stimAuditory/all_stimAuditory/101.wav', 697, 1456, 4000, 1335, 1122, 1888]	13	Present	NA	NA	PRESENT	0.494035005569458	330.2855579853058	332.28280901908875	333.44948355350186	333.7994856992491	336.3876700401306	4.10486102104187	[330.29297494888306, 330.39281392097473, 331.37099599838257, 331.54414200782776, 332.29486107826233, 332.41185998916626, 332.52856492996216, 332.64522910118103, 332.76219606399536, 332.8789920806885, 332.9959080219269, 333.1124310493469, 333.2294571399689, 333.34608006477356, 333.46291494369507, 333.5797801017761, 333.6964581012726, 333.81334114074707, 333.9301710128784, 334.04675102233887, 334.16377902030945, 334.38767099380493]	[330.2838021396494, 330.40046880630945, 331.38346880630945, 331.55016880630944, 332.30016880630944, 332.41683547296947, 332.5335021396295, 332.6501688062895, 332.76683547294954, 332.88350213960956, 333.0001688062696, 333.1168354729296, 333.23350213958963, 333.35016880624966, 333.4668354729097, 333.5835021395697, 333.7001688062297, 333.81683547288975, 333.9335021395498, 334.0501688062098, 334.1668354728698, 334.40016880620317]	2020_Nov_27_1711	59.93301249442724	1	0.375
9	56	FALSE	NV	a	['N', 'Z', 'T', 'W', 'A', 'C', 'B', 'E', 'S', 'V', 'K', 'X', 'P', 'M', 'U', 'Y']	[1335, 2911, 1888, 2448, 697, 829, 760, 904, 1731, 2245, 1122, 4000, 1456, 1224, 2059, 2670]	12	Present	NA	NA	PRESENT	1.290642023086548	336.3922801017761	338.39937591552734	339.449384021699	339.79938592902766	342.5040371417999	4.104661226272583	[336.3996980190277, 336.51627802848816, 337.48736095428467, 337.6677739620209, 338.41821813583374, 338.53501200675964, 338.65192198753357, 338.7685730457306, 338.88533997535706, 339.00223207473755, 339.11899995803833, 339.23564314842224, 339.3526041507721, 339.4693069458008, 339.5861511230469, 339.70286893844604, 339.8197100162506, 339.93652296066284, 340.0531470775604, 340.1700689792633, 340.2869369983673, 340.50403809547424]	[336.40016880620317, 336.5168354728632, 337.4998354728632, 337.6665354728632, 338.4165354728632, 338.5332021395232, 338.64986880618324, 338.76653547284326, 338.8832021395033, 338.9998688061633, 339.11653547282333, 339.23320213948335, 339.3498688061434, 339.4665354728034, 339.5832021394634, 339.69986880612345, 339.81653547278347, 339.9332021394435, 340.0498688061035, 340.16653547276354, 340.28320213942357, 340.5165354727569]	2020_Nov_27_1711	59.93301249442724	1	0.375
9	57	FALSE	NA	a	['E', 'Y', 'N', 'T', 'V', 'H', 'S', 'U', 'X', 'P', 'B', 'G', 'Z', 'C', 'J', 'R']	[904, 2670, 1335, 1888, 2245, 986, 1731, 2059, 4000, 1456, 760, 944, 2911, 829, 1029, 1587]	9	Present	NA	NA	PRESENT	0.2078409194946289	342.51524686813354	344.5155189037323	345.215527009924	345.5655289172526	348.620404958725	4.104886054992676	[342.5226640701294, 342.63930106163025, 343.6037299633026, 343.79062509536743, 344.5413661003113, 344.6583709716797, 344.7751441001892, 344.8917679786682, 344.99179792404175, 345.1085240840912, 345.22537112236023, 345.342129945755, 345.4589099884033, 345.5757839679718, 345.69249415397644, 345.8092129230499, 345.9260251522064, 346.0428400039673, 346.1601519584656, 346.27649903297424, 346.3932740688324, 346.62040400505066]	[342.5165354727569, 342.63320213941694, 343.61620213941694, 343.78290213941693, 344.53290213941693, 344.64956880607696, 344.766235472737, 344.882902139397, 344.999568806057, 345.11623547271705, 345.2329021393771, 345.3495688060371, 345.4662354726971, 345.58290213935715, 345.69956880601717, 345.8162354726772, 345.9329021393372, 346.04956880599724, 346.16623547265726, 346.2829021393173, 346.3995688059773, 346.63290213931066]	2020_Nov_27_1711	59.93301249442724	1	0.375
9	58	FALSE	VN	a	['M', 'H', 'J', 'B', 'C', 'P', 'Z', 'R', 'G', 'V', 'surprise', 'N', 'W', 'Y', 'E', 'U']	[1224, 986, 1029, 760, 829, 1456, 2911, 1587, 944, 2245, 'stimAuditory/all_stimAuditory/120.wav', 1335, 2448, 2670, 904, 2059]	14	Absent	NA	NA	ABSENT	0.476395845413208	348.6216609477997	350.63181805610657	351.91515925717965	352.2651614029269	354.73677110671997	4.104953050613403	[348.62907814979553, 348.7459011077881, 349.7200970649719, 349.89707708358765, 350.6478500366211, 350.7645580768585, 350.88154196739197, 350.99818205833435, 351.1151330471039, 351.2317669391632, 351.3487949371338, 351.46554708480835, 351.58234214782715, 351.69895601272583, 351.8159730434418, 351.9325759410858, 352.0494599342346, 352.166139125824, 352.2828800678253, 352.3998010158539, 352.51645708084106, 352.73677110671997]	[348.63290213931066, 348.7495688059707, 349.7325688059707, 349.8992688059707, 350.6492688059707, 350.7659354726307, 350.8826021392907, 350.99926880595075, 351.1159354726108, 351.2326021392708, 351.3492688059308, 351.46593547259084, 351.58260213925087, 351.6992688059109, 351.8159354725709, 351.93260213923094, 352.04926880589096, 352.165935472551, 352.282602139211, 352.39926880587103, 352.51593547253105, 352.7492688058644]	2020_Nov_27_1711	59.93301249442724	1	0.375
9	59	FALSE	NV	a	['V', 'J', 'P', 'H', 'S', 'R', 'C', 'M', 'W', 'Y', 'A', 'X', 'B', 'K', 'E', 'G']	[2245, 1029, 1456, 986, 1731, 1587, 829, 1224, 2448, 2670, 697, 4000, 760, 1122, 904, 944]	12	Present	NA	NA	PRESENT	0.3849020004272461	354.74496603012085	356.748370885849	357.79837803834636	358.148379945675	360.8531379699707	4.104767084121704	[354.7523829936981, 354.8690061569214, 355.83646512031555, 356.0203559398651, 356.77124214172363, 356.8878540992737, 357.0048179626465, 357.121465921402, 357.2382290363312, 357.3551199436188, 357.47179794311523, 357.5887830257416, 357.7054691314697, 357.82236409187317, 357.9390380382538, 358.0558271408081, 358.1726999282837, 358.2893750667572, 358.4061360359192, 358.523029088974, 358.6398301124573, 358.8531379699707]	[354.7492688058644, 354.8659354725244, 355.84893547252443, 356.0156354725244, 356.7656354725244, 356.88230213918445, 356.99896880584447, 357.1156354725045, 357.2323021391645, 357.34896880582454, 357.46563547248456, 357.5823021391446, 357.6989688058046, 357.81563547246463, 357.93230213912466, 358.0489688057847, 358.1656354724447, 358.28230213910473, 358.39896880576475, 358.5156354724248, 358.6323021390848, 358.86563547241815]	2020_Nov_27_1711	59.93301249442724	1	0.375
9	60	FALSE	NV	a	['Z', 'W', 'J', 'A', 'U', 'H', 'R', 'E', 'V', 'G', 'X', 'B', 'P', 'S', 'C', 'K']	[2911, 2448, 1029, 697, 2059, 986, 1587, 904, 2245, 944, 4000, 760, 1456, 1731, 829, 1122]	11	Present	NA	NA	PRESENT	0.8620297908782959	360.85127902030945	362.8647139072418	363.79805630042785	364.1480582077564	366.9695041179657	4.104790210723877	[360.8586959838867, 360.97548604011536, 361.95283102989197, 362.12683510780334, 362.8774139881134, 362.994460105896, 363.11127400398254, 363.22811698913574, 363.34478998184204, 363.46165204048157, 363.578488111496, 363.6951150894165, 363.81198811531067, 363.92861700057983, 364.04558801651, 364.16231203079224, 364.2791850566864, 364.39579606056213, 364.5126791000366, 364.62929701805115, 364.7461769580841, 364.96950507164]	[360.86563547241815, 360.9823021390782, 361.9653021390782, 362.13200213907817, 362.88200213907817, 362.9986688057382, 363.1153354723982, 363.23200213905824, 363.34866880571826, 363.4653354723783, 363.5820021390383, 363.69866880569833, 363.81533547235836, 363.9320021390184, 364.0486688056784, 364.1653354723384, 364.28200213899845, 364.3986688056585, 364.5153354723185, 364.6320021389785, 364.74866880563854, 364.9820021389719]	2020_Nov_27_1711	59.93301249442724	1	0.375
9	61	FALSE	NA	a	['V', 'B', 'C', 'G', 'S', 'Y', 'M', 'H', 'X', 'J', 'Z', 'A', 'T', 'U', 'K', 'P']	[2245, 760, 829, 944, 1731, 2670, 1224, 986, 4000, 1029, 2911, 697, 1888, 2059, 1122, 1456]	9	Present	NA	NA	PRESENT	0.08281207084655762	366.9748749732971	368.98088002204895	369.6808878898221	370.03089003556926	373.0858700275421	4.104990005493164	[366.9822919368744, 367.09882712364197, 368.06919503211975, 368.2501311302185, 369.0008189678192, 369.11747097969055, 369.23420214653015, 369.35106015205383, 369.46805810928345, 369.5847120285034, 369.701611995697, 369.81836009025574, 369.9351501464844, 370.052020072937, 370.1687581539154, 370.28558802604675, 370.40225315093994, 370.5191020965576, 370.6357810497284, 370.7527439594269, 370.8694820404053, 371.0858700275421]	[366.9820021389719, 367.0986688056319, 368.0816688056319, 368.2483688056319, 368.9983688056319, 369.11503547229194, 369.23170213895196, 369.348368805612, 369.465035472272, 369.58170213893203, 369.69836880559205, 369.8150354722521, 369.9317021389121, 370.0483688055721, 370.16503547223215, 370.2817021388922, 370.3983688055522, 370.5150354722122, 370.63170213887224, 370.74836880553227, 370.8650354721923, 371.09836880552564]	2020_Nov_27_1711	59.93301249442724	1	0.375
9	62	FALSE	NN	a	['Y', 'C', 'N', 'A', 'T', 'W', 'S', 'H', 'K', 'U', 'B', 'R', 'E', 'Z', 'P', 'V']	[2670, 829, 1335, 697, 1888, 2448, 1731, 986, 1122, 2059, 760, 1587, 904, 2911, 1456, 2245]	13	Absent	NA	NA	ABSENT	0.16816282272338867	373.09767603874207	375.09735798835754	376.2640327611893	376.6140346685179	379.2022371292114	4.104879140853882	[373.10509395599365, 373.2219171524048, 374.1855640411377, 374.3731861114502, 375.12407898902893, 375.2239820957184, 375.34074997901917, 375.4575309753418, 375.57432103157043, 375.6911220550537, 375.807902097702, 375.9246859550476, 376.0416920185089, 376.15857696533203, 376.2751009464264, 376.3919770717621, 376.50885915756226, 376.6254551410675, 376.7424099445343, 376.85921692848206, 376.9757881164551, 377.2022371292114]	[373.09836880552564, 373.21503547218566, 374.19803547218567, 374.36473547218566, 375.11473547218566, 375.2314021388457, 375.3480688055057, 375.4647354721657, 375.58140213882575, 375.6980688054858, 375.8147354721458, 375.9314021388058, 376.04806880546585, 376.16473547212587, 376.2814021387859, 376.3980688054459, 376.51473547210594, 376.63140213876596, 376.748068805426, 376.864735472086, 376.98140213874603, 377.2147354720794]	2020_Nov_27_1711	59.93301249442724	1	0.375
9	63	FALSE	NV	a	['R', 'M', 'T', 'C', 'E', 'B', 'N', 'V', 'G', 'P', 'W', 'S', 'H', 'X', 'J', 'K']	[1587, 1224, 1888, 829, 904, 760, 1335, 2245, 944, 1456, 2448, 1731, 986, 4000, 1029, 1122]	14	Present	NA	NA	PRESENT	0.3006870746612549	379.20421409606934	381.2135620117187	382.49690321279184	382.84690535853906	385.3186049461365	4.105042934417725	[379.2116320133209, 379.3286190032959, 380.3019280433655, 380.47987604141235, 381.2304940223694, 381.34715700149536, 381.4641799926758, 381.58085203170776, 381.6977379322052, 381.81448912620544, 381.9311821460724, 382.048180103302, 382.1648299694061, 382.28166699409485, 382.3985879421234, 382.51522302627563, 382.6321439743042, 382.74874806404114, 382.86548709869385, 382.98222398757935, 383.0991270542145, 383.31860613822937]	[379.2147354720794, 379.3314021387394, 380.3144021387394, 380.4811021387394, 381.2311021387394, 381.3477688053994, 381.46443547205945, 381.5811021387195, 381.6977688053795, 381.8144354720395, 381.93110213869954, 382.04776880535957, 382.1644354720196, 382.2811021386796, 382.39776880533964, 382.51443547199966, 382.6311021386597, 382.7477688053197, 382.86443547197973, 382.98110213863976, 383.0977688052998, 383.3311021386331]	2020_Nov_27_1711	59.93301249442724	1	0.375
9	64	FALSE	NV	a	['C', 'M', 'W', 'U', 'J', 'A', 'E', 'N', 'K', 'R', 'V', 'G', 'X', 'Y', 'S', 'Z']	[829, 1224, 2448, 2059, 1029, 697, 904, 1335, 1122, 1587, 2245, 944, 4000, 2670, 1731, 2911]	13	Present	NA	NA	PRESENT	0.22539615631103516	385.3273890018463	387.3300850391388	388.4967595735519	388.84676171929914	391.4349701404571	4.104885101318359	[385.3348059654236, 385.45168709754944, 386.4182939529419, 386.60332202911377, 387.3536911010742, 387.4705259799957, 387.5872530937195, 387.70416808128357, 387.82088112831116, 387.93765211105347, 388.05433797836304, 388.1713869571686, 388.28817105293274, 388.40493297576904, 388.52169704437256, 388.6384871006012, 388.75518798828125, 388.8721430301666, 388.9887020587921, 389.10554099082947, 389.2224020957947, 389.43497109413147]	[385.3311021386331, 385.44776880529315, 386.43076880529316, 386.59746880529315, 387.34746880529315, 387.46413547195317, 387.5808021386132, 387.6974688052732, 387.81413547193324, 387.93080213859326, 388.0474688052533, 388.1641354719133, 388.28080213857334, 388.39746880523336, 388.5141354718934, 388.6308021385534, 388.74746880521343, 388.86413547187345, 388.9808021385335, 389.0974688051935, 389.2141354718535, 389.4474688051869]	2020_Nov_27_1711	59.93301249442724	1	0.375
9	65	FALSE	NV	a	['Y', 'K', 'H', 'W', 'U', 'B', 'J', 'N', 'T', 'X', 'S', 'E', 'V', 'Z', 'A', 'C']	[2670, 1122, 986, 2448, 2059, 760, 1029, 1335, 1888, 4000, 1731, 904, 2245, 2911, 697, 829]	10	Present	NA	NA	PRESENT	0.174576997756958	391.433779001236	393.4466989040375	394.2633736768891	394.6133755842178	397.5513379573822	4.104639053344727	[391.44119596481323, 391.55803203582764, 392.53466296195984, 392.7094259262085, 393.46012592315674, 393.57686710357666, 393.69393515586853, 393.81057810783386, 393.927451133728, 394.0442090034485, 394.1611590385437, 394.2777440547943, 394.3944480419159, 394.51128911972046, 394.62795901298523, 394.7449131011963, 394.8618230819702, 394.97857904434204, 395.0953140258789, 395.2121169567108, 395.3288960456848, 395.5513370037079]	[391.4474688051869, 391.5641354718469, 392.5471354718469, 392.7138354718469, 393.4638354718469, 393.5805021385069, 393.69716880516694, 393.81383547182696, 393.930502138487, 394.047168805147, 394.16383547180703, 394.28050213846706, 394.3971688051271, 394.5138354717871, 394.6305021384471, 394.74716880510715, 394.8638354717672, 394.9805021384272, 395.0971688050872, 395.21383547174725, 395.33050213840727, 395.5638354717406]	2020_Nov_27_1711	59.93301249442724	1	0.375
9	66	FALSE	VV	a	['R', 'W', 'H', 'E', 'P', 'S', 'J', 'U', 'surprise', 'Y', 'C', 'X', 'K', 'B', 'Z', 'N']	[1587, 2448, 986, 904, 1456, 1731, 1029, 2059, 'stimAuditory/all_stimAuditory/117.wav', 2670, 829, 4000, 1122, 760, 2911, 1335]	12	Present	NA	NA	PRESENT	1.131192922592163	397.5574760437012	399.56292510032654	400.6129329680796	400.9629348754083	403.6677050590515	4.104779958724976	[397.56489300727844, 397.6812789440155, 398.6510319709778, 398.83262300491333, 399.58337593078613, 399.7000379562378, 399.81682300567627, 399.93380212783813, 400.05057406425476, 400.16753911972046, 400.28427505493164, 400.40099596977234, 400.5176820755005, 400.63455295562744, 400.7514350414276, 400.86815309524536, 400.9849979877472, 401.10179114341736, 401.2184181213379, 401.33510303497314, 401.45198702812195, 401.6677041053772]	[397.5638354717406, 397.68050213840064, 398.66350213840064, 398.83020213840064, 399.58020213840064, 399.69686880506066, 399.8135354717207, 399.9302021383807, 400.04686880504073, 400.16353547170075, 400.2802021383608, 400.3968688050208, 400.5135354716808, 400.63020213834085, 400.7468688050009, 400.8635354716609, 400.9802021383209, 401.09686880498094, 401.21353547164097, 401.330202138301, 401.446868804961, 401.68020213829436]	2020_Nov_27_1711	59.93301249442724	1	0.375
9	67	FALSE	NA	a	['C', 'H', 'V', 'Y', 'U', 'R', 'W', 'G', 'A', 'X', 'N', 'J', 'M', 'T', 'K', 'B']	[829, 986, 2245, 2670, 2059, 1587, 2448, 944, 697, 4000, 1335, 1029, 1224, 1888, 1122, 760]	10	Present	NA	NA	PRESENT	0.5762889385223389	403.68035197258	405.6790480613709	406.4957225958039	406.8457247415512	409.78407096862793	4.10502290725708	[403.6877701282501, 403.8045790195465, 404.76739597320557, 404.9390470981598, 405.7066159248352, 405.8065559864044, 405.9233500957489, 406.0402979850769, 406.15699005126953, 406.2739269733429, 406.3907120227814, 406.50755500793457, 406.62417912483215, 406.7409830093384, 406.85797595977783, 406.9746940135956, 407.0912799835205, 407.2085130214691, 407.3250970840454, 407.4417369365692, 407.5584080219269, 407.78407096862793]	[403.68020213829436, 403.7968688049544, 404.7798688049544, 404.9465688049544, 405.6965688049544, 405.8132354716144, 405.92990213827443, 406.04656880493445, 406.1632354715945, 406.2799021382545, 406.3965688049145, 406.51323547157455, 406.62990213823457, 406.7465688048946, 406.8632354715546, 406.97990213821464, 407.09656880487466, 407.2132354715347, 407.3299021381947, 407.44656880485473, 407.56323547151476, 407.7965688048481]	2020_Nov_27_1711	59.93301249442724	1	0.375
9	68	FALSE	NV	a	['Y', 'Z', 'C', 'E', 'W', 'G', 'B', 'A', 'H', 'R', 'V', 'X', 'M', 'J', 'T', 'S']	[2670, 2911, 829, 904, 2448, 944, 760, 697, 986, 1587, 2245, 4000, 1224, 1029, 1888, 1731]	12	Present	NA	NA	PRESENT	0.5090019702911377	409.786917924881	411.79555201530457	412.84555988305766	413.1955620288049	415.9004371166229	4.104885101318359	[409.79433608055115, 409.91099309921265, 410.88375997543335, 411.0624029636383, 411.81310415267944, 411.92977809906006, 412.04658102989197, 412.1635510921478, 412.2802360057831, 412.39706206321716, 412.5137429237366, 412.6306309700012, 412.7473430633545, 412.8642771244049, 412.98104596138, 413.0978989601135, 413.2144629955292, 413.3314220905304, 413.4481761455536, 413.5649530887604, 413.6818120479584, 413.9004371166229]	[409.7965688048481, 409.91323547150813, 410.89623547150813, 411.0629354715081, 411.8129354715081, 411.92960213816815, 412.0462688048282, 412.1629354714882, 412.2796021381482, 412.39626880480824, 412.51293547146827, 412.6296021381283, 412.7462688047883, 412.86293547144834, 412.97960213810836, 413.0962688047684, 413.2129354714284, 413.32960213808843, 413.44626880474846, 413.5629354714085, 413.6796021380685, 413.91293547140185]	2020_Nov_27_1711	59.93301249442724	1	0.375
9	69	FALSE	VN	a	['E', 'C', 'Y', 'G', 'T', 'S', 'P', 'surprise', 'N', 'K', 'W', 'Z', 'M', 'B', 'H', 'V']	[904, 829, 2670, 944, 1888, 1731, 1456, 'stimAuditory/all_stimAuditory/119.wav', 1335, 1122, 2448, 2911, 1224, 760, 986, 2245]	11	Absent	NA	NA	PRESENT	1.002587080001831	415.91015005111694	417.9121050834656	418.8454453308844	419.195447238213	422.01680397987366	4.104698896408081	[415.9175670146942, 416.0344150066376, 417.00012707710266, 417.18587613105774, 417.9363000392914, 418.0529079437256, 418.1702380180359, 418.2865459918976, 418.4033761024475, 418.52010107040405, 418.6369299888611, 418.7539529800415, 418.8705310821533, 418.98735904693604, 419.10421204566956, 419.2209680080414, 419.33787512779236, 419.4546549320221, 419.5713450908661, 419.6713750362396, 419.7880630493164, 420.01680397987366]	[415.91293547140185, 416.0296021380619, 417.0126021380619, 417.17930213806187, 417.92930213806187, 418.0459688047219, 418.1626354713819, 418.27930213804194, 418.39596880470197, 418.512635471362, 418.629302138022, 418.74596880468204, 418.86263547134206, 418.9793021380021, 419.0959688046621, 419.21263547132213, 419.32930213798215, 419.4459688046422, 419.5626354713022, 419.6793021379622, 419.79596880462225, 420.0293021379556]	2020_Nov_27_1711	59.93301249442724	1	0.375
9	70	FALSE	NV	a	['P', 'R', 'N', 'A', 'Z', 'M', 'K', 'H', 'S', 'C', 'B', 'X', 'Y', 'U', 'V', 'T']	[1456, 1587, 1335, 697, 2911, 1224, 1122, 986, 1731, 829, 760, 4000, 2670, 2059, 2245, 1888]	12	Present	NA	NA	PRESENT	0.8148179054260254	422.01655888557434	424.02844309806824	425.078450012147	425.42845191947566	428.13317012786865	4.104727029800415	[422.0239770412445, 422.14063811302185, 423.1164939403534, 423.2919211387634, 424.0426731109619, 424.1596169471741, 424.27641201019287, 424.3932011127472, 424.5100440979004, 424.62651014328003, 424.74365496635437, 424.8603219985962, 424.9770791530609, 425.09382796287537, 425.21054315567017, 425.32736992836, 425.44438195228577, 425.56115913391113, 425.67769598960876, 425.79466795921326, 425.9113531112671, 426.13317108154297]	[422.0293021379556, 422.1459688046156, 423.1289688046156, 423.2956688046156, 424.0456688046156, 424.16233547127564, 424.27900213793566, 424.3956688045957, 424.5123354712557, 424.62900213791573, 424.74566880457576, 424.8623354712358, 424.9790021378958, 425.0956688045558, 425.21233547121585, 425.3290021378759, 425.4456688045359, 425.5623354711959, 425.67900213785595, 425.79566880451597, 425.912335471176, 426.14566880450934]	2020_Nov_27_1711	59.93301249442724	1	0.375
9	71	FALSE	NA	a	['A', 'B', 'U', 'T', 'M', 'E', 'S', 'X', 'R', 'P', 'Z', 'G', 'N', 'J', 'C', 'Y']	[697, 760, 2059, 1888, 1224, 904, 1731, 4000, 1587, 1456, 2911, 944, 1335, 1029, 829, 2670]	8	Present	NA	NA	PRESENT	0.28329014778137207	428.1402668952942	430.14472794532776	430.72806938485945	431.0780712921881	434.2495369911194	4.104809045791626	[428.14768409729004, 428.26390194892883, 429.23286414146423, 429.4151430130005, 430.1659071445465, 430.28286695480347, 430.3995101451874, 430.5164370536804, 430.6330590248108, 430.7498850822449, 430.8665771484375, 430.98346495628357, 431.1001811027527, 431.21730613708496, 431.3338520526886, 431.4505760669708, 431.5674431324005, 431.68435192108154, 431.8009600639343, 431.91779613494873, 432.0346360206604, 432.2495379447937]	[428.14566880450934, 428.26233547116937, 429.24533547116937, 429.41203547116936, 430.16203547116936, 430.2787021378294, 430.3953688044894, 430.51203547114943, 430.62870213780946, 430.7453688044695, 430.8620354711295, 430.9787021377895, 431.09536880444955, 431.2120354711096, 431.3287021377696, 431.4453688044296, 431.56203547108964, 431.67870213774967, 431.7953688044097, 431.9120354710697, 432.02870213772974, 432.2620354710631]	2020_Nov_27_1711	59.93301249442724	1	0.375
9	72	FALSE	AA	a	['P', 'T', 'A', 'G', 'C', 'surprise', 'R', 'U', 'X', 'Z', 'J', 'V', 'K', 'W', 'M', 'H']	[1456, 1888, 697, 944, 829, 'stimAuditory/all_stimAuditory/214.wav', 1587, 2059, 4000, 2911, 1029, 2245, 1122, 2448, 1224, 986]	9	Present	stimAuditory/all_stimAuditory/213.wav	NA	PRESENT	0.82462310791015625	434.2631778717041	436.26097798347473	436.9609848975735	437.3109870433207	440.3659040927887	4.104926109313965	[434.27059602737427, 434.3871440887451, 435.349228143692, 435.5215620994568, 436.2890601158142, 436.3893620967865, 436.50594305992126, 436.62288093566895, 436.73950600624084, 436.85641598701477, 436.9731481075287, 437.0899910926819, 437.2070391178131, 437.32361698150635, 437.4404139518738, 437.5572760105133, 437.6738829612732, 437.79088306427, 437.90751600265503, 438.02439999580383, 438.1413130760193, 438.365905046463]	[434.2620354710631, 434.3787021377231, 435.3617021377231, 435.5284021377231, 436.2784021377231, 436.39506880438313, 436.51173547104315, 436.6284021377032, 436.7450688043632, 436.8617354710232, 436.97840213768325, 437.09506880434327, 437.2117354710033, 437.3284021376633, 437.44506880432334, 437.56173547098336, 437.6784021376434, 437.7950688043034, 437.91173547096344, 438.02840213762346, 438.1450688042835, 438.37840213761683]	2020_Nov_27_1711	59.93301249442724	1	0.375
9	73	FALSE	NN	a	['K', 'Y', 'E', 'T', 'Z', 'M', 'V', 'G', 'B', 'C', 'W', 'H', 'P', 'S', 'J', 'N']	[1122, 2670, 904, 1888, 2911, 1224, 2245, 944, 760, 829, 2448, 986, 1456, 1731, 1029, 1335]	14	Absent	NA	NA	ABSENT	0.22124505043029785	440.3693220615387	442.3773040771485	443.6606452782215	444.0106474239687	446.48227095603943	4.104966878890991	[440.3767509460449, 440.49370098114014, 441.46559500694275, 441.6449339389801, 442.3954510688782, 442.51253509521484, 442.6291229724884, 442.7459399700165, 442.86267495155334, 442.9795160293579, 443.09649109840393, 443.21327805519104, 443.3299379348755, 443.4468491077423, 443.56351613998413, 443.68037009239197, 443.79717111587524, 443.9140131473541, 444.0307729244232, 444.1476860046387, 444.26447796821594, 444.48227095603943]	[440.37840213761683, 440.49506880427685, 441.47806880427686, 441.64476880427685, 442.39476880427685, 442.5114354709369, 442.6281021375969, 442.7447688042569, 442.86143547091694, 442.97810213757697, 443.094768804237, 443.211435470897, 443.32810213755704, 443.44476880421706, 443.5614354708771, 443.6781021375371, 443.79476880419713, 443.91143547085716, 444.0281021375172, 444.1447688041772, 444.2614354708372, 444.4947688041706]	2020_Nov_27_1711	59.93301249442724	1	0.375
9	74	FALSE	NA	a	['A', 'E', 'M', 'C', 'B', 'Z', 'G', 'P', 'W', 'S', 'N', 'X', 'U', 'T', 'H', 'V']	[697, 904, 1224, 829, 760, 2911, 944, 1456, 2448, 1731, 1335, 4000, 2059, 1888, 986, 2245]	12	Present	NA	NA	PRESENT	0.06645083427429199	446.49265789985657	448.4935688972473	449.5435779570933	449.8935798644219	452.59863805770874	4.105069160461426	[446.50007605552673, 446.61679792404175, 447.58196115493774, 447.76838397979736, 448.5189290046692, 448.63569498062134, 448.75236201286316, 448.8693039417267, 448.98593306541443, 449.10277104377747, 449.2197151184082, 449.3363230228424, 449.4533360004425, 449.5699200630188, 449.66995215415955, 449.7868490219116, 449.90355110168457, 450.02044105529785, 450.1371850967407, 450.25397205352783, 450.3707821369171, 450.5986371040344]	[446.4947688041706, 446.6114354708306, 447.5944354708306, 447.7611354708306, 448.5111354708306, 448.6278021374906, 448.74446880415064, 448.86113547081067, 448.9778021374707, 449.0944688041307, 449.21113547079074, 449.32780213745076, 449.4444688041108, 449.5611354707708, 449.67780213743083, 449.79446880409085, 449.9111354707509, 450.0278021374109, 450.1444688040709, 450.26113547073095, 450.377802137391, 450.6111354707243]	2020_Nov_27_1711	59.93301249442724	1	0.375
9	75	FALSE	NV	a	['Y', 'U', 'T', 'K', 'V', 'W', 'E', 'A', 'M', 'P', 'Z', 'R', 'B', 'X', 'G', 'H']	[2670, 2059, 1888, 1122, 2245, 2448, 904, 697, 1224, 1456, 2911, 1587, 760, 4000, 944, 986]	14	Present	NA	NA	PRESENT	0.1429591178894043	452.5992200374603	454.6100420951843	455.8933823425831	456.24338424991174	458.7150049209595	4.1049628257751465	[452.6066379547119, 452.72320008277893, 453.6983320713043, 453.8745970726013, 454.6252009868622, 454.7421431541443, 454.8588111400604, 454.97576904296875, 455.0926420688629, 455.20922899246216, 455.3259530067444, 455.4429919719696, 455.55963492393494, 455.67657113075256, 455.7934579849243, 455.9100420475006, 456.02682304382324, 456.14365315437317, 456.26050901412964, 456.37715792655945, 456.4940640926361, 456.71500611305237]	[452.6111354707243, 452.72780213738434, 453.71080213738435, 453.87750213738434, 454.62750213738434, 454.74416880404436, 454.8608354707044, 454.9775021373644, 455.09416880402443, 455.21083547068446, 455.3275021373445, 455.4441688040045, 455.56083547066453, 455.67750213732455, 455.7941688039846, 455.9108354706446, 456.0275021373046, 456.14416880396465, 456.26083547062467, 456.3775021372847, 456.4941688039447, 456.72750213727807]	2020_Nov_27_1711	59.93301249442724	1	0.375
9	76	FALSE	NA	a	['T', 'U', 'V', 'A', 'R', 'M', 'H', 'Y', 'C', 'N', 'J', 'X', 'K', 'B', 'P', 'W']	[1888, 2059, 2245, 697, 1587, 1224, 986, 2670, 829, 1335, 1029, 4000, 1122, 760, 1456, 2448]	12	Present	NA	NA	PRESENT	0.01156902313232421	458.7225849628449	460.7264280319214	461.7764358996745	462.1264380454217	464.83137106895447	4.104943037033081	[458.730003118515, 458.8465859889984, 459.8146960735321, 459.99775314331055, 460.748654127121, 460.8653509616852, 460.982057094574, 461.0989351272583, 461.2156779766083, 461.3325629234314, 461.44930601119995, 461.5661380290985, 461.6828670501709, 461.7997570037842, 461.9163980484009, 462.0331881046295, 462.15019392967224, 462.26673698425293, 462.383593082428, 462.50062108039856, 462.61727595329285, 462.83137106895447]	[458.72750213727807, 458.8441688039381, 459.8271688039381, 459.9938688039381, 460.7438688039381, 460.8605354705981, 460.97720213725813, 461.09386880391816, 461.2105354705782, 461.3272021372382, 461.4438688038982, 461.56053547055825, 461.6772021372183, 461.7938688038783, 461.9105354705383, 462.02720213719834, 462.14386880385837, 462.2605354705184, 462.3772021371784, 462.49386880383844, 462.61053547049846, 462.8438688038318]	2020_Nov_27_1711	59.93301249442724	1	0.375
9	77	FALSE	NN	a	['A', 'P', 'W', 'S', 'H', 'G', 'U', 'E', 'B', 'Y', 'K', 'R', 'C', 'T', 'Z', 'N']	[697, 1456, 2448, 1731, 986, 944, 2059, 904, 760, 2670, 1122, 1587, 829, 1888, 2911, 1335]	8	Absent	NA	NA	ABSENT	0.3208611011505127	464.8455400466919	466.84292101860046	467.4262622197136	467.7762643654608	470.9477369785309	4.10481595993042	[464.85295701026917, 464.95286107063293, 465.9310610294342, 466.1041841506958, 466.85496401786804, 466.97189712524414, 467.08873295783997, 467.20539712905884, 467.3221490383148, 467.43908309936523, 467.55585503578186, 467.6725420951843, 467.78953313827515, 467.9060161113739, 468.02296113967896, 468.1398229598999, 468.2567880153656, 468.37354707717896, 468.49009108543396, 468.60696601867676, 468.72392106056213, 468.9477379322052]	[464.8438688038318, 464.96053547049183, 465.94353547049184, 466.11023547049183, 466.86023547049183, 466.97690213715185, 467.0935688038119, 467.2102354704719, 467.3269021371319, 467.44356880379195, 467.56023547045197, 467.676902137112, 467.793568803772, 467.91023547043204, 468.02690213709207, 468.1435688037521, 468.2602354704121, 468.37690213707214, 468.49356880373216, 468.6102354703922, 468.7269021370522, 468.96023547038556]	2020_Nov_27_1711	59.93301249442724	1	0.375
9	78	FALSE	NV	a	['Y', 'C', 'E', 'A', 'V', 'B', 'Z', 'H', 'X', 'T', 'M', 'R', 'G', 'W', 'S', 'P']	[2670, 829, 904, 697, 2245, 760, 2911, 986, 4000, 1888, 1224, 1587, 944, 2448, 1731, 1456]	9	Present	NA	NA	PRESENT	0.03739309310913086	470.9519410133362	472.959223985672	473.6592320918637	474.0092339991923	477.0641040802002	4.104880094528198	[470.95935893058777, 471.076238155365, 472.0474281311035, 472.22739911079407, 472.97816801071167, 473.0951581001282, 473.21176314353943, 473.32848501205444, 473.4453251361847, 473.56229305267334, 473.6788959503174, 473.79575395584106, 473.91257309913635, 474.0295629501343, 474.1463301181793, 474.26327204704285, 474.37997007369995, 474.4964530467987, 474.61344599723816, 474.73015999794006, 474.8472480773926, 475.0641050338745]	[470.96023547038556, 471.0769021370456, 472.0599021370456, 472.2266021370456, 472.9766021370456, 473.0932688037056, 473.2099354703656, 473.32660213702565, 473.44326880368567, 473.5599354703457, 473.6766021370057, 473.79326880366574, 473.90993547032576, 474.0266021369858, 474.1432688036458, 474.25993547030583, 474.37660213696586, 474.4932688036259, 474.6099354702859, 474.7266021369459, 474.84326880360595, 475.0766021369393]	2020_Nov_27_1711	59.93301249442724	1	0.375
9	79	FALSE	NA	a	['M', 'K', 'A', 'C', 'N', 'P', 'J', 'Z', 'W', 'E', 'H', 'X', 'S', 'Y', 'B', 'G']	[1224, 1122, 697, 829, 1335, 1456, 1029, 2911, 2448, 904, 986, 4000, 1731, 2670, 760, 944]	12	Present	NA	NA	PRESENT	0.08276891708374023	477.07522797584534	479.0757339000702	480.12574200624186	480.4757439135705	483.1804699897766	4.104736089706421	[477.0826461315155, 477.1994569301605, 478.16379404067993, 478.35095500946045, 479.10149097442627, 479.2184679508209, 479.31822514533997, 479.43503499031067, 479.5518751144409, 479.6685769557953, 479.785462141037, 479.90216398239136, 480.01900005340576, 480.13574504852295, 480.2525899410248, 480.3693730831146, 480.4861500263214, 480.60298109054565, 480.71978306770325, 480.83658599853516, 480.9533021450043, 481.1804709434509]	[477.0766021369393, 477.1932688035993, 478.1762688035993, 478.3429688035993, 479.0929688035993, 479.20963547025934, 479.32630213691937, 479.4429688035794, 479.5596354702394, 479.67630213689944, 479.79296880355946, 479.9096354702195, 480.0263021368795, 480.14296880353953, 480.25963547019956, 480.3763021368596, 480.4929688035196, 480.6096354701796, 480.72630213683965, 480.8429688034997, 480.9596354701597, 481.19296880349305]	2020_Nov_27_1711	59.93301249442724	1	0.375
