participant	trial_num	practice	task	condition	RSVP	RAP	probePos	probe_presence	surprise_sound	surprise_img	probe_response	probe_resp_time	first_fixation_time	trial_start_time	surprise_start_time	probe_start_time	trial_end_time	trial_duration	actualEventTimes	plannedEventTimes	date	framerate	marker_vol	RAP_vol
19	1	FALSE	NN	a	['H', 'E', 'Z', 'P', 'T', 'S', 'C', 'B', 'Y', 'M', 'W', 'J', 'U', 'G', 'V', 'N']	[986, 904, 2911, 1456, 1888, 1731, 829, 760, 2670, 1224, 2448, 1029, 2059, 944, 2245, 1335]	8	Absent	NA	NA	ABSENT	1.5577030181884766	9.5367431640625e-7	2.0013420581817627	2.5846844513877687	2.9346863587164016	6.103870153427124	4.102528095245361	[0.00874018669128418, 0.12546014785766602, 1.0871891975402832, 1.2597730159759521, 2.027318000793457, 2.1274452209472656, 2.244335174560547, 2.3610172271728516, 2.477835178375244, 2.5946521759033203, 2.711297035217285, 2.8282840251922607, 2.9449310302734375, 3.061894178390503, 3.178676128387451, 3.295337200164795, 3.412318229675293, 3.5289292335510254, 3.645714044570923, 3.76261305809021, 3.8792290687561035, 4.103870153427124]	[2.1457672119140625e-06, 0.11666881242721192, 1.0996688124272118, 1.2663688124272119, 2.0163688124272117, 2.1330354790872117, 2.2497021457472117, 2.3663688124072118, 2.483035479067212, 2.599702145727212, 2.716368812387212, 2.833035479047212, 2.949702145707212, 3.066368812367212, 3.183035479027212, 3.299702145687212, 3.416368812347212, 3.533035479007212, 3.649702145667212, 3.766368812327212, 3.883035478987212, 4.1163688123205455]	2021_Feb_02_1127	59.93472532623048	1	0.375
19	2	FALSE	NA	a	['K', 'N', 'J', 'A', 'M', 'E', 'Z', 'W', 'B', 'P', 'C', 'X', 'Y', 'G', 'S', 'U']	[1122, 1335, 1029, 697, 1224, 904, 2911, 2448, 760, 1456, 829, 4000, 2670, 944, 1731, 2059]	12	Present	NA	NA	PRESENT	0.02631807327270507	6.106385946273804	8.114031076431274	9.164038944184384	9.514041089931595	12.220237016677856	4.106205940246582	[6.1151251792907715, 6.231892108917236, 7.203557014465332, 7.383023023605347, 8.133827209472656, 8.250691175460815, 8.36739206314087, 8.484352111816406, 8.600946187973022, 8.717953205108643, 8.834665060043335, 8.9515061378479, 9.068379163742065, 9.184859037399292, 9.301948070526123, 9.418545007705688, 9.535293102264404, 9.652214050292969, 9.768866062164307, 9.885606050491333, 10.002546072006226, 10.220237016677856]	[6.1163688123205455, 6.233035478980545, 7.216035478980545, 7.382735478980544, 8.132735478980544, 8.249402145640545, 8.366068812300545, 8.482735478960546, 8.599402145620546, 8.716068812280547, 8.832735478940547, 8.949402145600548, 9.066068812260548, 9.182735478920549, 9.29940214558055, 9.41606881224055, 9.53273547890055, 9.64940214556055, 9.766068812220551, 9.882735478880551, 9.999402145540552, 10.232735478873884]	2021_Feb_02_1127	59.93472532623048	1	0.375
19	3	FALSE	NV	a	['N', 'S', 'C', 'W', 'B', 'P', 'K', 'X', 'J', 'E', 'R', 'A', 'M', 'Z', 'T', 'G']	[1335, 1731, 829, 2448, 760, 1456, 1122, 4000, 1029, 904, 1587, 697, 1224, 2911, 1888, 944]	8	Present	NA	NA	PRESENT	0.02380204200744629	12.229341983795166	14.230571031570436	14.813911279009227	15.16391342475644	18.33660316467285	4.106032133102417	[12.23808217048645, 12.35519814491272, 13.319924116134644, 13.506232023239136, 14.256908178329468, 14.37394905090332, 14.490723133087158, 14.607468128204346, 14.7241690158844, 14.841061115264893, 14.95798921585083, 15.057700157165527, 15.17454218864441, 15.29134202003479, 15.40817403793335, 15.524962186813354, 15.641780138015747, 15.758561134338379, 15.875233173370361, 15.992050170898438, 16.10884118080139, 16.33660316467285]	[12.232735478873884, 12.349402145533885, 13.332402145533885, 13.499102145533886, 14.249102145533886, 14.365768812193886, 14.482435478853887, 14.599102145513887, 14.715768812173888, 14.832435478833888, 14.949102145493889, 15.06576881215389, 15.18243547881389, 15.29910214547389, 15.41576881213389, 15.532435478793891, 15.649102145453892, 15.765768812113892, 15.882435478773893, 15.999102145433893, 16.115768812093894, 16.349102145427228]	2021_Feb_02_1127	59.93472532623048	1	0.375
19	4	FALSE	NN	a	['P', 'T', 'S', 'R', 'W', 'V', 'K', 'E', 'U', 'B', 'C', 'M', 'A', 'G', 'H', 'Y']	[1456, 1888, 1731, 1587, 2448, 2245, 1122, 904, 2059, 760, 829, 1224, 697, 944, 986, 2670]	11	Absent	NA	NA	ABSENT	0.2682230472564697	18.335994958877563	20.347307920455933	21.280648406293302	21.63065031362194	24.452970027923584	4.105662107467651	[18.344735145568848, 18.46150517463684, 19.436288118362427, 19.613017082214355, 20.36353611946106, 20.480194091796875, 20.597142219543457, 20.71402621269226, 20.830677032470703, 20.947540044784546, 21.06419610977173, 21.181031227111816, 21.297834157943726, 21.41466212272644, 21.53149914741516, 21.648311138153076, 21.765079021453857, 21.8819100856781, 21.998659133911133, 22.115402221679688, 22.232230186462402, 22.452970027923584]	[18.349102145427228, 18.465768812087227, 19.448768812087227, 19.615468812087226, 20.365468812087226, 20.482135478747225, 20.598802145407223, 20.715468812067222, 20.83213547872722, 20.94880214538722, 21.065468812047218, 21.182135478707217, 21.298802145367215, 21.415468812027214, 21.532135478687213, 21.64880214534721, 21.76546881200721, 21.88213547866721, 21.998802145327208, 22.115468811987206, 22.232135478647205, 22.46546881198054]	2021_Feb_02_1127	59.93472532623048	1	0.375
19	5	FALSE	VV	a	['Y', 'C', 'J', 'B', 'Z', 'U', 'T', 'K', 'surprise', 'V', 'P', 'X', 'M', 'R', 'H', 'W']	[2670, 829, 1029, 760, 2911, 2059, 1888, 1122, 'stimAuditory/all_stimAuditory/107.wav', 2245, 1456, 4000, 1224, 1587, 986, 2448]	12	Present	NA	NA	PRESENT	0.2729191780090332	24.459216117858887	26.4634690284729	27.51347713464459	27.86347904197322	30.569337129592896	4.105868101119995	[24.467956066131592, 24.584797143936157, 25.552656173706055, 25.735953092575073, 26.48670220375061, 26.60352110862732, 26.72023916244507, 26.83693504333496, 26.95370316505432, 27.07071805000305, 27.18742609024048, 27.30439805984497, 27.420971155166626, 27.53794813156128, 27.654741048812866, 27.77135419845581, 27.88828420639038, 28.00497603416443, 28.12190818786621, 28.23848819732666, 28.355346202850342, 28.569338083267212]	[24.46546881198054, 24.582135478640538, 25.56513547864054, 25.731835478640537, 26.481835478640537, 26.598502145300536, 26.715168811960535, 26.831835478620533, 26.948502145280532, 27.06516881194053, 27.18183547860053, 27.298502145260528, 27.415168811920527, 27.531835478580525, 27.648502145240524, 27.765168811900523, 27.88183547856052, 27.99850214522052, 28.11516881188052, 28.231835478540518, 28.348502145200516, 28.58183547853385]	2021_Feb_02_1127	59.93472532623048	1	0.375
19	6	FALSE	NA	a	['V', 'C', 'P', 'M', 'K', 'N', 'B', 'T', 'H', 'U', 'A', 'Y', 'J', 'X', 'R', 'S']	[2245, 829, 1456, 1224, 1122, 1335, 760, 1888, 986, 2059, 697, 2670, 1029, 4000, 1587, 1731]	14	Present	NA	NA	PRESENT	0.23802781105041504	30.582581043243408	32.57962107658386	33.862962277656976	34.21296442340419	36.68570423126221	4.106083154678345	[30.591321229934692, 30.69102716445923, 31.669023036956787, 31.84246516227722, 32.593059062957764, 32.709981203079224, 32.82677507400513, 32.94352722167969, 33.060230016708374, 33.177166223526, 33.293803215026855, 33.410715103149414, 33.52767515182495, 33.64440608024597, 33.761067152023315, 33.87792205810547, 33.99466109275818, 34.11164116859436, 34.22821617126465, 34.345179080963135, 34.46181511878967, 34.68570423126221]	[30.58183547853385, 30.69850214519385, 31.68150214519385, 31.84820214519385, 32.59820214519385, 32.714868811853854, 32.83153547851386, 32.94820214517386, 33.06486881183386, 33.18153547849386, 33.298202145153866, 33.41486881181387, 33.53153547847387, 33.64820214513387, 33.764868811793875, 33.88153547845388, 33.99820214511388, 34.11486881177388, 34.231535478433884, 34.348202145093886, 34.46486881175389, 34.69820214508722]	2021_Feb_02_1127	59.93472532623048	1	0.375
19	7	FALSE	NA	a	['V', 'J', 'N', 'W', 'M', 'S', 'T', 'E', 'C', 'G', 'B', 'X', 'K', 'U', 'A', 'H']	[2245, 1029, 1335, 2448, 1224, 1731, 1888, 904, 829, 944, 760, 4000, 1122, 2059, 697, 986]	12	Present	NA	NA	PRESENT	0.04264402389526367	36.68888998031616	38.6960711479187	39.74607901567181	40.09608092300044	42.80207014083862	4.105998992919922	[36.69762921333313, 36.8143630027771, 37.78538918495178, 37.96555709838867, 38.71643614768982, 38.83323812484741, 38.9498770236969, 39.066827058792114, 39.18345403671265, 39.3001971244812, 39.41709017753601, 39.53395915031433, 39.6506781578064, 39.76733207702637, 39.88441514968872, 40.0010621547699, 40.11796307563782, 40.23457407951355, 40.3517861366272, 40.46837520599365, 40.585103034973145, 40.80207014083862]	[36.69820214508722, 36.814868811747225, 37.79786881174722, 37.96456881174722, 38.71456881174722, 38.83123547840722, 38.947902145067225, 39.06456881172723, 39.18123547838723, 39.29790214504723, 39.414568811707234, 39.531235478367236, 39.64790214502724, 39.76456881168724, 39.88123547834724, 39.997902145007245, 40.11456881166725, 40.23123547832725, 40.34790214498725, 40.464568811647254, 40.581235478307256, 40.81456881164059]	2021_Feb_02_1127	59.93472532623048	1	0.375
19	8	FALSE	NV	a	['K', 'T', 'C', 'P', 'N', 'M', 'Z', 'J', 'X', 'R', 'S', 'E', 'A', 'G', 'U', 'W']	[1122, 1888, 829, 1456, 1335, 1224, 2911, 1029, 4000, 1587, 1731, 904, 697, 944, 2059, 2448]	9	Present	NA	NA	PRESENT	0.02383708953857422	42.81192898750305	44.81253004074097	45.512538146932656	45.86254005426129	48.918437004089355	4.105906963348389	[42.82066822052002, 42.937459230422974, 43.90175700187683, 44.088858127593994, 44.839582204818726, 44.9562611579895, 45.056354999542236, 45.17315411567688, 45.28995323181152, 45.40674805641174, 45.523537158966064, 45.64030718803406, 45.75709414482117, 45.873916149139404, 45.99065709114075, 46.10747313499451, 46.224409103393555, 46.34104013442993, 46.45787000656128, 46.57462000846863, 46.69155716896057, 46.91843819618225]	[42.81456881164059, 42.93123547830059, 43.91423547830059, 44.08093547830059, 44.83093547830059, 44.94760214496059, 45.06426881162059, 45.180935478280595, 45.2976021449406, 45.4142688116006, 45.5309354782606, 45.647602144920604, 45.76426881158061, 45.88093547824061, 45.99760214490061, 46.11426881156061, 46.230935478220616, 46.34760214488062, 46.46426881154062, 46.58093547820062, 46.697602144860625, 46.93093547819396]	2021_Feb_02_1127	59.93472532623048	1	0.375
19	9	FALSE	NN	a	['C', 'T', 'P', 'B', 'E', 'N', 'H', 'Y', 'Z', 'V', 'R', 'G', 'U', 'K', 'W', 'M']	[829, 1888, 1456, 760, 904, 1335, 986, 2670, 2911, 2245, 1587, 944, 2059, 1122, 2448, 1224]	12	Absent	NA	NA	PRESENT	0.5723330974578857	48.91851305961609	50.9285581111908	51.978565978943905	52.32856812469112	55.03480315208435	4.106245040893555	[48.927253007888794, 49.04392123222351, 50.01812505722046, 50.195160150527954, 50.94625520706177, 51.06285119056702, 51.17947602272034, 51.29640603065491, 51.41326904296875, 51.53000521659851, 51.64671516418457, 51.76370406150818, 51.880327224731445, 51.99706315994263, 52.114078998565674, 52.23069715499878, 52.3475980758667, 52.46442103385925, 52.58107113838196, 52.697933197021484, 52.814685106277466, 53.03480315208435]	[48.93093547819396, 49.04760214485396, 50.03060214485396, 50.19730214485396, 50.94730214485396, 51.06396881151396, 51.18063547817396, 51.297302144833964, 51.413968811493966, 51.53063547815397, 51.64730214481397, 51.76396881147397, 51.880635478133975, 51.99730214479398, 52.11396881145398, 52.23063547811398, 52.347302144773984, 52.463968811433986, 52.58063547809399, 52.69730214475399, 52.81396881141399, 53.04730214474733]	2021_Feb_02_1127	59.93472532623048	1	0.375
19	10	FALSE	AV	a	['M', 'J', 'U', 'W', 'H', 'R', 'T', 'E', 'P', 'surprise', 'C', 'A', 'X', 'K', 'Z', 'N']	[1224, 1029, 2059, 2448, 986, 1587, 1888, 904, 1456, 'stimAuditory/all_stimAuditory/206.wav', 829, 697, 4000, 1122, 2911, 1335]	13	Present	stimAuditory/all_stimAuditory/107.wav	NA	PRESENT	0.2730879783630371	55.041625022888184	57.044979095458984	58.211653629872096	58.56165577561931	61.15117001533508	4.106190919876099	[55.05036520957947, 55.16728210449219, 56.13449001312256, 56.31842803955078, 57.06928610801697, 57.1861310005188, 57.30290222167969, 57.419509172439575, 57.536439180374146, 57.65309500694275, 57.76986813545227, 57.88679504394531, 58.00366401672363, 58.12019610404968, 58.2372031211853, 58.3539080619812, 58.47058320045471, 58.58757019042969, 58.7043821811676, 58.82097101211548, 58.937984228134155, 59.15117001533508]	[55.04730214474733, 55.16396881140733, 56.146968811407326, 56.313668811407325, 57.063668811407325, 57.18033547806733, 57.29700214472733, 57.41366881138733, 57.530335478047334, 57.647002144707336, 57.76366881136734, 57.88033547802734, 57.99700214468734, 58.113668811347345, 58.23033547800735, 58.34700214466735, 58.46366881132735, 58.580335477987354, 58.69700214464736, 58.81366881130736, 58.93033547796736, 59.163668811300695]	2021_Feb_02_1127	59.93472532623048	1	0.375
19	11	FALSE	NA	a	['V', 'J', 'G', 'H', 'U', 'W', 'E', 'X', 'B', 'K', 'P', 'S', 'C', 'A', 'M', 'T']	[2245, 1029, 944, 986, 2059, 2448, 904, 4000, 760, 1122, 1456, 1731, 829, 697, 1224, 1888]	8	Present	NA	NA	PRESENT	0.07021498680114746	61.14841413497925	63.16157793998718	63.744920333193186	64.09492128684751	67.2675371170044	4.105959177017212	[61.15715312957764, 61.273680210113525, 62.25085806846619, 62.42480802536011, 63.17564606666565, 63.2925591468811, 63.40916419029236, 63.526123046875, 63.642922163009644, 63.7596549987793, 63.87645721435547, 63.993364095687866, 64.10994410514832, 64.2269241809845, 64.34353518486023, 64.46042704582214, 64.57707500457764, 64.69393801689148, 64.81085705757141, 64.92769622802734, 65.04439520835876, 65.2675371170044]	[61.163668811300695, 61.2803354779607, 62.263335477960695, 62.43003547796069, 63.18003547796069, 63.296702144620696, 63.4133688112807, 63.5300354779407, 63.6467021446007, 63.763368811260705, 63.88003547792071, 63.99670214458071, 64.1133688112407, 64.2300354779007, 64.3467021445607, 64.46336881122069, 64.58003547788068, 64.69670214454068, 64.81336881120068, 64.93003547786067, 65.04670214452067, 65.280035477854]	2021_Feb_02_1127	59.93472532623048	1	0.375
19	12	FALSE	NV	a	['G', 'Y', 'Z', 'J', 'K', 'N', 'M', 'C', 'X', 'U', 'V', 'R', 'S', 'T', 'P', 'A']	[944, 2670, 2911, 1029, 1122, 1335, 1224, 829, 4000, 2059, 2245, 1587, 1731, 1888, 1456, 697]	9	Present	NA	NA	PRESENT	0.29076600074768066	67.27144503593445	69.27779793739319	69.97780508991056	70.3278069972392	73.38390517234802	4.106107234954834	[67.28018307685852, 67.39697408676147, 68.36722421646118, 68.54819703102112, 69.29891419410706, 69.41585206985474, 69.53252816200256, 69.64932107925415, 69.7661190032959, 69.88285803794861, 69.9997251033783, 70.11639714241028, 70.23319101333618, 70.35016512870789, 70.46681904792786, 70.58372402191162, 70.70037603378296, 70.81712508201599, 70.9340991973877, 71.05072617530823, 71.16765713691711, 71.38390517234802]	[67.280035477854, 67.396702144514, 68.379702144514, 68.546402144514, 69.296402144514, 69.413068811174, 69.529735477834, 69.64640214449399, 69.76306881115399, 69.87973547781398, 69.99640214447398, 70.11306881113397, 70.22973547779397, 70.34640214445396, 70.46306881111396, 70.57973547777395, 70.69640214443395, 70.81306881109394, 70.92973547775394, 71.04640214441393, 71.16306881107393, 71.39640214440726]	2021_Feb_02_1127	59.93472532623048	1	0.375
19	13	FALSE	AA	a	['W', 'K', 'A', 'R', 'M', 'G', 'S', 'P', 'Z', 'C', 'surprise', 'U', 'Y', 'X', 'T', 'N']	[2448, 1122, 697, 1587, 1224, 944, 1731, 1456, 2911, 829, 'stimAuditory/all_stimAuditory/121.wav', 2059, 2670, 4000, 1888, 1335]	14	Present	stimAuditory/all_stimAuditory/206.wav	NA	PRESENT	0.25647902488708496	73.39450192451477	75.39430904388428	76.67765024495739	77.0276523907046	79.50027012825012	4.105961084365845	[73.40324306488037, 73.52015900611877, 74.48359107971191, 74.67133808135986, 75.4221420288086, 75.52209210395813, 75.63888120651245, 75.75569009780884, 75.87248110771179, 75.98914122581482, 76.10603618621826, 76.22276520729065, 76.33962106704712, 76.4563410282135, 76.57322216033936, 76.6899631023407, 76.80698108673096, 76.92371416091919, 77.0403881072998, 77.15733909606934, 77.27403616905212, 77.50027012825012]	[73.39640214440726, 73.51306881106726, 74.49606881106726, 74.66276881106727, 75.41276881106727, 75.52943547772726, 75.64610214438726, 75.76276881104725, 75.87943547770725, 75.99610214436724, 76.11276881102724, 76.22943547768723, 76.34610214434723, 76.46276881100722, 76.57943547766722, 76.69610214432721, 76.81276881098721, 76.9294354776472, 77.0461021443072, 77.1627688109672, 77.27943547762719, 77.51276881096052]	2021_Feb_02_1127	59.93472532623048	1	0.375
19	14	FALSE	NN	a	['R', 'Y', 'G', 'C', 'E', 'N', 'Z', 'V', 'W', 'S', 'M', 'U', 'P', 'A', 'K', 'B']	[1587, 2670, 944, 829, 904, 1335, 2911, 2245, 2448, 1731, 1224, 2059, 1456, 697, 1122, 760]	12	Absent	NA	NA	ABSENT	0.6525380611419678	79.50091695785522	81.51042413711548	82.56043200486859	82.91043391219722	85.61663722991943	4.106213092803955	[79.50965714454651, 79.62668323516846, 80.59995722770691, 80.77801418304443, 81.52848315238953, 81.64547920227051, 81.76221513748169, 81.87899804115295, 81.99570608139038, 82.1125340461731, 82.22922706604004, 82.34600520133972, 82.46291303634644, 82.5796320438385, 82.69644808769226, 82.81336617469788, 82.9300901889801, 83.04690718650818, 83.16362714767456, 83.28045511245728, 83.39732718467712, 83.61663722991943]	[79.51276881096052, 79.62943547762052, 80.61243547762052, 80.77913547762053, 81.52913547762053, 81.64580214428052, 81.76246881094052, 81.87913547760051, 81.99580214426051, 82.1124688109205, 82.2291354775805, 82.3458021442405, 82.46246881090049, 82.57913547756048, 82.69580214422048, 82.81246881088047, 82.92913547754047, 83.04580214420047, 83.16246881086046, 83.27913547752046, 83.39580214418045, 83.62913547751378]	2021_Feb_02_1127	59.93472532623048	1	0.375
19	15	FALSE	NV	a	['T', 'H', 'Y', 'P', 'W', 'V', 'C', 'U', 'A', 'N', 'X', 'R', 'B', 'S', 'K', 'J']	[1888, 986, 2670, 1456, 2448, 2245, 829, 2059, 697, 1335, 4000, 1587, 760, 1731, 1122, 1029]	11	Present	NA	NA	PRESENT	0.02547216415405273	85.62436199188232	87.62701201438904	88.56035345390073	88.91035536122936	91.73300313949584	4.1059911251068115	[85.63310122489929, 85.7498631477356, 86.71632409095764, 86.90090107917786, 87.65166807174683, 87.76867723464966, 87.88535809516907, 88.00210213661194, 88.11900401115417, 88.2355580329895, 88.3524260520935, 88.46927905082703, 88.58606100082397, 88.70272517204285, 88.81958222389221, 88.93649411201477, 89.05331921577454, 89.17019319534302, 89.28689002990723, 89.40356206893921, 89.52029418945312, 89.73300409317017]	[85.62913547751378, 85.74580214417378, 86.72880214417378, 86.89550214417379, 87.64550214417379, 87.76216881083378, 87.87883547749378, 87.99550214415378, 88.11216881081377, 88.22883547747377, 88.34550214413376, 88.46216881079376, 88.57883547745375, 88.69550214411375, 88.81216881077374, 88.92883547743374, 89.04550214409373, 89.16216881075373, 89.27883547741372, 89.39550214407372, 89.51216881073371, 89.74550214406705]	2021_Feb_02_1127	59.93472532623048	1	0.375
19	16	FALSE	NV	a	['A', 'W', 'U', 'C', 'J', 'P', 'N', 'T', 'X', 'R', 'Z', 'Y', 'G', 'B', 'K', 'S']	[697, 2448, 2059, 829, 1029, 1456, 1335, 1888, 4000, 1587, 2911, 2670, 944, 760, 1122, 1731]	9	Present	NA	NA	PRESENT	0.08653712272644043	91.7309319972992	93.74338912963869	94.44339699741178	94.793399143159	97.84937000274658	4.10598087310791	[91.73967123031616, 91.85630106925964, 92.83269000053406, 93.00731611251831, 93.75811910629272, 93.87517023086548, 93.99176406860352, 94.10874104499817, 94.22541308403015, 94.3423240184784, 94.45894122123718, 94.57572102546692, 94.69251918792725, 94.80936622619629, 94.92608308792114, 95.0430212020874, 95.15969610214233, 95.2766261100769, 95.39336514472961, 95.50999808311462, 95.62692713737488, 95.84937000274658]	[91.74550214406705, 91.86216881072704, 92.84516881072705, 93.01186881072705, 93.76186881072705, 93.87853547738705, 93.99520214404704, 94.11186881070704, 94.22853547736703, 94.34520214402703, 94.46186881068702, 94.57853547734702, 94.69520214400701, 94.81186881066701, 94.928535477327, 95.045202143987, 95.161868810647, 95.27853547730699, 95.39520214396698, 95.51186881062698, 95.62853547728697, 95.86186881062031]	2021_Feb_02_1127	59.93472532623048	1	0.375
19	17	FALSE	NA	a	['Y', 'Z', 'U', 'H', 'C', 'T', 'K', 'W', 'X', 'M', 'R', 'J', 'P', 'E', 'S', 'N']	[2670, 2911, 2059, 986, 829, 1888, 1122, 2448, 4000, 1224, 1587, 1029, 1456, 904, 1731, 1335]	9	Present	NA	NA	PRESENT	0.06731700897216797	97.85374212265016	99.85976791381836	100.55977697368436	100.90977911943158	103.9657371044159	4.105969190597534	[97.86248111724854, 97.9794192314148, 98.94905805587769, 99.13048505783081, 99.8814640045166, 99.99833106994629, 100.11498522758484, 100.23192405700684, 100.34855604171753, 100.46546912193298, 100.58207416534424, 100.69878911972046, 100.81576323509216, 100.93235111236572, 101.0492582321167, 101.1661422252655, 101.2832670211792, 101.39966416358948, 101.51655912399292, 101.6331570148468, 101.7499930858612, 101.96573805809021]	[97.86186881062031, 97.9785354772803, 98.96153547728031, 99.12823547728031, 99.87823547728031, 99.99490214394031, 100.1115688106003, 100.2282354772603, 100.3449021439203, 100.46156881058029, 100.57823547724028, 100.69490214390028, 100.81156881056027, 100.92823547722027, 101.04490214388026, 101.16156881054026, 101.27823547720025, 101.39490214386025, 101.51156881052025, 101.62823547718024, 101.74490214384024, 101.97823547717357]	2021_Feb_02_1127	59.93472532623048	1	0.375
19	18	FALSE	VA	a	['B', 'V', 'Z', 'U', 'T', 'Y', 'C', 'surprise', 'M', 'A', 'X', 'S', 'N', 'H', 'J', 'P']	[760, 2245, 2911, 2059, 1888, 2670, 829, 'stimAuditory/all_stimAuditory/122.wav', 1224, 697, 4000, 1731, 1335, 986, 1029, 1456]	11	Present	NA	NA	PRESENT	0.2006089687347412	103.97719812393188	105.97596907615662	106.9093093235754	107.25931146932264	110.0821042060852	4.106135129928589	[103.98593711853027, 104.10263800621033, 105.06542301177979, 105.23690414428711, 106.00467014312744, 106.10454607009888, 106.22138619422913, 106.33818101882935, 106.45519423484802, 106.57183718681335, 106.6885712146759, 106.8054301738739, 106.9223210811615, 107.03899502754211, 107.15584802627563, 107.27246904373169, 107.38932013511658, 107.50619912147522, 107.62291502952576, 107.73974919319153, 107.85669016838074, 108.0821042060852]	[103.97823547717357, 104.09490214383356, 105.07790214383357, 105.24460214383357, 105.99460214383357, 106.11126881049357, 106.22793547715357, 106.34460214381356, 106.46126881047356, 106.57793547713355, 106.69460214379355, 106.81126881045354, 106.92793547711354, 107.04460214377353, 107.16126881043353, 107.27793547709352, 107.39460214375352, 107.51126881041351, 107.6279354770735, 107.7446021437335, 107.8612688103935, 108.09460214372683]	2021_Feb_02_1127	59.93472532623048	1	0.375
19	19	FALSE	NN	a	['T', 'V', 'A', 'G', 'W', 'C', 'H', 'B', 'P', 'R', 'U', 'S', 'N', 'J', 'M', 'E']	[1888, 2245, 697, 944, 2448, 829, 986, 760, 1456, 1587, 2059, 1731, 1335, 1029, 1224, 904]	13	Absent	NA	NA	ABSENT	0.05298805236816406	110.08365392684937	112.09255003929138	113.25922481212308	113.60922576577738	116.19847011566162	4.105920076370239	[110.09239220619202, 110.20918416976929, 111.1817901134491, 111.3605420589447, 112.11105918884277, 112.22781610488892, 112.34473919868469, 112.46140623092651, 112.57821822166443, 112.69521522521973, 112.81185603141785, 112.92876100540161, 113.04535412788391, 113.16205716133118, 113.27902507781982, 113.39569616317749, 113.51259517669678, 113.62925314903259, 113.74601602554321, 113.86280703544617, 113.97980809211731, 114.19847106933594]	[110.09460214372683, 110.21126881038683, 111.19426881038683, 111.36096881038684, 112.11096881038684, 112.22763547704683, 112.34430214370683, 112.46096881036682, 112.57763547702682, 112.69430214368681, 112.81096881034681, 112.9276354770068, 113.0443021436668, 113.16096881032679, 113.27763547698679, 113.39430214364678, 113.51096881030678, 113.62763547696677, 113.74430214362677, 113.86096881028676, 113.97763547694676, 114.2109688102801]	2021_Feb_02_1127	59.93472532623048	1	0.375
19	20	FALSE	NV	a	['C', 'R', 'K', 'E', 'P', 'T', 'M', 'Z', 'W', 'B', 'H', 'G', 'X', 'V', 'Y', 'A']	[829, 1587, 1122, 904, 1456, 1888, 1224, 2911, 2448, 760, 986, 944, 4000, 2245, 2670, 697]	13	Present	NA	NA	PRESENT	0.21842002868652344	116.20689702033997	118.20878911018372	119.37546364459682	119.72546579034405	122.31483721733092	4.106048107147217	[116.21563601493835, 116.33228611946106, 117.29815721511841, 117.48345923423767, 118.23424005508423, 118.35111117362976, 118.46785807609558, 118.58446502685547, 118.7014811038971, 118.81836414337158, 118.93510723114014, 119.05174803733826, 119.16844201087952, 119.28544211387634, 119.40226602554321, 119.51905608177185, 119.63582420349121, 119.75253009796143, 119.86946320533752, 119.96925806999207, 120.08613300323486, 120.31483721733093]	[116.2109688102801, 116.32763547694009, 117.31063547694009, 117.4773354769401, 118.2273354769401, 118.3440021436001, 118.46066881026009, 118.57733547692008, 118.69400214358008, 118.81066881024007, 118.92733547690007, 119.04400214356006, 119.16066881022006, 119.27733547688005, 119.39400214354005, 119.51066881020004, 119.62733547686004, 119.74400214352004, 119.86066881018003, 119.97733547684003, 120.09400214350002, 120.32733547683335]	2021_Feb_02_1127	59.93472532623048	1	0.375
19	21	FALSE	VV	a	['T', 'Z', 'G', 'U', 'C', 'R', 'A', 'surprise', 'Y', 'S', 'X', 'J', 'P', 'N', 'B', 'M']	[1888, 2911, 944, 2059, 829, 1587, 697, 'stimAuditory/all_stimAuditory/221.wav', 2670, 1731, 4000, 1029, 1456, 1335, 760, 1224]	11	Present	NA	NA	PRESENT	0.20674514770507812	122.3133499622345	124.32527208328248	125.25861328437558	125.6086154301228	128.43120312690735	4.105931043624878	[122.32208919525146, 122.43872022628784, 123.41452407836914, 123.58981204032898, 124.34064602851868, 124.45753812789917, 124.57425904273987, 124.69116616249084, 124.80795121192932, 124.9248251914978, 125.04145121574402, 125.15839219093323, 125.27513217926025, 125.3918662071228, 125.50876903533936, 125.62524008750916, 125.74233818054199, 125.85895705223083, 125.97576713562012, 126.09255814552307, 126.20942711830139, 126.43120408058167]	[122.32733547683335, 122.44400214349335, 123.42700214349335, 123.59370214349336, 124.34370214349336, 124.46036881015335, 124.57703547681335, 124.69370214347335, 124.81036881013334, 124.92703547679334, 125.04370214345333, 125.16036881011333, 125.27703547677332, 125.39370214343332, 125.51036881009331, 125.6270354767533, 125.7437021434133, 125.8603688100733, 125.97703547673329, 126.09370214339329, 126.21036881005328, 126.44370214338662]	2021_Feb_02_1127	59.93472532623048	1	0.375
19	22	FALSE	NN	a	['T', 'N', 'S', 'P', 'H', 'Y', 'K', 'C', 'B', 'U', 'G', 'M', 'A', 'E', 'V', 'J']	[1888, 1335, 1731, 1456, 986, 2670, 1122, 829, 760, 2059, 944, 1224, 697, 904, 2245, 1029]	13	Absent	NA	NA	ABSENT	0.3555870056152344	128.43625712394714	130.4416220188141	131.60829679164578	131.9582986989744	134.54757022857666	4.105948209762573	[128.44499707221985, 128.56208205223083, 129.53089213371277, 129.7132110595703, 130.46400213241577, 130.58080005645752, 130.69761514663696, 130.81437706947327, 130.93116211891174, 131.0478060245514, 131.16483902931213, 131.28139209747314, 131.39834117889404, 131.51504015922546, 131.6319122314453, 131.74845719337463, 131.86544919013977, 131.9822292327881, 132.09900903701782, 132.21580815315247, 132.33289909362793, 132.54757022857666]	[128.44370214338662, 128.5603688100466, 129.54336881004662, 129.7100688100466, 130.4600688100466, 130.5767354767066, 130.6934021433666, 130.8100688100266, 130.9267354766866, 131.04340214334658, 131.16006881000658, 131.27673547666657, 131.39340214332657, 131.51006880998656, 131.62673547664656, 131.74340214330655, 131.86006880996655, 131.97673547662654, 132.09340214328654, 132.21006880994653, 132.32673547660653, 132.56006880993985]	2021_Feb_02_1127	59.93472532623048	1	0.375
19	23	FALSE	NA	a	['G', 'B', 'U', 'H', 'R', 'A', 'K', 'J', 'X', 'T', 'C', 'W', 'S', 'E', 'M', 'Y']	[944, 760, 2059, 986, 1587, 697, 1122, 1029, 4000, 1888, 829, 2448, 1731, 904, 1224, 2670]	9	Present	NA	NA	PRESENT	0.04875397682189941	134.5596890449524	136.55800414085388	137.2580129623013	137.60801510804853	140.6639380455017	4.105933904647827	[134.56842803955078, 134.68504214286804, 135.64725923538208, 135.8195080757141, 136.58708715438843, 136.6872251033783, 136.8038990497589, 136.9209430217743, 137.03750014305115, 137.15447402000427, 137.27113604545593, 137.38805317878723, 137.50483107566833, 137.62166213989258, 137.7383291721344, 137.85509514808655, 137.97180700302124, 138.0885031223297, 138.20547819137573, 138.32209014892578, 138.43915104866028, 138.6639370918274]	[134.56006880993985, 134.67673547659984, 135.65973547659985, 135.82643547659984, 136.57643547659984, 136.69310214325984, 136.80976880991983, 136.92643547657983, 137.04310214323982, 137.15976880989982, 137.2764354765598, 137.3931021432198, 137.5097688098798, 137.6264354765398, 137.7431021431998, 137.8597688098598, 137.97643547651978, 138.09310214317978, 138.20976880983977, 138.32643547649977, 138.44310214315976, 138.67643547649308]	2021_Feb_02_1127	59.93472532623048	1	0.375
19	24	FALSE	NN	a	['B', 'U', 'P', 'V', 'S', 'W', 'Y', 'G', 'H', 'A', 'C', 'E', 'J', 'N', 'R', 'Z']	[760, 2059, 1456, 2245, 1731, 2448, 2670, 944, 986, 697, 829, 904, 1029, 1335, 1587, 2911]	10	Absent	NA	NA	ABSENT	0.22932720184326172	140.66589212417605	142.67424511909485	143.49091965352795	143.84092179927518	146.7803041934967	4.1060590744018555	[140.6746311187744, 140.79170322418213, 141.76362299919128, 141.94277715682983, 142.6938591003418, 142.81049513816833, 142.92721104621887, 143.0439851284027, 143.16077423095703, 143.2774691581726, 143.39436721801758, 143.51101112365723, 143.62806701660156, 143.74463200569153, 143.86162400245667, 143.97814011573792, 144.09513401985168, 144.2117941379547, 144.32857418060303, 144.44535112380981, 144.56228804588318, 144.7803041934967]	[140.67643547649308, 140.79310214315308, 141.77610214315308, 141.94280214315307, 142.69280214315307, 142.80946880981307, 142.92613547647306, 143.04280214313306, 143.15946880979305, 143.27613547645305, 143.39280214311304, 143.50946880977304, 143.62613547643303, 143.74280214309303, 143.85946880975303, 143.97613547641302, 144.09280214307302, 144.209468809733, 144.326135476393, 144.442802143053, 144.559468809713, 144.79280214304632]	2021_Feb_02_1127	59.93472532623048	1	0.375
19	25	FALSE	NN	a	['J', 'V', 'P', 'W', 'N', 'U', 'A', 'G', 'C', 'Z', 'H', 'S', 'Y', 'K', 'B', 'T']	[1029, 2245, 1456, 2448, 1335, 2059, 697, 944, 829, 2911, 986, 1731, 2670, 1122, 760, 1888]	8	Absent	NA	NA	ABSENT	0.19472289085388184	146.78928112983704	148.79070806503296	149.37404926614607	149.72405141189327	152.89667010307312	4.105962038040161	[146.79802012443542, 146.91462206840515, 147.8799910545349, 148.06605100631714, 148.81692719459534, 148.9334762096405, 149.0504071712494, 149.16704201698303, 149.28384804725647, 149.4008960723877, 149.51766109466553, 149.6342990398407, 149.7510530948639, 149.85114812850952, 149.96793508529663, 150.084655046463, 150.20134902000427, 150.31815218925476, 150.43500304222107, 150.55180311203003, 150.66860103607178, 150.89667010307312]	[146.79280214304632, 146.9094688097063, 147.89246880970632, 148.0591688097063, 148.8091688097063, 148.9258354763663, 149.0425021430263, 149.1591688096863, 149.2758354763463, 149.39250214300628, 149.50916880966628, 149.62583547632627, 149.74250214298627, 149.85916880964626, 149.97583547630626, 150.09250214296625, 150.20916880962625, 150.32583547628624, 150.44250214294624, 150.55916880960623, 150.67583547626623, 150.90916880959955]	2021_Feb_02_1127	59.93472532623048	1	0.375
19	26	FALSE	NA	a	['G', 'B', 'A', 'K', 'J', 'S', 'N', 'X', 'V', 'R', 'Z', 'M', 'H', 'U', 'W', 'E']	[944, 760, 697, 1122, 1029, 1731, 1335, 4000, 2245, 1587, 2911, 1224, 986, 2059, 2448, 904]	8	Present	NA	NA	PRESENT	0.28727102279663086	152.89589095115662	154.90696501731873	155.49030526475752	155.84030741050472	159.01303720474243	4.106072187423706	[152.90463018417358, 153.02130508422852, 153.99635815620422, 154.17242002487183, 154.92312908172607, 155.04012513160706, 155.1568570137024, 155.27361702919006, 155.39049816131592, 155.50719618797302, 155.62404704093933, 155.74085307121277, 155.857568025589, 155.97434616088867, 156.09122109413147, 156.2080180644989, 156.3248291015625, 156.44160103797913, 156.55838203430176, 156.6750030517578, 156.7917501926422, 157.01303720474243]	[152.90916880959955, 153.02583547625954, 154.00883547625955, 154.17553547625954, 154.92553547625954, 155.04220214291954, 155.15886880957953, 155.27553547623953, 155.39220214289952, 155.50886880955952, 155.6255354762195, 155.7422021428795, 155.8588688095395, 155.9755354761995, 156.0922021428595, 156.2088688095195, 156.32553547617948, 156.44220214283948, 156.55886880949947, 156.67553547615947, 156.79220214281946, 157.02553547615278]	2021_Feb_02_1127	59.93472532623048	1	0.375
19	27	FALSE	NA	a	['T', 'P', 'A', 'U', 'S', 'V', 'C', 'M', 'W', 'X', 'B', 'G', 'R', 'K', 'Y', 'N']	[1888, 1456, 697, 2059, 1731, 2245, 829, 1224, 2448, 4000, 760, 944, 1587, 1122, 2670, 1335]	10	Present	NA	NA	PRESENT	0.05980110168457031	159.01887893676758	161.02341198921204	161.84008676206372	162.19008866939237	165.12940406799316	4.105992078781128	[159.02761816978455, 159.14449620246887, 160.11272501945496, 160.29569721221924, 161.0464940071106, 161.16308307647705, 161.2799642086029, 161.39679718017578, 161.51355910301208, 161.63034009933472, 161.74722814559937, 161.8640730381012, 161.9806890487671, 162.09752011299133, 162.2145130634308, 162.33143520355225, 162.44806003570557, 162.5647690296173, 162.6813530921936, 162.79821515083313, 162.91514801979065, 163.12940406799316]	[159.02553547615278, 159.14220214281278, 160.12520214281278, 160.29190214281277, 161.04190214281277, 161.15856880947277, 161.27523547613276, 161.39190214279276, 161.50856880945275, 161.62523547611275, 161.74190214277274, 161.85856880943274, 161.97523547609273, 162.09190214275273, 162.20856880941272, 162.32523547607272, 162.44190214273272, 162.5585688093927, 162.6752354760527, 162.7919021427127, 162.9085688093727, 163.14190214270602]	2021_Feb_02_1127	59.93472532623048	1	0.375
19	28	FALSE	VN	a	['V', 'U', 'K', 'E', 'R', 'A', 'surprise', 'G', 'M', 'N', 'W', 'S', 'Z', 'H', 'P', 'C']	[2245, 2059, 1122, 904, 1587, 697, 'stimAuditory/all_stimAuditory/106.wav', 944, 1224, 1335, 2448, 1731, 2911, 986, 1456, 829]	10	Absent	NA	NA	ABSENT	0.05679702758789062	165.14189410209656	167.13978004455566	167.95645362531445	168.30645577106168	171.24577021598816	4.105990171432495	[165.15063405036926, 165.25071716308594, 166.22909712791443, 166.40209007263184, 167.16947102546692, 167.26980805397034, 167.38646721839905, 167.50323510169983, 167.62006306648254, 167.73672318458557, 167.85368418693542, 167.97049403190613, 168.0871980190277, 168.20394206047058, 168.3208291530609, 168.43771719932556, 168.55450010299683, 168.67115020751953, 168.78809523582458, 168.90466904640198, 169.02166604995728, 169.24577021598816]	[165.14190214270602, 165.258568809366, 166.24156880936602, 166.408268809366, 167.158268809366, 167.274935476026, 167.391602142686, 167.508268809346, 167.624935476006, 167.74160214266598, 167.85826880932598, 167.97493547598597, 168.09160214264597, 168.20826880930596, 168.32493547596596, 168.44160214262595, 168.55826880928595, 168.67493547594594, 168.79160214260594, 168.90826880926593, 169.02493547592593, 169.25826880925925]	2021_Feb_02_1127	59.93472532623048	1	0.375
19	29	FALSE	NV	a	['Z', 'A', 'B', 'R', 'W', 'H', 'E', 'G', 'J', 'U', 'X', 'T', 'V', 'M', 'N', 'Y']	[2911, 697, 760, 1587, 2448, 986, 904, 944, 1029, 2059, 4000, 1888, 2245, 1224, 1335, 2670]	11	Present	NA	NA	PRESENT	0.2056479454040527	171.24855995178223	173.25630402565002	174.1896454651617	174.53964737249035	177.3621370792389	4.105833053588867	[171.2573001384735, 171.37412118911743, 172.34545707702637, 172.5255160331726, 173.27600407600403, 173.39273715019226, 173.50964212417603, 173.62635803222656, 173.74329710006714, 173.85993719100952, 173.97690320014954, 174.0937261581421, 174.21053004264832, 174.32721710205078, 174.44414806365967, 174.56082916259766, 174.67757511138916, 174.7945520877838, 174.91108322143555, 175.027930021286, 175.14472913742065, 175.3621370792389]	[171.25826880925925, 171.37493547591924, 172.35793547591925, 172.52463547591924, 173.27463547591924, 173.39130214257924, 173.50796880923923, 173.62463547589923, 173.74130214255922, 173.85796880921922, 173.9746354758792, 174.0913021425392, 174.2079688091992, 174.3246354758592, 174.4413021425192, 174.5579688091792, 174.67463547583918, 174.79130214249918, 174.90796880915917, 175.02463547581917, 175.14130214247916, 175.37463547581248]	2021_Feb_02_1127	59.93472532623048	1	0.375
19	30	FALSE	NV	a	['T', 'E', 'H', 'M', 'P', 'K', 'V', 'S', 'A', 'C', 'X', 'Y', 'N', 'W', 'G', 'R']	[1888, 904, 986, 1224, 1456, 1122, 2245, 1731, 697, 829, 4000, 2670, 1335, 2448, 944, 1587]	11	Present	NA	NA	PRESENT	0.21881794929504397	177.37181091308594	179.37245893478394	180.3058003742956	180.65580228162423	183.4785041809082	4.106045246124268	[177.3805501461029, 177.49717807769775, 178.46182513237, 178.64862823486328, 179.39923214912415, 179.51613402366638, 179.6329801082611, 179.74959516525269, 179.86647510528564, 179.9663290977478, 180.08316111564636, 180.20003008842468, 180.3167531490326, 180.43358612060547, 180.55038118362427, 180.66711401939392, 180.78394222259521, 180.9007670879364, 181.0177390575409, 181.13426613807678, 181.25123620033264, 181.4785041809082]	[177.37463547581248, 177.49130214247248, 178.47430214247248, 178.64100214247247, 179.39100214247247, 179.50766880913247, 179.62433547579246, 179.74100214245246, 179.85766880911245, 179.97433547577245, 180.09100214243244, 180.20766880909244, 180.32433547575243, 180.44100214241243, 180.55766880907242, 180.67433547573242, 180.79100214239241, 180.9076688090524, 181.0243354757124, 181.1410021423724, 181.2576688090324, 181.49100214236572]	2021_Feb_02_1127	59.93472532623048	1	0.375
19	31	FALSE	NV	a	['K', 'G', 'V', 'C', 'Z', 'J', 'S', 'B', 'R', 'N', 'U', 'P', 'M', 'X', 'A', 'H']	[1122, 944, 2245, 829, 2911, 1029, 1731, 760, 1587, 1335, 2059, 1456, 1224, 4000, 697, 986]	14	Present	NA	NA	PRESENT	0.11138200759887695	183.4783840179443	185.4885890483856	186.77193024945873	187.12193239520593	189.59487009048465	4.106281042098999	[183.48712301254272, 183.6037561893463, 184.5781900882721, 184.75492906570435, 185.50561618804932, 185.62241506576538, 185.7393491268158, 185.8560290336609, 185.97296500205994, 186.08954906463623, 186.20659017562866, 186.32335805892944, 186.4401252269745, 186.55674815177917, 186.6737461090088, 186.7903711795807, 186.90709805488586, 187.02395701408386, 187.14085602760315, 187.25760912895203, 187.37431406974792, 187.59487009048462]	[183.49100214236572, 183.6076688090257, 184.59066880902571, 184.7573688090257, 185.5073688090257, 185.6240354756857, 185.7407021423457, 185.8573688090057, 185.9740354756657, 186.09070214232568, 186.20736880898568, 186.32403547564567, 186.44070214230567, 186.55736880896566, 186.67403547562566, 186.79070214228565, 186.90736880894565, 187.02403547560564, 187.14070214226564, 187.25736880892563, 187.37403547558563, 187.60736880891895]	2021_Feb_02_1127	59.93472532623048	1	0.375
19	32	FALSE	NV	a	['N', 'V', 'B', 'H', 'C', 'A', 'S', 'X', 'J', 'Z', 'K', 'W', 'R', 'G', 'U', 'E']	[1335, 2245, 760, 986, 829, 697, 1731, 4000, 1029, 2911, 1122, 2448, 1587, 944, 2059, 904]	8	Present	NA	NA	PRESENT	0.02792906761169433	189.60126900672913	191.6048579216003	192.18819936113204	192.5382003147863	195.71123719215393	4.106379270553589	[189.61000800132751, 189.7268681526184, 190.69455814361572, 190.87814116477966, 191.62892603874207, 191.74575901031494, 191.86245918273926, 191.9791760444641, 192.0959451198578, 192.212749004364, 192.3295521736145, 192.44654822349548, 192.56317710876465, 192.68009519577026, 192.79685020446777, 192.91372203826904, 193.03044605255127, 193.14720106124878, 193.2642741203308, 193.38088011741638, 193.4975860118866, 193.71123719215393]	[189.60736880891895, 189.72403547557894, 190.70703547557895, 190.87373547557894, 191.62373547557894, 191.74040214223893, 191.85706880889893, 191.97373547555893, 192.09040214221892, 192.20706880887892, 192.3237354755389, 192.4404021421989, 192.5570688088589, 192.6737354755189, 192.7904021421789, 192.9070688088389, 193.02373547549888, 193.14040214215888, 193.25706880881887, 193.37373547547887, 193.49040214213886, 193.72373547547218]	2021_Feb_02_1127	59.93472532623048	1	0.375
19	33	FALSE	AV	a	['Y', 'Z', 'A', 'V', 'E', 'surprise', 'B', 'S', 'X', 'T', 'J', 'H', 'M', 'K', 'W', 'G']	[2670, 2911, 697, 2245, 904, 'stimAuditory/all_stimAuditory/208.wav', 760, 1731, 4000, 1888, 1029, 986, 1224, 1122, 2448, 944]	9	Present	stimAuditory/all_stimAuditory/121.wav	NA	PRESENT	0.06497812271118164	195.7246479988098	197.7216339111328	198.4216420173245	198.77164392465315	201.82760310173035	4.105969190597534	[195.73338723182678, 195.83317303657532, 196.81092500686646, 196.98450708389282, 197.7351770401001, 197.85220623016357, 197.96885514259338, 198.08562517166138, 198.20252323150635, 198.3191750049591, 198.43612504005432, 198.55294609069824, 198.66974020004272, 198.786395072937, 198.90340304374695, 199.02003407478333, 199.13697814941406, 199.25361514091492, 199.37049412727356, 199.4872121810913, 199.60418319702148, 199.82760405540466]	[195.72373547547218, 195.84040214213218, 196.82340214213218, 196.99010214213217, 197.74010214213217, 197.85676880879217, 197.97343547545216, 198.09010214211216, 198.20676880877215, 198.32343547543215, 198.44010214209214, 198.55676880875214, 198.67343547541213, 198.79010214207213, 198.90676880873212, 199.02343547539212, 199.14010214205211, 199.2567688087121, 199.3734354753721, 199.4901021420321, 199.6067688086921, 199.84010214202542]	2021_Feb_02_1127	59.93472532623048	1	0.375
19	34	FALSE	NA	a	['Y', 'V', 'W', 'P', 'M', 'C', 'U', 'G', 'E', 'S', 'J', 'A', 'Z', 'X', 'B', 'N']	[2670, 2245, 2448, 1456, 1224, 829, 2059, 944, 904, 1731, 1029, 697, 2911, 4000, 760, 1335]	14	Present	NA	NA	ABSENT	0.6298069953918457	201.83094310760495	203.83763194084167	205.12097338033337	205.470975287662	207.9439702033997	4.106338262557983	[201.83968210220337, 201.9566080570221, 202.92728900909424, 203.1079020500183, 203.85887122154236, 203.97518110275269, 204.09212708473206, 204.2087721824646, 204.32583022117615, 204.44248914718628, 204.55929803848267, 204.67593908309937, 204.79297709465027, 204.90974020957947, 205.02652406692505, 205.1432831287384, 205.25992012023926, 205.37703204154968, 205.49372220039368, 205.61048102378845, 205.72713923454285, 205.94397020339966]	[201.84010214202542, 201.9567688086854, 202.93976880868541, 203.1064688086854, 203.8564688086854, 203.9731354753454, 204.0898021420054, 204.2064688086654, 204.3231354753254, 204.43980214198538, 204.55646880864538, 204.67313547530537, 204.78980214196537, 204.90646880862536, 205.02313547528536, 205.13980214194535, 205.25646880860535, 205.37313547526534, 205.48980214192534, 205.60646880858533, 205.72313547524533, 205.95646880857865]	2021_Feb_02_1127	59.93472532623048	1	0.375
19	35	FALSE	NV	a	['W', 'J', 'T', 'H', 'Z', 'G', 'S', 'U', 'A', 'X', 'K', 'R', 'V', 'C', 'Y', 'E']	[2448, 1029, 1888, 986, 2911, 944, 1731, 2059, 697, 4000, 1122, 1587, 2245, 829, 2670, 904]	10	Present	NA	NA	PRESENT	0.06685805320739746	207.9541609287262	209.9543449878693	210.77101880704663	211.12102071437528	214.0603370666504	4.105992078781128	[207.96290016174316, 208.07951307296753, 209.04365801811218, 209.230788230896, 209.98168921470642, 210.08169603347778, 210.19848918914795, 210.3152370452881, 210.43200302124023, 210.54882502555847, 210.66561913490295, 210.78245520591736, 210.8992052078247, 211.0159990787506, 211.13280200958252, 211.24959516525269, 211.36658215522766, 211.48327207565308, 211.60005402565002, 211.7168312072754, 211.83375716209412, 212.0603380203247]	[207.95646880857865, 208.07313547523864, 209.05613547523865, 209.22283547523864, 209.97283547523864, 210.08950214189863, 210.20616880855863, 210.32283547521862, 210.43950214187862, 210.55616880853862, 210.6728354751986, 210.7895021418586, 210.9061688085186, 211.0228354751786, 211.1395021418386, 211.2561688084986, 211.37283547515858, 211.48950214181858, 211.60616880847857, 211.72283547513857, 211.83950214179856, 212.07283547513188]	2021_Feb_02_1127	59.93472532623048	1	0.375
19	36	FALSE	VA	a	['M', 'E', 'Y', 'V', 'G', 'surprise', 'S', 'C', 'X', 'K', 'B', 'U', 'A', 'P', 'R', 'W']	[1224, 904, 2670, 2245, 944, 'stimAuditory/all_stimAuditory/117.wav', 1731, 829, 4000, 1122, 760, 2059, 697, 1456, 1587, 2448]	9	Present	NA	NA	PRESENT	0.01554107666015625	214.06100296974185	216.07063603401184	216.77064294811063	217.12064509385783	220.1767041683197	4.106068134307861	[214.0697431564331, 214.18630003929138, 215.1600251197815, 215.33742809295654, 216.08822417259216, 216.20496201515198, 216.3217911720276, 216.43843507766724, 216.55522322654724, 216.67215013504028, 216.78903818130493, 216.90553903579712, 217.02247500419617, 217.13945317268372, 217.25602507591248, 217.37274622917175, 217.48971009254456, 217.60651302337646, 217.72341513633728, 217.84004521369934, 217.9569330215454, 218.17670512199402]	[214.07283547513188, 214.18950214179188, 215.17250214179188, 215.33920214179187, 216.08920214179187, 216.20586880845187, 216.32253547511186, 216.43920214177186, 216.55586880843185, 216.67253547509185, 216.78920214175184, 216.90586880841184, 217.02253547507183, 217.13920214173183, 217.25586880839182, 217.37253547505182, 217.48920214171181, 217.6058688083718, 217.7225354750318, 217.8392021416918, 217.9558688083518, 218.18920214168512]	2021_Feb_02_1127	59.93472532623048	1	0.375
19	37	FALSE	NA	a	['C', 'G', 'Y', 'M', 'T', 'U', 'Z', 'B', 'A', 'J', 'X', 'R', 'P', 'S', 'N', 'V']	[829, 944, 2670, 1224, 1888, 2059, 2911, 760, 697, 1029, 4000, 1587, 1456, 1731, 1335, 2245]	11	Present	NA	NA	PRESENT	0.07619714736938477	220.1839051246643	222.18708205223083	223.1204232533239	223.47042444539684	226.29307007789612	4.105988025665283	[220.192645072937, 220.3093900680542, 221.2763900756836, 221.46062922477722, 222.2113320827484, 222.32826399803162, 222.44494819641113, 222.5617232322693, 222.67835903167725, 222.79524517059326, 222.91199707984924, 223.0288450717926, 223.14560413360596, 223.2628002166748, 223.37918615341187, 223.49609112739563, 223.61292505264282, 223.7297830581665, 223.84646201133728, 223.96320819854736, 224.08008003234863, 224.29307007789612]	[220.18920214168512, 220.3058688083451, 221.28886880834511, 221.4555688083451, 222.2055688083451, 222.3222354750051, 222.4389021416651, 222.5555688083251, 222.6722354749851, 222.78890214164508, 222.90556880830508, 223.02223547496507, 223.13890214162507, 223.25556880828506, 223.37223547494506, 223.48890214160505, 223.60556880826505, 223.72223547492504, 223.83890214158504, 223.95556880824503, 224.07223547490503, 224.30556880823835]	2021_Feb_02_1127	59.93472532623048	1	0.375
19	38	FALSE	NV	a	['S', 'G', 'Y', 'W', 'K', 'P', 'E', 'H', 'B', 'N', 'X', 'A', 'U', 'C', 'R', 'T']	[1731, 944, 2670, 2448, 1122, 1456, 904, 986, 760, 1335, 4000, 697, 2059, 829, 1587, 1888]	11	Present	NA	NA	PRESENT	0.19343900680541992	226.29014992713928	228.30338501930237	229.23672645881405	229.5867274124684	232.40943717956543	4.1060521602630615	[226.29888916015625, 226.4159550666809, 227.39275813102722, 227.56696200370789, 228.31765222549438, 228.43453407287598, 228.55155420303345, 228.66816401481628, 228.78500318527222, 228.90163612365723, 229.0186460018158, 229.13523721694946, 229.25217604637146, 229.36885809898376, 229.48573517799377, 229.6024341583252, 229.7193741798401, 229.8360631465912, 229.95295906066895, 230.06968522071838, 230.18657612800598, 230.40943717956543]	[226.30556880823835, 226.42223547489834, 227.40523547489835, 227.57193547489834, 228.32193547489834, 228.43860214155833, 228.55526880821833, 228.67193547487832, 228.78860214153832, 228.90526880819831, 229.0219354748583, 229.1386021415183, 229.2552688081783, 229.3719354748383, 229.4886021414983, 229.60526880815829, 229.72193547481828, 229.83860214147828, 229.95526880813827, 230.07193547479827, 230.18860214145826, 230.42193547479158]	2021_Feb_02_1127	59.93472532623048	1	0.375
19	39	FALSE	NN	a	['G', 'A', 'V', 'K', 'R', 'B', 'U', 'N', 'W', 'T', 'Z', 'H', 'Y', 'C', 'S', 'J']	[944, 697, 2245, 1122, 1587, 760, 2059, 1335, 2448, 1888, 2911, 986, 2670, 829, 1731, 1029]	12	Absent	NA	NA	ABSENT	0.0620269775390625	232.41333413124084	234.41979098320007	235.46979813569743	235.81980004302608	238.52580404281616	4.106013059616089	[232.42207312583923, 232.53893113136292, 233.5091290473938, 233.69061708450317, 234.44100713729858, 234.55776405334473, 234.6746530532837, 234.7913420200348, 234.90820503234863, 235.02490520477295, 235.1417751312256, 235.258483171463, 235.37513422966003, 235.49224400520325, 235.60872507095337, 235.72562909126282, 235.84253120422363, 235.95929312705994, 236.07615423202515, 236.19273710250854, 236.3097140789032, 236.52580523490906]	[232.42193547479158, 232.53860214145158, 233.52160214145158, 233.68830214145157, 234.43830214145157, 234.55496880811157, 234.67163547477156, 234.78830214143156, 234.90496880809155, 235.02163547475155, 235.13830214141154, 235.25496880807154, 235.37163547473153, 235.48830214139153, 235.60496880805152, 235.72163547471152, 235.8383021413715, 235.9549688080315, 236.0716354746915, 236.1883021413515, 236.3049688080115, 236.53830214134481]	2021_Feb_02_1127	59.93472532623048	1	0.375
19	40	FALSE	NV	a	['G', 'T', 'Y', 'C', 'B', 'V', 'S', 'E', 'N', 'W', 'Z', 'R', 'X', 'P', 'M', 'K']	[944, 1888, 2670, 829, 760, 2245, 1731, 904, 1335, 2448, 2911, 1587, 4000, 1456, 1224, 1122]	13	Present	NA	NA	PRESENT	0.04319691658020019	238.53679394721985	240.53611707687375	241.7027916112869	242.0527937570341	244.64217019081116	4.106053113937378	[238.54553318023682, 238.6620512008667, 239.62549114227295, 239.8133680820465, 240.56425213813782, 240.66420817375183, 240.78094911575317, 240.89778113365173, 241.0145981311798, 241.1312961578369, 241.24819016456604, 241.3648340702057, 241.48181319236755, 241.5984160900116, 241.71527910232544, 241.83220505714417, 241.94901418685913, 242.06562113761902, 242.18261218070984, 242.2992181777954, 242.4161732196808, 242.64217019081116]	[238.53830214134481, 238.6549688080048, 239.6379688080048, 239.8046688080048, 240.5546688080048, 240.6713354746648, 240.7880021413248, 240.9046688079848, 241.0213354746448, 241.13800214130478, 241.25466880796478, 241.37133547462477, 241.48800214128477, 241.60466880794476, 241.72133547460476, 241.83800214126475, 241.95466880792475, 242.07133547458474, 242.18800214124474, 242.30466880790473, 242.42133547456473, 242.65466880789805]	2021_Feb_02_1127	59.93472532623048	1	0.375
19	41	FALSE	NN	a	['J', 'C', 'A', 'M', 'H', 'T', 'K', 'W', 'R', 'N', 'U', 'G', 'P', 'V', 'B', 'E']	[1029, 829, 697, 1224, 986, 1888, 1122, 2448, 1587, 1335, 2059, 944, 1456, 2245, 760, 904]	10	Absent	NA	NA	ABSENT	0.0238962173461914	244.64333701133728	246.65240693092343	247.46908075010083	247.81908265742948	250.7585370540619	4.106130123138428	[244.65207719802856, 244.76865410804749, 245.7418601512909, 245.91987109184265, 246.67070603370667, 246.7873351573944, 246.90423607826233, 247.0210361480713, 247.1377980709076, 247.25444912910461, 247.37123608589172, 247.48801708221436, 247.60499000549316, 247.721764087677, 247.83855819702148, 247.95534420013428, 248.07201409339905, 248.1889021396637, 248.3056240081787, 248.4226131439209, 248.5392382144928, 248.7585370540619]	[244.65466880789805, 244.77133547455804, 245.75433547455805, 245.92103547455804, 246.67103547455804, 246.78770214121803, 246.90436880787803, 247.02103547453802, 247.13770214119802, 247.25436880785801, 247.371035474518, 247.487702141178, 247.604368807838, 247.721035474498, 247.837702141158, 247.95436880781799, 248.07103547447798, 248.18770214113798, 248.30436880779797, 248.42103547445797, 248.53770214111796, 248.77103547445128]	2021_Feb_02_1127	59.93472532623048	1	0.375
19	42	FALSE	NA	a	['B', 'P', 'E', 'A', 'J', 'V', 'U', 'W', 'X', 'Y', 'G', 'R', 'K', 'T', 'C', 'N']	[760, 1456, 904, 697, 1029, 2245, 2059, 2448, 4000, 2670, 944, 1587, 1122, 1888, 829, 1335]	9	Present	NA	NA	PRESENT	0.35632896423339844	250.76628494262695	252.76888012886047	253.4688879966336	253.8188901423808	256.8749041557312	4.1060240268707275	[250.77502512931824, 250.8916552066803, 251.85822200775146, 252.04283022880554, 252.79376220703125, 252.91050219535828, 253.02755403518677, 253.14420413970947, 253.2611300945282, 253.37786412239075, 253.4946050643921, 253.6112961769104, 253.72798109054565, 253.84496903419495, 253.96168518066406, 254.0784981250763, 254.19520711898804, 254.31239223480225, 254.42893719673157, 254.54554414749146, 254.66238522529602, 254.8749041557312]	[250.77103547445128, 250.88770214111128, 251.87070214111128, 252.03740214111127, 252.78740214111127, 252.90406880777127, 253.02073547443126, 253.13740214109126, 253.25406880775125, 253.37073547441125, 253.48740214107124, 253.60406880773124, 253.72073547439123, 253.83740214105123, 253.95406880771122, 254.07073547437122, 254.1874021410312, 254.3040688076912, 254.4207354743512, 254.5374021410112, 254.6540688076712, 254.88740214100451]	2021_Feb_02_1127	59.93472532623048	1	0.375
19	43	FALSE	NN	a	['B', 'W', 'J', 'M', 'Z', 'G', 'H', 'S', 'V', 'P', 'N', 'E', 'U', 'Y', 'R', 'K']	[760, 2448, 1029, 1224, 2911, 944, 986, 1731, 2245, 1456, 1335, 904, 2059, 2670, 1587, 1122]	11	Absent	NA	NA	ABSENT	0.18558907508850095	256.8726589679718	258.8852491378784	259.81858938529723	260.1685912926258	262.9912700653076	4.106020927429199	[256.88139820098877, 256.9981360435486, 257.9745910167694, 258.14944314956665, 258.9001450538635, 259.0169520378113, 259.13395714759827, 259.25051403045654, 259.3674740791321, 259.4841961860657, 259.60116314888, 259.71762704849243, 259.8344600200653, 259.95128417015076, 260.06822514533997, 260.18488001823425, 260.3017511367798, 260.4185891151428, 260.53534507751465, 260.6521050930023, 260.7688241004944, 260.9912700653076]	[256.8874021410045, 257.0040688076645, 257.9870688076645, 258.1537688076645, 258.9037688076645, 259.02043547432453, 259.13710214098455, 259.2537688076446, 259.3704354743046, 259.4871021409646, 259.60376880762465, 259.72043547428467, 259.8371021409447, 259.9537688076047, 260.07043547426474, 260.18710214092476, 260.3037688075848, 260.4204354742448, 260.53710214090484, 260.65376880756486, 260.7704354742249, 261.00376880755823]	2021_Feb_02_1127	59.93472532623048	1	0.375
19	44	FALSE	NN	a	['W', 'E', 'V', 'M', 'C', 'Y', 'A', 'J', 'B', 'Z', 'U', 'G', 'N', 'K', 'T', 'S']	[2448, 904, 2245, 1224, 829, 2670, 697, 1029, 760, 2911, 2059, 944, 1335, 1122, 1888, 1731]	11	Absent	NA	NA	ABSENT	0.09445595741271973	262.9959349632263	265.0012969970703	265.934638436582	266.2846403439106	269.10763716697693	4.106340169906616	[263.0046730041504, 263.1213870048523, 264.0909562110901, 264.2729070186615, 265.02343821525574, 265.1403431892395, 265.2571940422058, 265.3737680912018, 265.4905321598053, 265.60758113861084, 265.7241630554199, 265.84089612960815, 265.9575672149658, 266.07455706596375, 266.1913001537323, 266.3082101345062, 266.42485213279724, 266.54175305366516, 266.6586380004883, 266.77516412734985, 266.8921711444855, 267.10763716697693]	[263.00376880755823, 263.12043547421825, 264.10343547421826, 264.27013547421825, 265.02013547421825, 265.1368021408783, 265.2534688075383, 265.3701354741983, 265.48680214085834, 265.60346880751837, 265.7201354741784, 265.8368021408384, 265.95346880749844, 266.07013547415846, 266.1868021408185, 266.3034688074785, 266.42013547413853, 266.53680214079856, 266.6534688074586, 266.7701354741186, 266.8868021407786, 267.120135474112]	2021_Feb_02_1127	59.93472532623048	1	0.375
19	45	FALSE	NN	a	['N', 'E', 'T', 'A', 'U', 'K', 'H', 'R', 'S', 'P', 'J', 'G', 'C', 'Y', 'W', 'V']	[1335, 904, 1888, 697, 2059, 1122, 986, 1587, 1731, 1456, 1029, 944, 829, 2670, 2448, 2245]	14	Absent	NA	NA	ABSENT	0.37952399253845215	269.1190950870514	271.1180319786072	272.40137341809884	272.7513753254275	275.22400403022766	4.105972051620483	[269.1278340816498, 269.24452900886536, 270.2073230743408, 270.3789141178131, 271.1467480659485, 271.24683904647827, 271.3633840084076, 271.4803190231323, 271.59709119796753, 271.7140371799469, 271.8306860923767, 271.9475140571594, 272.06424713134766, 272.18086314201355, 272.297621011734, 272.4144880771637, 272.53141617774963, 272.64817905426025, 272.7648551464081, 272.8818211555481, 272.9984140396118, 273.22400403022766]	[269.120135474112, 269.236802140772, 270.219802140772, 270.386502140772, 271.136502140772, 271.253168807432, 271.36983547409204, 271.48650214075207, 271.6031688074121, 271.7198354740721, 271.83650214073214, 271.95316880739216, 272.0698354740522, 272.1865021407122, 272.30316880737223, 272.41983547403225, 272.5365021406923, 272.6531688073523, 272.7698354740123, 272.88650214067235, 273.0031688073324, 273.2365021406657]	2021_Feb_02_1127	59.93472532623048	1	0.375
19	46	FALSE	NA	a	['C', 'B', 'Y', 'S', 'U', 'R', 'T', 'Z', 'A', 'H', 'K', 'W', 'N', 'X', 'G', 'P']	[829, 760, 2670, 1731, 2059, 1587, 1888, 2911, 697, 986, 1122, 2448, 1335, 4000, 944, 1456]	14	Present	NA	NA	PRESENT	0.1761269569396973	275.22589898109436	277.23429799079895	278.5176394302906	278.86764133761926	281.34037017822266	4.106072187423706	[275.2346382141113, 275.3511610031128, 276.32369017601013, 276.50226402282715, 277.2530541419983, 277.3697831630707, 277.4867191314697, 277.6033492088318, 277.72036719322205, 277.83705615997314, 277.9537661075592, 278.0706970691681, 278.18752121925354, 278.30422711372375, 278.42086815834045, 278.5378530025482, 278.6545431613922, 278.7713141441345, 278.8880310058594, 279.0048871040344, 279.1216781139374, 279.340371131897]	[275.2365021406657, 275.35316880732574, 276.33616880732575, 276.50286880732574, 277.25286880732574, 277.36953547398576, 277.4862021406458, 277.6028688073058, 277.71953547396583, 277.83620214062586, 277.9528688072859, 278.0695354739459, 278.18620214060593, 278.30286880726595, 278.419535473926, 278.536202140586, 278.652868807246, 278.76953547390605, 278.88620214056607, 279.0028688072261, 279.1195354738861, 279.35286880721947]	2021_Feb_02_1127	59.93472532623048	1	0.375
19	47	FALSE	NA	a	['R', 'Y', 'J', 'A', 'B', 'S', 'V', 'E', 'U', 'W', 'X', 'P', 'G', 'K', 'M', 'C']	[1587, 2670, 1029, 697, 760, 1731, 2245, 904, 2059, 2448, 4000, 1456, 944, 1122, 1224, 829]	11	Present	NA	NA	PRESENT	0.02946305274963379	281.34881806373596	283.3507430553436	284.28408330276244	284.6340854485096	287.4567370414734	4.105993986129761	[281.35755705833435, 281.4742681980133, 282.440062046051, 282.6254711151123, 283.37633419036865, 283.49288511276245, 283.60976099967957, 283.7265930175781, 283.8433451652527, 283.96034812927246, 284.07700419425964, 284.1937961578369, 284.31098318099976, 284.42718505859375, 284.5440011024475, 284.6609652042389, 284.7775890827179, 284.8944010734558, 285.01148104667664, 285.1280851364136, 285.22811818122864, 285.4567370414734]	[281.35286880721947, 281.4695354738795, 282.4525354738795, 282.6192354738795, 283.3692354738795, 283.4859021405395, 283.60256880719953, 283.71923547385956, 283.8359021405196, 283.9525688071796, 284.0692354738396, 284.18590214049965, 284.3025688071597, 284.4192354738197, 284.5359021404797, 284.65256880713974, 284.76923547379977, 284.8859021404598, 285.0025688071198, 285.11923547377984, 285.23590214043986, 285.4692354737732]	2021_Feb_02_1127	59.93472532623048	1	0.375
19	48	FALSE	NV	a	['B', 'A', 'S', 'Z', 'P', 'W', 'N', 'H', 'E', 'U', 'M', 'V', 'K', 'X', 'Y', 'J']	[760, 697, 1731, 2911, 1456, 2448, 1335, 986, 904, 2059, 1224, 2245, 1122, 4000, 2670, 1029]	14	Present	NA	NA	PRESENT	0.01000189781188964	287.4552080631256	289.46723198890686	290.7505734283985	291.10057533572717	293.5731031894684	4.105871200561523	[287.463947057724, 287.5805752277374, 288.5564241409302, 288.731929063797, 289.48269414901733, 289.5994510650635, 289.7164490222931, 289.8330512046814, 289.95002818107605, 290.06667304039, 290.1835482120514, 290.3002071380615, 290.4171211719513, 290.533949136734, 290.6506061553955, 290.7673120498657, 290.884220123291, 291.00079011917114, 291.1178710460663, 291.23454213142395, 291.35121417045593, 291.5731031894684]	[287.4692354737732, 287.58590214043323, 288.56890214043324, 288.73560214043323, 289.48560214043323, 289.60226880709325, 289.7189354737533, 289.8356021404133, 289.9522688070733, 290.06893547373335, 290.18560214039337, 290.3022688070534, 290.4189354737134, 290.53560214037344, 290.65226880703347, 290.7689354736935, 290.8856021403535, 291.00226880701354, 291.11893547367356, 291.2356021403336, 291.3522688069936, 291.58560214032696]	2021_Feb_02_1127	59.93472532623048	1	0.375
19	49	FALSE	AN	a	['M', 'V', 'B', 'W', 'surprise', 'G', 'U', 'N', 'Z', 'H', 'C', 'T', 'S', 'J', 'A', 'E']	[1224, 2245, 760, 2448, 'stimAuditory/all_stimAuditory/219.wav', 944, 2059, 1335, 2911, 986, 829, 1888, 1731, 1029, 697, 904]	8	Absent	stimAuditory/all_stimAuditory/122.wav	NA	ABSENT	0.03052186965942382	293.5781600475311	295.5831949710846	296.166535456942	296.5165373642706	299.6894700527191	4.1062750816345215	[293.5868990421295, 293.7038941383362, 294.6727900505066, 294.8554241657257, 295.6058371067047, 295.72277903556824, 295.8394331932068, 295.95636320114136, 296.07302618026733, 296.18987822532654, 296.3064751625061, 296.4234390258789, 296.54013299942017, 296.65713119506836, 296.7739062309265, 296.89058113098145, 297.0072650909424, 297.1240541934967, 297.2407832145691, 297.3575530052185, 297.4745810031891, 297.6894690990448]	[293.58560214032696, 293.702268806987, 294.685268806987, 294.851968806987, 295.601968806987, 295.718635473647, 295.835302140307, 295.95196880696705, 296.06863547362707, 296.1853021402871, 296.3019688069471, 296.41863547360714, 296.53530214026716, 296.6519688069272, 296.7686354735872, 296.88530214024723, 297.00196880690726, 297.1186354735673, 297.2353021402273, 297.3519688068873, 297.46863547354735, 297.7019688068807]	2021_Feb_02_1127	59.93472532623048	1	0.375
19	50	FALSE	NN	a	['M', 'A', 'Z', 'W', 'R', 'G', 'Y', 'E', 'U', 'P', 'S', 'V', 'K', 'J', 'T', 'C']	[1224, 697, 2911, 2448, 1587, 944, 2670, 904, 2059, 1456, 1731, 2245, 1122, 1029, 1888, 829]	11	Absent	NA	NA	ABSENT	0.0198369026184082	299.7014009952545	301.6997609138489	302.6331023533606	302.9831042606892	305.8058371543884	4.106076240539551	[299.71015214920044, 299.827091217041, 300.7891571521759, 300.96143412590027, 301.72922015190125, 301.82898211479187, 301.94605016708374, 302.0626211166382, 302.17963218688965, 302.2962260246277, 302.4129800796509, 302.5298490524292, 302.64663314819336, 302.76349401474, 302.88028621673584, 302.99707102775574, 303.11371517181396, 303.23059821128845, 303.3474311828613, 303.464164018631, 303.58106422424316, 303.8058371543884]	[299.7019688068807, 299.8186354735407, 300.8016354735407, 300.9683354735407, 301.7183354735407, 301.83500214020074, 301.95166880686077, 302.0683354735208, 302.1850021401808, 302.30166880684084, 302.41833547350086, 302.5350021401609, 302.6516688068209, 302.76833547348093, 302.88500214014095, 303.001668806801, 303.118335473461, 303.235002140121, 303.35166880678105, 303.4683354734411, 303.5850021401011, 303.81833547343444]	2021_Feb_02_1127	59.93472532623048	1	0.375
19	51	FALSE	NA	a	['P', 'K', 'M', 'W', 'C', 'H', 'T', 'S', 'J', 'V', 'R', 'A', 'U', 'X', 'G', 'B']	[1456, 1122, 1224, 2448, 829, 986, 1888, 1731, 1029, 2245, 1587, 697, 2059, 4000, 944, 760]	14	Present	NA	NA	PRESENT	0.11251401901245116	305.8083689212799	307.8162269592285	309.09956744504586	309.4495693523745	311.92220401763916	4.1059770584106445	[305.8171091079712, 305.93343019485474, 306.90552401542664, 307.08479499816895, 307.83549404144287, 307.9523231983185, 308.06893706321716, 308.18586802482605, 308.30266308784485, 308.41954803466797, 308.53620505332947, 308.65305519104004, 308.769837141037, 308.8866090774536, 309.0033531188965, 309.12014603614807, 309.2367990016937, 309.35380721092224, 309.47053623199463, 309.5874102115631, 309.7040162086487, 309.92220401763916]	[305.81833547343444, 305.93500214009447, 306.9180021400945, 307.08470214009446, 307.83470214009446, 307.9513688067545, 308.0680354734145, 308.18470214007453, 308.30136880673456, 308.4180354733946, 308.5347021400546, 308.65136880671463, 308.76803547337465, 308.8847021400347, 309.0013688066947, 309.1180354733547, 309.23470214001475, 309.35136880667477, 309.4680354733348, 309.5847021399948, 309.70136880665484, 309.9347021399882]	2021_Feb_02_1127	59.93472532623048	1	0.375
19	52	FALSE	NV	a	['Z', 'J', 'N', 'T', 'R', 'S', 'K', 'M', 'B', 'P', 'G', 'X', 'U', 'V', 'C', 'Y']	[2911, 1029, 1335, 1888, 1587, 1731, 1122, 1224, 760, 1456, 944, 4000, 2059, 2245, 829, 2670]	12	Present	NA	NA	PRESENT	0.1418440341949463	311.93114495277405	313.93248295783997	314.98249106401164	315.33249201766597	318.03857016563416	4.1060872077941895	[311.939884185791, 312.05655121803284, 313.02189207077026, 313.20804810523987, 313.9585840702057, 314.07549715042114, 314.19217801094055, 314.309002161026, 314.42593121528625, 314.5425100326538, 314.65929412841797, 314.77607703208923, 314.89306020736694, 315.00987100601196, 315.1097671985626, 315.2265441417694, 315.34371399879456, 315.4600419998169, 315.57683205604553, 315.6937081813812, 315.8104910850525, 316.03857016563416]	[311.9347021399882, 312.0513688066482, 313.0343688066482, 313.2010688066482, 313.9510688066482, 314.06773547330823, 314.18440213996826, 314.3010688066283, 314.4177354732883, 314.5344021399483, 314.65106880660835, 314.7677354732684, 314.8844021399284, 315.0010688065884, 315.11773547324844, 315.23440213990847, 315.3510688065685, 315.4677354732285, 315.58440213988854, 315.70106880654856, 315.8177354732086, 316.05106880654193]	2021_Feb_02_1127	59.93472532623048	1	0.375
19	53	FALSE	NA	a	['A', 'Z', 'R', 'J', 'K', 'G', 'M', 'C', 'N', 'Y', 'V', 'H', 'X', 'W', 'U', 'S']	[697, 2911, 1587, 1029, 1122, 944, 1224, 829, 1335, 2670, 2245, 986, 4000, 2448, 2059, 1731]	13	Present	NA	NA	PRESENT	0.24225187301635745	318.0375590324402	320.04891991615295	321.21559468898465	321.5655965963133	324.1549370288849	4.106017112731934	[318.04629921913147, 318.16309213638306, 319.13825821876526, 319.3144202232361, 320.0651161670685, 320.1819851398468, 320.29883909225464, 320.41545701026917, 320.5321412086487, 320.64904618263245, 320.76576805114746, 320.88264322280884, 320.9993290901184, 321.11629605293274, 321.2329740524292, 321.34994411468506, 321.4667592048645, 321.58357214927673, 321.7001202106476, 321.8170220851898, 321.9337592124939, 322.1549382209778]	[318.05106880654193, 318.16773547320196, 319.15073547320196, 319.31743547320195, 320.06743547320195, 320.184102139862, 320.300768806522, 320.417435473182, 320.53410213984205, 320.6507688065021, 320.7674354731621, 320.8841021398221, 321.00076880648214, 321.11743547314217, 321.2341021398022, 321.3507688064622, 321.46743547312224, 321.58410213978226, 321.7007688064423, 321.8174354731023, 321.93410213976233, 322.1674354730957]	2021_Feb_02_1127	59.93472532623048	1	0.375
19	54	FALSE	NA	a	['J', 'C', 'S', 'Y', 'T', 'Z', 'M', 'U', 'A', 'V', 'P', 'N', 'H', 'X', 'B', 'W']	[1029, 829, 1731, 2670, 1888, 2911, 1224, 2059, 697, 2245, 1456, 1335, 986, 4000, 760, 2448]	14	Present	NA	NA	PRESENT	0.0307159423828125	324.16073513031006	326.1653530597687	327.44869330716745	327.79869545291467	330.2713031768799	4.105950117111206	[324.16947412490845, 324.2863070964813, 325.25462317466736, 325.43798422813416, 326.18819403648376, 326.3050401210785, 326.4217641353607, 326.53876399993896, 326.65555810928345, 326.77229714393616, 326.88900899887085, 327.00591111183167, 327.1225891113281, 327.23958921432495, 327.35619711875916, 327.47304821014404, 327.58992409706116, 327.7065441608429, 327.8233880996704, 327.9401431083679, 328.0569372177124, 328.2713031768799]	[324.1674354730957, 324.2841021397557, 325.2671021397557, 325.4338021397557, 326.1838021397557, 326.3004688064157, 326.41713547307575, 326.53380213973577, 326.6504688063958, 326.7671354730558, 326.88380213971584, 327.00046880637586, 327.1171354730359, 327.2338021396959, 327.35046880635593, 327.46713547301596, 327.583802139676, 327.700468806336, 327.81713547299603, 327.93380213965605, 328.0504688063161, 328.2838021396494]	2021_Feb_02_1127	59.93472532623048	1	0.375
19	55	FALSE	NA	a	['V', 'E', 'W', 'S', 'T', 'H', 'N', 'R', 'P', 'X', 'M', 'B', 'K', 'J', 'Y', 'C']	[2245, 904, 2448, 1731, 1888, 986, 1335, 1587, 1456, 4000, 1224, 760, 1122, 1029, 2670, 829]	10	Present	NA	NA	PRESENT	0.24404597282409668	330.2838590145111	332.28141808509827	333.09809261953137	333.4480947652786	336.3876700401306	4.106251955032349	[330.2925980091095, 330.39256620407104, 331.370991230011, 331.5441560745239, 332.29465103149414, 332.4114601612091, 332.5284581184387, 332.64521312713623, 332.7620460987091, 332.87864804267883, 332.9955871105194, 333.11227321624756, 333.22899317741394, 333.3459300994873, 333.46255016326904, 333.57957315444946, 333.69644808769226, 333.81316804885864, 333.92977023124695, 334.04667615890503, 334.16328406333923, 334.3876712322235]	[330.2838021396494, 330.40046880630945, 331.38346880630945, 331.55016880630944, 332.30016880630944, 332.41683547296947, 332.5335021396295, 332.6501688062895, 332.76683547294954, 332.88350213960956, 333.0001688062696, 333.1168354729296, 333.23350213958963, 333.35016880624966, 333.4668354729097, 333.5835021395697, 333.7001688062297, 333.81683547288975, 333.9335021395498, 334.0501688062098, 334.1668354728698, 334.40016880620317]	2021_Feb_02_1127	59.93472532623048	1	0.375
19	56	FALSE	NN	a	['M', 'V', 'U', 'A', 'T', 'G', 'S', 'N', 'Z', 'W', 'J', 'R', 'P', 'C', 'Y', 'K']	[1224, 2245, 2059, 697, 1888, 944, 1731, 1335, 2911, 2448, 1029, 1587, 1456, 829, 2670, 1122]	9	Absent	NA	NA	ABSENT	0.11261296272277832	336.3907790184021	338.3979411125183	339.09794898029145	339.4479499339457	342.5040371417999	4.106096029281616	[336.3995192050934, 336.51596903800964, 337.4873561859131, 337.66720604896545, 338.41783714294434, 338.53474617004395, 338.6513681411743, 338.76835012435913, 338.8850221633911, 339.00193309783936, 339.11876821517944, 339.2356081008911, 339.3521990776062, 339.4691491127014, 339.58580112457275, 339.70255517959595, 339.819461107254, 339.9363601207733, 340.05301308631897, 340.16982102394104, 340.28651905059814, 340.5040371417999]	[336.40016880620317, 336.5168354728632, 337.4998354728632, 337.6665354728632, 338.4165354728632, 338.5332021395232, 338.64986880618324, 338.76653547284326, 338.8832021395033, 338.9998688061633, 339.11653547282333, 339.23320213948335, 339.3498688061434, 339.4665354728034, 339.5832021394634, 339.69986880612345, 339.81653547278347, 339.9332021394435, 340.0498688061035, 340.16653547276354, 340.28320213942357, 340.5165354727569]	2021_Feb_02_1127	59.93472532623048	1	0.375
19	57	FALSE	NV	a	['Z', 'W', 'R', 'A', 'K', 'J', 'E', 'C', 'N', 'X', 'Y', 'H', 'U', 'B', 'S', 'G']	[2911, 2448, 1587, 697, 1122, 1029, 904, 829, 1335, 4000, 2670, 986, 2059, 760, 1731, 944]	10	Present	NA	NA	PRESENT	0.03795909881591797	342.5136160850525	344.5144090652466	345.3310835996797	345.6810847917526	348.62040400505066	4.105994939804077	[342.5223550796509, 342.63908100128174, 343.60372614860535, 343.7902801036835, 344.54095220565796, 344.65776205062866, 344.7748191356659, 344.89154720306396, 344.99144220352173, 345.10827016830444, 345.2250280380249, 345.3418810367584, 345.4585750102997, 345.57541513442993, 345.6922810077667, 345.80898809432983, 345.9258210659027, 346.04260301589966, 346.15940403938293, 346.2764551639557, 346.39303612709045, 346.62040400505066]	[342.5165354727569, 342.63320213941694, 343.61620213941694, 343.78290213941693, 344.53290213941693, 344.64956880607696, 344.766235472737, 344.882902139397, 344.999568806057, 345.11623547271705, 345.2329021393771, 345.3495688060371, 345.4662354726971, 345.58290213935715, 345.69956880601717, 345.8162354726772, 345.9329021393372, 346.04956880599724, 346.16623547265726, 346.2829021393173, 346.3995688059773, 346.63290213931066]	2021_Feb_02_1127	59.93472532623048	1	0.375
19	58	FALSE	NA	a	['R', 'K', 'S', 'N', 'Y', 'A', 'E', 'X', 'Z', 'H', 'V', 'W', 'G', 'U', 'M', 'C']	[1587, 1122, 1731, 1335, 2670, 697, 904, 4000, 2911, 986, 2245, 2448, 944, 2059, 1224, 829]	8	Present	NA	NA	PRESENT	0.08265995979309082	348.62005591392517	350.6306610107422	351.2140024502739	351.5640043576025	354.73677015304565	4.106109142303467	[348.62879514694214, 348.745637178421, 349.72009205818176, 349.8969461917877, 350.64754700660706, 350.76425218582153, 350.8811800479889, 350.99795508384705, 351.11460423469543, 351.2314450740814, 351.34826922416687, 351.4650831222534, 351.5817971229553, 351.6988401412964, 351.81539011001587, 351.9323570728302, 352.04907417297363, 352.16598200798035, 352.2826290130615, 352.3993492126465, 352.51620221138, 352.73677015304565]	[348.63290213931066, 348.7495688059707, 349.7325688059707, 349.8992688059707, 350.6492688059707, 350.7659354726307, 350.8826021392907, 350.99926880595075, 351.1159354726108, 351.2326021392708, 351.3492688059308, 351.46593547259084, 351.58260213925087, 351.6992688059109, 351.8159354725709, 351.93260213923094, 352.04926880589096, 352.165935472551, 352.282602139211, 352.39926880587103, 352.51593547253105, 352.7492688058644]	2021_Feb_02_1127	59.93472532623048	1	0.375
19	59	FALSE	NV	a	['B', 'P', 'J', 'A', 'K', 'R', 'Y', 'V', 'X', 'W', 'E', 'Z', 'U', 'T', 'G', 'H']	[760, 1456, 1029, 697, 1122, 1587, 2670, 2245, 4000, 2448, 904, 2911, 2059, 1888, 944, 986]	9	Present	NA	NA	PRESENT	0.1189439296722412	354.7432930469513	356.747111082077	357.44711799617585	357.797120141923	360.8531370162964	4.10602593421936	[354.7520320415497, 354.86869502067566, 355.8364591598511, 356.0200471878052, 356.7711100578308, 356.88749718666077, 357.00427412986755, 357.12106704711914, 357.2378511428833, 357.3547902107239, 357.4715051651001, 357.5881462097168, 357.7050950527191, 357.82192301750183, 357.93875908851624, 358.05535101890564, 358.1723110675812, 358.2890660762787, 358.4058470726013, 358.5227482318878, 358.6395330429077, 358.8531382083893]	[354.7492688058644, 354.8659354725244, 355.84893547252443, 356.0156354725244, 356.7656354725244, 356.88230213918445, 356.99896880584447, 357.1156354725045, 357.2323021391645, 357.34896880582454, 357.46563547248456, 357.5823021391446, 357.6989688058046, 357.81563547246463, 357.93230213912466, 358.0489688057847, 358.1656354724447, 358.28230213910473, 358.39896880576475, 358.5156354724248, 358.6323021390848, 358.86563547241815]	2021_Feb_02_1127	59.93472532623048	1	0.375
19	60	FALSE	NV	a	['E', 'J', 'S', 'N', 'P', 'V', 'A', 'M', 'Z', 'G', 'H', 'W', 'X', 'T', 'C', 'K']	[904, 1029, 1731, 1335, 1456, 2245, 697, 1224, 2911, 944, 986, 2448, 4000, 1888, 829, 1122]	13	Present	NA	NA	PRESENT	0.10846495628356934	360.8663201332092	362.8635399341583	364.03021470699	364.3802166143186	366.9695031642914	4.105963230133057	[360.87506222724915, 360.97508907318115, 361.9528241157532, 362.1265981197357, 362.8771450519562, 362.99402022361755, 363.11089515686035, 363.2275390625, 363.34423303604126, 363.46114921569824, 363.5778410434723, 363.6947600841522, 363.8113992214203, 363.92843103408813, 364.04521107673645, 364.16204810142517, 364.27885723114014, 364.39553213119507, 364.5121991634369, 364.6291160583496, 364.74587202072144, 364.9695031642914]	[360.86563547241815, 360.9823021390782, 361.9653021390782, 362.13200213907817, 362.88200213907817, 362.9986688057382, 363.1153354723982, 363.23200213905824, 363.34866880571826, 363.4653354723783, 363.5820021390383, 363.69866880569833, 363.81533547235836, 363.9320021390184, 364.0486688056784, 364.1653354723384, 364.28200213899845, 364.3986688056585, 364.5153354723185, 364.6320021389785, 364.74866880563854, 364.9820021389719]	2021_Feb_02_1127	59.93472532623048	1	0.375
19	61	FALSE	AV	a	['A', 'R', 'C', 'Y', 'E', 'J', 'B', 'V', 'H', 'surprise', 'Z', 'S', 'X', 'K', 'P', 'N']	[697, 1587, 829, 2670, 904, 1029, 760, 2245, 986, 'stimAuditory/all_stimAuditory/218.wav', 2911, 1731, 4000, 1122, 1456, 1335]	13	Present	stimAuditory/all_stimAuditory/221.wav	NA	PRESENT	0.14467501640319824	366.9732220172882	368.9800629615784	370.1467386880844	370.49674059541303	373.0858700275421	4.105807065963745	[366.9819622039795, 367.09842705726624, 368.0691900253296, 368.24964904785156, 369.00033807754517, 369.1172831058502, 369.2338161468506, 369.3508040904999, 369.4675102233887, 369.584361076355, 369.70117020606995, 369.8179380893707, 369.93474817276, 370.0515630245209, 370.1683142185211, 370.2850430011749, 370.4019730091095, 370.5188190937042, 370.63547801971436, 370.75224709510803, 370.86907601356506, 371.0858700275421]	[366.9820021389719, 367.0986688056319, 368.0816688056319, 368.2483688056319, 368.9983688056319, 369.11503547229194, 369.23170213895196, 369.348368805612, 369.465035472272, 369.58170213893203, 369.69836880559205, 369.8150354722521, 369.9317021389121, 370.0483688055721, 370.16503547223215, 370.2817021388922, 370.3983688055522, 370.5150354722122, 370.63170213887224, 370.74836880553227, 370.8650354721923, 371.09836880552564]	2021_Feb_02_1127	59.93472532623048	1	0.375
19	62	FALSE	NA	a	['J', 'B', 'H', 'P', 'V', 'Z', 'T', 'E', 'R', 'X', 'M', 'N', 'U', 'S', 'W', 'Y']	[1029, 760, 986, 1456, 2245, 2911, 1888, 904, 1587, 4000, 1224, 1335, 2059, 1731, 2448, 2670]	10	Present	NA	NA	PRESENT	0.05415201187133789	373.0961079597473	375.0962209701538	375.9128957430055	376.26289765033414	379.2022371292114	4.106016159057617	[373.1048471927643, 373.22175002098083, 374.1855580806732, 374.3729040622711, 375.1236262321472, 375.2236051559448, 375.3402371406555, 375.45705819129944, 375.5738470554352, 375.6906740665436, 375.8074641227722, 375.9242582321167, 376.0410602092743, 376.1578571796417, 376.27491903305054, 376.3914940357208, 376.5082700252533, 376.6250422000885, 376.74185705184937, 376.8587591648102, 376.97563314437866, 377.2022371292114]	[373.09836880552564, 373.21503547218566, 374.19803547218567, 374.36473547218566, 375.11473547218566, 375.2314021388457, 375.3480688055057, 375.4647354721657, 375.58140213882575, 375.6980688054858, 375.8147354721458, 375.9314021388058, 376.04806880546585, 376.16473547212587, 376.2814021387859, 376.3980688054459, 376.51473547210594, 376.63140213876596, 376.748068805426, 376.864735472086, 376.98140213874603, 377.2147354720794]	2021_Feb_02_1127	59.93472532623048	1	0.375
19	63	FALSE	NA	a	['B', 'G', 'R', 'H', 'Y', 'M', 'W', 'N', 'E', 'J', 'X', 'T', 'C', 'V', 'A', 'Z']	[760, 944, 1587, 986, 2670, 1224, 2448, 1335, 904, 1029, 4000, 1888, 829, 2245, 697, 2911]	11	Present	NA	NA	PRESENT	0.09876084327697754	379.20254397392273	381.21259593963623	382.14593737914794	382.4959392864765	385.31860423088074	4.106008291244507	[379.2112832069397, 379.3280551433563, 380.3019242286682, 380.47917914390564, 381.2301242351532, 381.34693002700806, 381.4637770652771, 381.580491065979, 381.69709515571594, 381.814090013504, 381.9307131767273, 382.04761815071106, 382.1643180847168, 382.28121614456177, 382.3978941440582, 382.51457023620605, 382.63141417503357, 382.7483580112457, 382.86499309539795, 382.9819691181183, 383.0987341403961, 383.31860423088074]	[379.2147354720794, 379.3314021387394, 380.3144021387394, 380.4811021387394, 381.2311021387394, 381.3477688053994, 381.46443547205945, 381.5811021387195, 381.6977688053795, 381.8144354720395, 381.93110213869954, 382.04776880535957, 382.1644354720196, 382.2811021386796, 382.39776880533964, 382.51443547199966, 382.6311021386597, 382.7477688053197, 382.86443547197973, 382.98110213863976, 383.0977688052998, 383.3311021386331]	2021_Feb_02_1127	59.93472532623048	1	0.375
19	64	FALSE	NV	a	['B', 'G', 'P', 'U', 'V', 'N', 'J', 'H', 'Y', 'W', 'A', 'M', 'X', 'K', 'Z', 'T']	[760, 944, 1456, 2059, 2245, 1335, 1029, 986, 2670, 2448, 697, 1224, 4000, 1122, 2911, 1888]	13	Present	NA	NA	PRESENT	0.19916296005249023	385.3257400989533	387.32890701293945	388.4955817857711	388.8455827394255	391.4349701404571	4.1060631275177	[385.33448004722595, 385.4512631893158, 386.41829013824463, 386.6028320789337, 387.3532781600952, 387.47010111808777, 387.5868170261383, 387.703574180603, 387.820433139801, 387.9369840621948, 388.0538921356201, 388.1706430912018, 388.2874331474304, 388.40437507629395, 388.52108502388, 388.6378381252289, 388.75472712516785, 388.87132501602173, 388.98831701278687, 389.10509610176086, 389.2219660282135, 389.43497014045715]	[385.3311021386331, 385.44776880529315, 386.43076880529316, 386.59746880529315, 387.34746880529315, 387.46413547195317, 387.5808021386132, 387.6974688052732, 387.81413547193324, 387.93080213859326, 388.0474688052533, 388.1641354719133, 388.28080213857334, 388.39746880523336, 388.5141354718934, 388.6308021385534, 388.74746880521343, 388.86413547187345, 388.9808021385335, 389.0974688051935, 389.2141354718535, 389.4474688051869]	2021_Feb_02_1127	59.93472532623048	1	0.375
19	65	FALSE	NA	a	['A', 'R', 'U', 'N', 'E', 'G', 'H', 'T', 'K', 'Y', 'X', 'S', 'P', 'W', 'C', 'J']	[697, 1587, 2059, 1335, 904, 944, 986, 1888, 1122, 2670, 4000, 1731, 1456, 2448, 829, 1029]	11	Present	NA	NA	PRESENT	0.01278614997863769	391.4320011138916	393.4452741146088	394.3786143620276	394.72861626935617	397.5513370037079	4.106062889099121	[391.44074010849, 391.55762004852295, 392.53465819358826, 392.7089591026306, 393.45954513549805, 393.5764970779419, 393.6933841705322, 393.81018805503845, 393.92674708366394, 394.0436451435089, 394.16029119491577, 394.27722120285034, 394.39405822753906, 394.5107650756836, 394.62746119499207, 394.7443950176239, 394.86111521720886, 394.97789216041565, 395.09474420547485, 395.21172404289246, 395.32834100723267, 395.5513370037079]	[391.4474688051869, 391.5641354718469, 392.5471354718469, 392.7138354718469, 393.4638354718469, 393.5805021385069, 393.69716880516694, 393.81383547182696, 393.930502138487, 394.047168805147, 394.16383547180703, 394.28050213846706, 394.3971688051271, 394.5138354717871, 394.6305021384471, 394.74716880510715, 394.8638354717672, 394.9805021384272, 395.0971688050872, 395.21383547174725, 395.33050213840727, 395.5638354717406]	2021_Feb_02_1127	59.93472532623048	1	0.375
19	66	FALSE	NV	a	['K', 'Z', 'N', 'M', 'Y', 'T', 'G', 'S', 'E', 'U', 'P', 'J', 'R', 'X', 'B', 'V']	[1122, 2911, 1335, 1224, 2670, 1888, 944, 1731, 904, 2059, 1456, 1029, 1587, 4000, 760, 2245]	14	Present	NA	NA	PRESENT	0.11310410499572754	397.5556900501251	399.5616281032562	400.8449693043293	401.19497145007654	403.6677041053772	4.106076002120972	[397.5644299983978, 397.6809220314026, 398.651025056839, 398.8319911956787, 399.58269000053406, 399.6997780799866, 399.81655502319336, 399.93327617645264, 400.0500361919403, 400.1665692329407, 400.2835302352905, 400.4003551006317, 400.5171332359314, 400.63405108451843, 400.7508170604706, 400.8676481246948, 400.9843420982361, 401.1012182235718, 401.2180371284485, 401.3345742225647, 401.45166206359863, 401.6677031517029]	[397.5638354717406, 397.68050213840064, 398.66350213840064, 398.83020213840064, 399.58020213840064, 399.69686880506066, 399.8135354717207, 399.9302021383807, 400.04686880504073, 400.16353547170075, 400.2802021383608, 400.3968688050208, 400.5135354716808, 400.63020213834085, 400.7468688050009, 400.8635354716609, 400.9802021383209, 401.09686880498094, 401.21353547164097, 401.330202138301, 401.446868804961, 401.68020213829436]	2021_Feb_02_1127	59.93472532623048	1	0.375
19	67	FALSE	NA	a	['Y', 'J', 'Z', 'B', 'H', 'N', 'S', 'T', 'X', 'G', 'M', 'A', 'W', 'E', 'C', 'R']	[2670, 1029, 2911, 760, 986, 1335, 1731, 1888, 4000, 944, 1224, 697, 2448, 904, 829, 1587]	9	Present	NA	NA	PRESENT	0.2064359188079834	403.678337097168	405.6783549785614	406.3783621310788	406.7283640384074	409.7840700149536	4.105715036392212	[403.68707609176636, 403.80401706695557, 404.76738810539246, 404.9551901817322, 405.7060270309448, 405.8060450553894, 405.9227731227875, 406.03955602645874, 406.1563889980316, 406.27323818206787, 406.38986015319824, 406.50679302215576, 406.6235411167145, 406.74043107032776, 406.8570442199707, 406.973993062973, 407.09084916114807, 407.20772218704224, 407.32459115982056, 407.4412031173706, 407.55788922309875, 407.7840700149536]	[403.68020213829436, 403.7968688049544, 404.7798688049544, 404.9465688049544, 405.6965688049544, 405.8132354716144, 405.92990213827443, 406.04656880493445, 406.1632354715945, 406.2799021382545, 406.3965688049145, 406.51323547157455, 406.62990213823457, 406.7465688048946, 406.8632354715546, 406.97990213821464, 407.09656880487466, 407.2132354715347, 407.3299021381947, 407.44656880485473, 407.56323547151476, 407.7965688048481]	2021_Feb_02_1127	59.93472532623048	1	0.375
19	68	FALSE	NN	a	['E', 'S', 'H', 'C', 'W', 'N', 'G', 'T', 'B', 'J', 'R', 'A', 'K', 'Y', 'Z', 'U']	[904, 1731, 986, 829, 2448, 1335, 944, 1888, 760, 1029, 1587, 697, 1122, 2670, 2911, 2059]	11	Absent	NA	NA	ABSENT	0.2588338851928711	409.7849540710449	411.794378042221	412.7277182896399	413.07772043538705	415.9004371166229	4.1060590744018555	[409.7936930656433, 409.9104962348938, 410.8837571144104, 411.0615510940552, 411.8125340938568, 411.92941904067993, 412.04596519470215, 412.1627721786499, 412.2796401977539, 412.3964991569519, 412.5130920410156, 412.6300151348114, 412.7468421459198, 412.86363911628723, 412.9803190231323, 413.09729409217834, 413.2140130996704, 413.3308620452881, 413.4476020336151, 413.5643072128296, 413.6812222003937, 413.9004371166229]	[409.7965688048481, 409.91323547150813, 410.89623547150813, 411.0629354715081, 411.8129354715081, 411.92960213816815, 412.0462688048282, 412.1629354714882, 412.2796021381482, 412.39626880480824, 412.51293547146827, 412.6296021381283, 412.7462688047883, 412.86293547144834, 412.97960213810836, 413.0962688047684, 413.2129354714284, 413.32960213808843, 413.44626880474846, 413.5629354714085, 413.6796021380685, 413.91293547140185]	2021_Feb_02_1127	59.93472532623048	1	0.375
19	69	FALSE	NV	a	['C', 'E', 'Y', 'H', 'P', 'J', 'Z', 'W', 'G', 'S', 'K', 'X', 'M', 'B', 'T', 'A']	[829, 904, 2670, 986, 1456, 1029, 2911, 2448, 944, 1731, 1122, 4000, 1224, 760, 1888, 697]	12	Present	NA	NA	PRESENT	0.03952908515930176	415.9081151485443	417.91078209877014	418.9607899665232	419.31079211227046	422.01680421829224	4.106022119522095	[415.9168541431427, 416.03354501724243, 417.000125169754, 417.1847360134125, 417.9359061717987, 418.0524492263794, 418.1693592071533, 418.28606820106506, 418.40282821655273, 418.5196180343628, 418.63646507263184, 418.7531831264496, 418.87000823020935, 418.9867830276489, 419.1035702228546, 419.2202830314636, 419.3371720314026, 419.45384311676025, 419.57083106040955, 419.68749809265137, 419.8044891357422, 420.01680302619934]	[415.91293547140185, 416.0296021380619, 417.0126021380619, 417.17930213806187, 417.92930213806187, 418.0459688047219, 418.1626354713819, 418.27930213804194, 418.39596880470197, 418.512635471362, 418.629302138022, 418.74596880468204, 418.86263547134206, 418.9793021380021, 419.0959688046621, 419.21263547132213, 419.32930213798215, 419.4459688046422, 419.5626354713022, 419.6793021379622, 419.79596880462225, 420.0293021379556]	2021_Feb_02_1127	59.93472532623048	1	0.375
19	70	FALSE	NA	a	['H', 'A', 'Z', 'G', 'T', 'V', 'Y', 'X', 'J', 'B', 'U', 'W', 'C', 'S', 'P', 'M']	[986, 697, 2911, 944, 1888, 2245, 2670, 4000, 1029, 760, 2059, 2448, 829, 1731, 1456, 1224]	8	Present	NA	NA	PRESENT	0.2047700881958008	422.01442408561707	424.0271050930023	424.6104453404411	424.96044724776976	428.13317012786865	4.106065034866333	[422.02316212654114, 422.1400430202484, 423.1164901256561, 423.2911810874939, 424.0419352054596, 424.15902614593506, 424.2758250236511, 424.3925530910492, 424.5091941356659, 424.6261270046234, 424.7428572177887, 424.8597822189331, 424.97636318206787, 425.093327999115, 425.2099940776825, 425.32674503326416, 425.4436240196228, 425.56023812294006, 425.6772131919861, 425.79381704330444, 425.91069507598877, 426.13317012786865]	[422.0293021379556, 422.1459688046156, 423.1289688046156, 423.2956688046156, 424.0456688046156, 424.16233547127564, 424.27900213793566, 424.3956688045957, 424.5123354712557, 424.62900213791573, 424.74566880457576, 424.8623354712358, 424.9790021378958, 425.0956688045558, 425.21233547121585, 425.3290021378759, 425.4456688045359, 425.5623354711959, 425.67900213785595, 425.79566880451597, 425.912335471176, 426.14566880450934]	2021_Feb_02_1127	59.93472532623048	1	0.375
19	71	FALSE	NN	a	['H', 'C', 'E', 'G', 'N', 'Z', 'V', 'A', 'M', 'U', 'K', 'Y', 'S', 'P', 'B', 'W']	[986, 829, 904, 944, 1335, 2911, 2245, 697, 1224, 2059, 1122, 2670, 1731, 1456, 760, 2448]	8	Absent	NA	NA	ABSENT	0.20960211753845215	428.1382420063019	430.1432650089264	430.7266064484581	431.0766074021124	434.2495372295379	4.106272220611572	[428.14698219299316, 428.263375043869, 429.23285603523254, 429.41441106796265, 430.1652100086212, 430.28204321861267, 430.3988502025604, 430.5158271789551, 430.6325731277466, 430.7493050098419, 430.86616611480713, 430.9829921722412, 431.09960412979126, 431.2164261341095, 431.333190202713, 431.45005106925964, 431.56680607795715, 431.6836221218109, 431.80023407936096, 431.9170401096344, 432.0340280532837, 432.2495381832123]	[428.14566880450934, 428.26233547116937, 429.24533547116937, 429.41203547116936, 430.16203547116936, 430.2787021378294, 430.3953688044894, 430.51203547114943, 430.62870213780946, 430.7453688044695, 430.8620354711295, 430.9787021377895, 431.09536880444955, 431.2120354711096, 431.3287021377696, 431.4453688044296, 431.56203547108964, 431.67870213774967, 431.7953688044097, 431.9120354710697, 432.02870213772974, 432.2620354710631]	2021_Feb_02_1127	59.93472532623048	1	0.375
19	72	FALSE	NV	a	['N', 'A', 'S', 'J', 'Y', 'W', 'R', 'K', 'M', 'T', 'C', 'B', 'P', 'X', 'U', 'Z']	[1335, 697, 1731, 1029, 2670, 2448, 1587, 1122, 1224, 1888, 829, 760, 1456, 4000, 2059, 2911]	14	Present	NA	NA	PRESENT	0.1987519264221191	434.2609009742737	436.259871006012	437.54321339917794	437.8932143528323	440.3659031391144	4.106032133102417	[434.26964020729065, 434.3864231109619, 435.34922313690186, 435.52087903022766, 436.28846621513367, 436.3886721134186, 436.50523710250854, 436.6221261024475, 436.73882603645325, 436.8557710647583, 436.9726052284241, 437.08938121795654, 437.2060182094574, 437.3231780529022, 437.4394872188568, 437.5565001964569, 437.6731722354889, 437.79005217552185, 437.90682101249695, 438.02360010147095, 438.14036107063293, 438.3659031391144]	[434.2620354710631, 434.3787021377231, 435.3617021377231, 435.5284021377231, 436.2784021377231, 436.39506880438313, 436.51173547104315, 436.6284021377032, 436.7450688043632, 436.8617354710232, 436.97840213768325, 437.09506880434327, 437.2117354710033, 437.3284021376633, 437.44506880432334, 437.56173547098336, 437.6784021376434, 437.7950688043034, 437.91173547096344, 438.02840213762346, 438.1450688042835, 438.37840213761683]	2021_Feb_02_1127	59.93472532623048	1	0.375
19	73	FALSE	NV	a	['T', 'Z', 'M', 'S', 'R', 'W', 'V', 'G', 'J', 'A', 'Y', 'E', 'X', 'P', 'N', 'B']	[1888, 2911, 1224, 1731, 1587, 2448, 2245, 944, 1029, 697, 2670, 904, 4000, 1456, 1335, 760]	13	Present	NA	NA	PRESENT	0.0352640151977539	440.36726808547974	442.3764660358429	443.5431408086746	443.8931427160032	446.4822700023651	4.105803966522217	[440.37600803375244, 440.49285411834717, 441.4655911922455, 441.64401721954346, 442.3948700428009, 442.51181507110596, 442.62843108177185, 442.74514412879944, 442.8621401786804, 442.97898507118225, 443.0956861972809, 443.2125291824341, 443.3293900489807, 443.4459500312805, 443.56291103363037, 443.67953610420227, 443.79629921913147, 443.913045167923, 444.03008008003235, 444.1466610431671, 444.2635841369629, 444.4822700023651]	[440.37840213761683, 440.49506880427685, 441.47806880427686, 441.64476880427685, 442.39476880427685, 442.5114354709369, 442.6281021375969, 442.7447688042569, 442.86143547091694, 442.97810213757697, 443.094768804237, 443.211435470897, 443.32810213755704, 443.44476880421706, 443.5614354708771, 443.6781021375371, 443.79476880419713, 443.91143547085716, 444.0281021375172, 444.1447688041772, 444.2614354708372, 444.4947688041706]	2021_Feb_02_1127	59.93472532623048	1	0.375
19	74	FALSE	NV	a	['J', 'H', 'E', 'S', 'C', 'Z', 'U', 'Y', 'V', 'G', 'W', 'B', 'K', 'X', 'M', 'T']	[1029, 986, 904, 1731, 829, 2911, 2059, 2670, 2245, 944, 2448, 760, 1122, 4000, 1224, 1888]	14	Present	NA	NA	PRESENT	0.2006831169128418	446.49063301086426	448.49257493019104	449.7759163696827	450.12591732333703	452.5986371040344	4.106062173843384	[446.49937200546265, 446.61622309684753, 447.5819571018219, 447.7676131725311, 448.5180752277374, 448.63497400283813, 448.75177812576294, 448.8685700893402, 448.9854121208191, 449.10193610191345, 449.2189621925354, 449.3356091976166, 449.4525010585785, 449.5691890716553, 449.6859931945801, 449.8028612136841, 449.91952300071716, 450.0364501476288, 450.153085231781, 450.2530691623688, 450.3698921203613, 450.5986371040344]	[446.4947688041706, 446.6114354708306, 447.5944354708306, 447.7611354708306, 448.5111354708306, 448.6278021374906, 448.74446880415064, 448.86113547081067, 448.9778021374707, 449.0944688041307, 449.21113547079074, 449.32780213745076, 449.4444688041108, 449.5611354707708, 449.67780213743083, 449.79446880409085, 449.9111354707509, 450.0278021374109, 450.1444688040709, 450.26113547073095, 450.377802137391, 450.6111354707243]	2021_Feb_02_1127	59.93472532623048	1	0.375
19	75	FALSE	NA	a	['N', 'V', 'Z', 'R', 'U', 'P', 'A', 'W', 'S', 'Y', 'X', 'K', 'T', 'C', 'H', 'J']	[1335, 2245, 2911, 1587, 2059, 1456, 697, 2448, 1731, 2670, 4000, 1122, 1888, 829, 986, 1029]	11	Present	NA	NA	PRESENT	0.14125895500183103	452.5968809127808	454.6089920997619	455.5423333008551	455.89233544660226	458.71500515937805	4.106013059616089	[452.6056191921234, 452.7224791049957, 453.6983242034912, 453.8736071586609, 454.6245632171631, 454.7414300441742, 454.8581941127777, 454.97508811950684, 455.0916590690613, 455.2086751461029, 455.32546305656433, 455.4420611858368, 455.5589120388031, 455.675626039505, 455.79253101348877, 455.9092390537262, 456.02595114707947, 456.1428611278534, 456.2596650123596, 456.3764591217041, 456.49319219589233, 456.71500420570374]	[452.6111354707243, 452.72780213738434, 453.71080213738435, 453.87750213738434, 454.62750213738434, 454.74416880404436, 454.8608354707044, 454.9775021373644, 455.09416880402443, 455.21083547068446, 455.3275021373445, 455.4441688040045, 455.56083547066453, 455.67750213732455, 455.7941688039846, 455.9108354706446, 456.0275021373046, 456.14416880396465, 456.26083547062467, 456.3775021372847, 456.4941688039447, 456.72750213727807]	2021_Feb_02_1127	59.93472532623048	1	0.375
19	76	FALSE	NA	a	['K', 'S', 'J', 'N', 'E', 'U', 'G', 'R', 'X', 'V', 'A', 'T', 'Y', 'Z', 'C', 'W']	[1122, 1731, 1029, 1335, 904, 2059, 944, 1587, 4000, 2245, 697, 1888, 2670, 2911, 829, 2448]	9	Present	NA	NA	PRESENT	0.35355496406555176	458.72059297561646	460.7252860069275	461.4252929210263	461.7752950667735	464.83137011528015	4.106084108352661	[458.72933316230774, 458.84574723243713, 459.8146901130676, 459.9967911243439, 460.74776005744934, 460.8646020889282, 460.98137617111206, 461.09806203842163, 461.21483302116394, 461.33167815208435, 461.44864320755005, 461.56522703170776, 461.6821701526642, 461.79875802993774, 461.9157280921936, 462.03238320350647, 462.14909505844116, 462.26575112342834, 462.3826801776886, 462.49948501586914, 462.61633706092834, 462.83137011528015]	[458.72750213727807, 458.8441688039381, 459.8271688039381, 459.9938688039381, 460.7438688039381, 460.8605354705981, 460.97720213725813, 461.09386880391816, 461.2105354705782, 461.3272021372382, 461.4438688038982, 461.56053547055825, 461.6772021372183, 461.7938688038783, 461.9105354705383, 462.02720213719834, 462.14386880385837, 462.2605354705184, 462.3772021371784, 462.49386880383844, 462.61053547049846, 462.8438688038318]	2021_Feb_02_1127	59.93472532623048	1	0.375
19	77	FALSE	NV	a	['H', 'Z', 'M', 'W', 'Y', 'T', 'G', 'K', 'E', 'B', 'S', 'C', 'P', 'X', 'N', 'V']	[986, 2911, 1224, 2448, 2670, 1888, 944, 1122, 904, 760, 1731, 829, 1456, 4000, 1335, 2245]	14	Present	NA	NA	PRESENT	0.2308650016784668	464.8434500694275	466.84177708625793	468.125118287331	468.47512043307825	470.94773721694946	4.105960130691528	[464.8521900177002, 464.9689562320709, 465.93105816841125, 466.1033010482788, 466.87093114852905, 466.9711060523987, 467.08786606788635, 467.2046642303467, 467.32141518592834, 467.43822503089905, 467.55485820770264, 467.67178106307983, 467.78845500946045, 467.9053452014923, 468.02203011512756, 468.1390290260315, 468.2559061050415, 468.37235617637634, 468.48928904533386, 468.6059801578522, 468.7228960990906, 468.94773721694946]	[464.8438688038318, 464.96053547049183, 465.94353547049184, 466.11023547049183, 466.86023547049183, 466.97690213715185, 467.0935688038119, 467.2102354704719, 467.3269021371319, 467.44356880379195, 467.56023547045197, 467.676902137112, 467.793568803772, 467.91023547043204, 468.02690213709207, 468.1435688037521, 468.2602354704121, 468.37690213707214, 468.49356880373216, 468.6102354703922, 468.7269021370522, 468.96023547038556]	2021_Feb_02_1127	59.93472532623048	1	0.375
19	78	FALSE	VV	a	['J', 'V', 'H', 'Z', 'A', 'C', 'S', 'Y', 'surprise', 'T', 'N', 'X', 'P', 'R', 'E', 'G']	[1029, 2245, 986, 2911, 697, 829, 1731, 2670, 'stimAuditory/all_stimAuditory/115.wav', 1888, 1335, 4000, 1456, 1587, 904, 944]	12	Present	NA	NA	PRESENT	0.2434508800506592	470.949697971344	472.9580340385437	474.0080421447154	474.358044052044	477.0641031265259	4.106069087982178	[470.95843720436096, 471.07544803619385, 472.04742312431335, 472.22675108909607, 472.9773290157318, 473.0940442085266, 473.2110731601715, 473.3278012275696, 473.44460821151733, 473.5614230632782, 473.67815113067627, 473.7949481010437, 473.91177701950073, 474.0284571647644, 474.1453711986542, 474.2620470523834, 474.3790202140808, 474.4955220222473, 474.6125020980835, 474.7290470600128, 474.8460590839386, 475.0641040802002]	[470.96023547038556, 471.0769021370456, 472.0599021370456, 472.2266021370456, 472.9766021370456, 473.0932688037056, 473.2099354703656, 473.32660213702565, 473.44326880368567, 473.5599354703457, 473.6766021370057, 473.79326880366574, 473.90993547032576, 474.0266021369858, 474.1432688036458, 474.25993547030583, 474.37660213696586, 474.4932688036259, 474.6099354702859, 474.7266021369459, 474.84326880360595, 475.0766021369393]	2021_Feb_02_1127	59.93472532623048	1	0.375
19	79	FALSE	NV	a	['J', 'T', 'N', 'R', 'K', 'M', 'H', 'U', 'V', 'X', 'Z', 'A', 'W', 'G', 'S', 'C']	[1029, 1888, 1335, 1587, 1122, 1224, 986, 2059, 2245, 4000, 2911, 697, 2448, 944, 1731, 829]	10	Present	NA	NA	PRESENT	0.2089390754699707	477.0728659629822	479.07451701164246	479.89119178449414	480.2411936918228	483.1804702281952	4.105953216552734	[477.08160519599915, 477.1985640525818, 478.16378903388977, 478.3501601219177, 479.10059118270874, 479.21715807914734, 479.3340320587158, 479.45084619522095, 479.5677680969238, 479.6846401691437, 479.8012170791626, 479.91814708709717, 480.03489804267883, 480.1348330974579, 480.2516140937805, 480.3684232234955, 480.48531007766724, 480.60203409194946, 480.71877121925354, 480.8356080055237, 480.9523150920868, 481.1804702281952]	[477.0766021369393, 477.1932688035993, 478.1762688035993, 478.3429688035993, 479.0929688035993, 479.20963547025934, 479.32630213691937, 479.4429688035794, 479.5596354702394, 479.67630213689944, 479.79296880355946, 479.9096354702195, 480.0263021368795, 480.14296880353953, 480.25963547019956, 480.3763021368596, 480.4929688035196, 480.6096354701796, 480.72630213683965, 480.8429688034997, 480.9596354701597, 481.19296880349305]	2021_Feb_02_1127	59.93472532623048	1	0.375
