participant	trial_num	practice	task	condition	RSVP	RAP	probePos	probe_presence	surprise_sound	surprise_img	probe_response	probe_resp_time	first_fixation_time	trial_start_time	surprise_start_time	probe_start_time	trial_end_time	trial_duration	actualEventTimes	plannedEventTimes	date	framerate	marker_vol	RAP_vol
19	1	FALSE	NN	v	['N', 'Z', 'M', 'U', 'S', 'P', 'Y', 'A', 'T', 'J', 'E', 'H', 'K', 'W', 'V', 'R']	[1335, 2911, 1224, 2059, 1731, 1456, 2670, 697, 1888, 1029, 904, 986, 1122, 2448, 2245, 1587]	13	Absent	NA	NA	ABSENT	0.8852190971374512	4.0531158447265625e-6	2.0007359981536865	3.165585994720459	3.5153181552886963	6.103869915008545	4.103133916854858	[0.009115934371948242, 0.12581682205200195, 1.093195915222168, 1.2601318359375, 2.0275728702545166, 2.1444969177246094, 2.261138916015625, 2.3781180381774902, 2.4949848651885986, 2.5948009490966797, 2.728271007537842, 2.8453528881073, 2.9621808528900146, 3.0786378383636475, 3.1954758167266846, 3.3122479915618896, 3.412362813949585, 3.5291049480438232, 3.6459529399871826, 3.762692928314209, 3.879495859146118, 4.103869915008545]	[1.9073486328125e-06, 0.11666857401529947, 1.0996685740152994, 1.2663685740152995, 2.0163685740152992, 2.133035240681966, 2.2497019073486326, 2.3663685740152993, 2.483035240681966, 2.5997019073486327, 2.7163685740152994, 2.833035240681966, 2.949701907348633, 3.0663685740152995, 3.183035240681966, 3.299701907348633, 3.4163685740152996, 3.5330352406819663, 3.649701907348633, 3.7663685740152997, 3.8830352406819664, 4.1163685740153]	2021_Feb_02_1104	59.93549613248299	1	1
19	2	FALSE	NA	v	['T', 'R', 'U', 'N', 'G', 'K', 'V', 'Z', 'J', 'C', 'E', 'H', 'X', 'A', 'S', 'W']	[1888, 1587, 2059, 1335, 944, 1122, 2245, 2911, 1029, 829, 904, 986, 4000, 697, 1731, 2448]	13	Present	NA	NA	PRESENT	0.29798293113708496	6.10629415512085	8.113576173782349	9.28069019317627	9.630784034729004	12.220237016677856	4.106660842895508	[6.115403890609741, 6.231968879699707, 7.216488838195801, 7.38335394859314, 8.134159803390503, 8.250900983810425, 8.367739915847778, 8.484524011611938, 8.601424932479858, 8.718042850494385, 8.834929943084717, 8.951733827590942, 9.068362951278687, 9.18563199043274, 9.301975011825562, 9.418954849243164, 9.535586833953857, 9.65258502960205, 9.76920199394226, 9.885933876037598, 10.002825021743774, 10.220237016677856]	[6.1163685740153, 6.233035240681966, 7.216035240681966, 7.382735240681965, 8.132735240681965, 8.249401907348632, 8.3660685740153, 8.482735240681967, 8.599401907348634, 8.716068574015301, 8.832735240681968, 8.949401907348635, 9.066068574015302, 9.18273524068197, 9.299401907348637, 9.416068574015304, 9.532735240681971, 9.649401907348638, 9.766068574015305, 9.882735240681972, 9.99940190734864, 10.232735240681972]	2021_Feb_02_1104	59.93549613248299	1	1
19	3	FALSE	NN	v	['V', 'C', 'U', 'E', 'S', 'J', 'K', 'M', 'R', 'P', 'Z', 'N', 'W', 'T', 'A', 'H']	[2245, 829, 2059, 904, 1731, 1029, 1122, 1224, 1587, 1456, 2911, 1335, 2448, 1888, 697, 986]	11	Absent	NA	NA	ABSENT	0.4791240692138672	12.22939109802246	14.23049807548523	15.163921117782593	15.513902187347412	18.33660387992859	4.106105804443359	[12.238502025604248, 12.355280876159668, 13.339735984802246, 13.506589889526367, 14.257254838943481, 14.374169826507568, 14.490779876708984, 14.607755899429321, 14.724400997161865, 14.84133791923523, 14.958066940307617, 15.074949026107788, 15.191691875457764, 15.308388948440552, 15.425190925598145, 15.542188882827759, 15.658891916275024, 15.775518894195557, 15.89254093170166, 16.009105920791626, 16.10945701599121, 16.336602926254272]	[12.232735240681972, 12.34940190734864, 13.33240190734864, 13.49910190734864, 14.24910190734864, 14.365768574015307, 14.482435240681975, 14.599101907348642, 14.715768574015309, 14.832435240681976, 14.949101907348643, 15.06576857401531, 15.182435240681977, 15.299101907348645, 15.415768574015312, 15.532435240681979, 15.649101907348646, 15.765768574015313, 15.88243524068198, 15.999101907348647, 16.115768574015313, 16.349101907348647]	2021_Feb_02_1104	59.93549613248299	1	1
19	4	FALSE	VV	v	['E', 'A', 'T', 'G', 'C', 'N', 'S', 'W', 'surprise', 'B', 'M', 'X', 'Z', 'J', 'Y', 'H']	[904, 697, 1888, 944, 829, 1335, 1731, 2448, 'stimAuditory/all_stimAuditory/205.wav', 760, 1224, 4000, 2911, 1029, 2670, 986]	12	Present	NA	stimVisual/all_stimVisual/110.jpg	ABSENT	1.5797929763793943	18.335966110229492	20.34679412841797	21.398251056671143	21.74695110321045	24.452970027923584	4.106175899505615	[18.34507703781128, 18.46183490753174, 19.446555852890015, 19.613214015960693, 20.363730907440186, 20.48078489303589, 20.597512006759644, 20.714196920394897, 20.830861806869507, 20.947783946990967, 21.06462287902832, 21.18142795562744, 21.31492280960083, 21.41505193710327, 21.531908988952637, 21.648554801940918, 21.765262842178345, 21.88215184211731, 21.99910283088684, 22.11579203605652, 22.23250389099121, 22.452970027923584]	[18.349101907348647, 18.465768574015314, 19.448768574015315, 19.615468574015313, 20.365468574015313, 20.48213524068198, 20.598801907348648, 20.715468574015315, 20.832135240681982, 20.94880190734865, 21.065468574015316, 21.182135240681983, 21.29880190734865, 21.415468574015318, 21.532135240681985, 21.648801907348652, 21.76546857401532, 21.882135240681986, 21.998801907348653, 22.11546857401532, 22.232135240681988, 22.465468574015322]	2021_Feb_02_1104	59.93549613248299	1	1
19	5	FALSE	NV	v	['J', 'H', 'G', 'A', 'E', 'T', 'B', 'P', 'V', 'S', 'N', 'K', 'W', 'X', 'C', 'U']	[1029, 986, 944, 697, 904, 1888, 760, 1456, 2245, 1731, 1335, 1122, 2448, 4000, 829, 2059]	14	Present	NA	NA	PRESENT	0.25623512268066406	24.45923900604248	26.462804079055783	27.746467113494873	28.09669804573059	30.569336891174316	4.10653281211853	[24.46834897994995, 24.585062980651855, 25.569451808929443, 25.736079931259155, 26.486987829208374, 26.60392189025879, 26.720557928085327, 26.837531805038452, 26.954314947128296, 27.0710129737854, 27.187675952911377, 27.304627895355225, 27.421501874923706, 27.538064002990723, 27.65496301651001, 27.77164602279663, 27.88853693008423, 28.005441904067993, 28.12208580970764, 28.23882484436035, 28.355788946151733, 28.569336891174316]	[24.465468574015322, 24.58213524068199, 25.56513524068199, 25.73183524068199, 26.48183524068199, 26.598501907348655, 26.715168574015323, 26.83183524068199, 26.948501907348657, 27.065168574015324, 27.18183524068199, 27.29850190734866, 27.415168574015325, 27.531835240681993, 27.64850190734866, 27.765168574015327, 27.881835240681994, 27.99850190734866, 28.11516857401533, 28.231835240681995, 28.348501907348663, 28.581835240681997]	2021_Feb_02_1104	59.93549613248299	1	1
19	6	FALSE	NA	v	['J', 'C', 'Z', 'H', 'G', 'E', 'P', 'R', 'K', 'S', 'X', 'N', 'W', 'U', 'V', 'M']	[1029, 829, 2911, 986, 944, 904, 1456, 1587, 1122, 1731, 4000, 1335, 2448, 2059, 2245, 1224]	11	Present	NA	NA	PRESENT	0.11765408515930176	30.565771102905273	32.579602003097534	33.513238191604614	33.86292600631714	36.68570399284363	4.106101989746094	[30.57488203048706, 30.69147801399231, 31.675758838653564, 31.842828035354614, 32.61021089553833, 32.7101948261261, 32.82701587677002, 32.94376182556152, 33.06052088737488, 33.177325963974, 33.294147968292236, 33.41100192070007, 33.527742862701416, 33.644646883010864, 33.76129984855652, 33.87818789482117, 33.994908809661865, 34.1118369102478, 34.22870182991028, 34.34552192687988, 34.46211791038513, 34.68570399284363]	[30.581835240681997, 30.698501907348664, 31.681501907348665, 31.848201907348663, 32.59820190734867, 32.714868574015334, 32.831535240682, 32.94820190734867, 33.064868574015335, 33.181535240682, 33.29820190734867, 33.41486857401534, 33.531535240682004, 33.64820190734867, 33.76486857401534, 33.881535240682005, 33.99820190734867, 34.11486857401534, 34.23153524068201, 34.348201907348674, 34.46486857401534, 34.698201907348675]	2021_Feb_02_1104	59.93549613248299	1	1
19	7	FALSE	NV	v	['W', 'B', 'T', 'N', 'U', 'H', 'A', 'E', 'R', 'X', 'K', 'S', 'C', 'P', 'M', 'G']	[2448, 760, 1888, 1335, 2059, 986, 697, 904, 1587, 4000, 1122, 1731, 829, 1456, 1224, 944]	10	Present	NA	NA	PRESENT	0.2023220062255859	36.68883419036865	38.6956901550293	39.5126211643219	39.863099098205566	42.80206990242005	4.106379747390747	[36.697943925857544, 36.81468987464905, 37.799078941345215, 37.96602201461792, 38.7167489528656, 38.83367300033569, 38.950397968292236, 39.06713080406189, 39.183717012405396, 39.3006489276886, 39.417555809020996, 39.53432297706604, 39.65099501609802, 39.76797389984131, 39.88459300994873, 40.001577854156494, 40.11822700500488, 40.23542785644531, 40.35177993774414, 40.46854901313782, 40.58549189567566, 40.802069902420044]	[36.698201907348675, 36.81486857401534, 37.79786857401534, 37.96456857401534, 38.71456857401534, 38.831235240682005, 38.94790190734867, 39.06456857401534, 39.18123524068201, 39.297901907348674, 39.41456857401534, 39.53123524068201, 39.647901907348675, 39.76456857401534, 39.88123524068201, 39.99790190734868, 40.114568574015344, 40.23123524068201, 40.34790190734868, 40.464568574015345, 40.58123524068201, 40.81456857401535]	2021_Feb_02_1104	59.93549613248299	1	1
19	8	FALSE	NA	v	['W', 'C', 'P', 'Y', 'S', 'A', 'H', 'T', 'X', 'M', 'K', 'V', 'G', 'U', 'E', 'Z']	[2448, 829, 1456, 2670, 1731, 697, 986, 1888, 4000, 1224, 1122, 2245, 944, 2059, 904, 2911]	9	Present	NA	NA	PRESENT	0.3356199264526367	42.81198716163635	44.812175035476685	45.512585163116455	45.86247205734253	48.918437004089355	4.106261968612671	[42.821096897125244, 42.93803691864014, 43.92231488227844, 44.089020013809204, 44.83985185623169, 44.956907987594604, 45.07363796234131, 45.190234899520874, 45.30703687667847, 45.42380499839783, 45.540525913238525, 45.657373905181885, 45.774298906326294, 45.890915870666504, 46.00799083709717, 46.12458086013794, 46.24151802062988, 46.35825181007385, 46.4751238822937, 46.591882944107056, 46.69194197654724, 46.918437004089355]	[42.81456857401535, 42.931235240682014, 43.91423524068201, 44.08093524068201, 44.83093524068201, 44.94760190734868, 45.064268574015344, 45.18093524068201, 45.29760190734868, 45.414268574015345, 45.53093524068201, 45.64760190734868, 45.76426857401535, 45.880935240682014, 45.99760190734868, 46.11426857401535, 46.230935240682015, 46.34760190734868, 46.46426857401535, 46.58093524068202, 46.697601907348684, 46.93093524068202]	2021_Feb_02_1104	59.93549613248299	1	1
19	9	FALSE	NV	v	['K', 'M', 'W', 'U', 'C', 'H', 'N', 'Y', 'J', 'V', 'X', 'S', 'T', 'Z', 'A', 'B']	[1122, 1224, 2448, 2059, 829, 986, 1335, 2670, 1029, 2245, 4000, 1731, 1888, 2911, 697, 760]	11	Present	NA	NA	ABSENT	1.0678610801696775	48.91860508918762	50.928484201431274	51.86225414276123	52.21199011802673	55.03480291366577	4.106318712234497	[48.927714824676514, 49.04439902305603, 50.02880096435547, 50.19600486755371, 50.94642186164856, 51.063236951828, 51.18015003204346, 51.29686188697815, 51.4136598110199, 51.53049683570862, 51.64729595184326, 51.76390790939331, 51.880671977996826, 51.99759888648987, 52.11428499221802, 52.231154918670654, 52.347832918167114, 52.464754819869995, 52.581342935562134, 52.69835090637207, 52.814958810806274, 53.03480291366577]	[48.93093524068202, 49.047601907348685, 50.03060190734868, 50.19730190734868, 50.94730190734868, 51.06396857401535, 51.180635240682015, 51.29730190734868, 51.41396857401535, 51.53063524068202, 51.647301907348684, 51.76396857401535, 51.88063524068202, 51.997301907348685, 52.11396857401535, 52.23063524068202, 52.34730190734869, 52.463968574015354, 52.58063524068202, 52.69730190734869, 52.813968574015355, 53.04730190734869]	2021_Feb_02_1104	59.93549613248299	1	1
19	10	FALSE	AV	v	['T', 'E', 'A', 'M', 'C', 'Y', 'N', 'surprise', 'R', 'B', 'X', 'P', 'S', 'G', 'V', 'J']	[1888, 904, 697, 1224, 829, 2670, 1335, 'stimAuditory/all_stimAuditory/219.wav', 1587, 760, 4000, 1456, 1731, 944, 2245, 1029]	11	Present	stimAuditory/all_stimAuditory/205.wav	stimVisual/all_stimVisual/106.jpg	PRESENT	0.616408109664917	55.041550159454346	57.04496097564697	57.978790044784546	58.328535079956055	61.1511709690094	4.106209993362427	[55.050660848617554, 55.167582988739014, 56.15200591087341, 56.31889081001282, 57.06958484649658, 57.18664598464966, 57.30311584472656, 57.42012095451355, 57.53685688972473, 57.6535758972168, 57.77047395706177, 57.88715600967407, 58.00389885902405, 58.12078499794006, 58.23751091957092, 58.3542959690094, 58.47122097015381, 58.58783793449402, 58.70473289489746, 58.821425914764404, 58.938230991363525, 59.15117001533508]	[55.04730190734869, 55.16396857401536, 56.146968574015354, 56.31366857401535, 57.06366857401535, 57.18033524068202, 57.29700190734869, 57.413668574015354, 57.53033524068202, 57.64700190734869, 57.763668574015355, 57.88033524068202, 57.99700190734869, 58.11366857401536, 58.230335240682024, 58.34700190734869, 58.46366857401536, 58.580335240682025, 58.69700190734869, 58.81366857401536, 58.93033524068203, 59.16366857401536]	2021_Feb_02_1104	59.93549613248299	1	1
19	11	FALSE	NV	v	['N', 'U', 'M', 'G', 'S', 'E', 'P', 'H', 'V', 'B', 'X', 'R', 'C', 'T', 'Z', 'A']	[1335, 2059, 1224, 944, 1731, 904, 1456, 986, 2245, 760, 4000, 1587, 829, 1888, 2911, 697]	11	Present	NA	NA	PRESENT	0.27790403366088867	61.148428201675415	63.16109013557434	64.09482002258301	64.4448561668396	67.26753783226013	4.106447696685791	[61.15753793716431, 61.273983001708984, 62.25841689109802, 62.4253249168396, 63.19299602508545, 63.29286193847656, 63.40978789329529, 63.52653789520264, 63.64318084716797, 63.76009702682495, 63.876675844192505, 63.9936249256134, 64.11027789115906, 64.22721290588379, 64.344074010849, 64.46087002754211, 64.57754802703857, 64.69445490837097, 64.81128883361816, 64.92786192893982, 65.04471492767334, 65.26753783226013]	[61.16366857401536, 61.28033524068203, 62.263335240682025, 62.430035240682024, 63.180035240682024, 63.29670190734869, 63.41336857401536, 63.530035240682025, 63.64670190734869, 63.76336857401536, 63.88003524068203, 63.996701907348694, 64.11336857401535, 64.23003524068201, 64.34670190734867, 64.46336857401533, 64.580035240682, 64.69670190734865, 64.81336857401531, 64.93003524068197, 65.04670190734863, 65.28003524068197]	2021_Feb_02_1104	59.93549613248299	1	1
19	12	FALSE	NA	v	['W', 'R', 'M', 'N', 'Y', 'C', 'H', 'T', 'V', 'Z', 'B', 'J', 'A', 'X', 'K', 'U']	[2448, 1587, 1224, 1335, 2670, 829, 986, 1888, 2245, 2911, 760, 1029, 697, 4000, 1122, 2059]	14	Present	NA	NA	PRESENT	0.27455902099609375	67.27152299880981	69.27776312828064	70.56107997894287	70.91120219230652	73.38390398025513	4.106140851974487	[67.2806339263916, 67.39727401733398, 68.38163495063782, 68.5485999584198, 69.29930186271667, 69.41621899604797, 69.53290390968323, 69.64979100227356, 69.76637887954712, 69.88331198692322, 70.00019001960754, 70.1167459487915, 70.23391389846802, 70.35051989555359, 70.46708798408508, 70.58390688896179, 70.70073890686035, 70.81763887405396, 70.93430781364441, 71.05105495452881, 71.16805791854858, 71.38390398025513]	[67.28003524068197, 67.39670190734863, 68.37970190734863, 68.54640190734864, 69.29640190734864, 69.4130685740153, 69.52973524068196, 69.64640190734862, 69.76306857401528, 69.87973524068194, 69.9964019073486, 70.11306857401526, 70.22973524068192, 70.34640190734858, 70.46306857401524, 70.5797352406819, 70.69640190734856, 70.81306857401522, 70.92973524068188, 71.04640190734854, 71.1630685740152, 71.39640190734853]	2021_Feb_02_1104	59.93549613248299	1	1
19	13	FALSE	NV	v	['N', 'U', 'B', 'K', 'Y', 'H', 'P', 'S', 'R', 'J', 'X', 'M', 'A', 'C', 'W', 'E']	[1335, 2059, 760, 1122, 2670, 986, 1456, 1731, 1587, 1029, 4000, 1224, 697, 829, 2448, 904]	11	Present	NA	NA	PRESENT	0.2956879138946533	73.39463901519775	75.39405918121338	76.3275830745697	76.67757105827332	79.50027084350586	4.1062116622924805	[73.40374898910522, 73.52061200141907, 74.50496792793274, 74.65490889549255, 75.42246580123901, 75.53928899765015, 75.65614891052246, 75.77298402786255, 75.88971996307373, 76.05639982223511, 76.12323689460754, 76.23992586135864, 76.35694885253906, 76.47341084480286, 76.59048199653625, 76.70719695091248, 76.82401990890503, 76.94088888168335, 77.05751085281372, 77.17434692382812, 77.27457785606384, 77.50026893615723]	[73.39640190734853, 73.5130685740152, 74.4960685740152, 74.6627685740152, 75.4127685740152, 75.52943524068186, 75.64610190734852, 75.76276857401518, 75.87943524068184, 75.9961019073485, 76.11276857401516, 76.22943524068182, 76.34610190734848, 76.46276857401514, 76.5794352406818, 76.69610190734846, 76.81276857401512, 76.92943524068178, 77.04610190734844, 77.1627685740151, 77.27943524068176, 77.5127685740151]	2021_Feb_02_1104	59.93549613248299	1	1
19	14	FALSE	AA	v	['Y', 'M', 'B', 'K', 'Z', 'G', 'surprise', 'A', 'S', 'X', 'P', 'R', 'C', 'N', 'J', 'H']	[2670, 1224, 760, 1122, 2911, 944, 'stimAuditory/all_stimAuditory/211.wav', 697, 1731, 4000, 1456, 1587, 829, 1335, 1029, 986]	10	Present	stimAuditory/all_stimAuditory/219.wav	stimVisual/all_stimVisual/150.jpg	PRESENT	0.39640092849731445	79.50115609169006	81.51042199134827	82.32739520072937	82.67717909812927	85.61663794517517	4.106215953826904	[79.51026582717896, 79.62697386741638, 80.61165499687195, 80.77808499336243, 81.52900886535645, 81.64587497711182, 81.76248097419739, 81.87944984436035, 81.99612092971802, 82.11305499076843, 82.24643397331238, 82.34662985801697, 82.46322298049927, 82.58010196685791, 82.6967568397522, 82.81372880935669, 82.93041682243347, 83.04740595817566, 83.16405701637268, 83.2809989452362, 83.39756989479065, 83.61663699150085]	[79.5127685740151, 79.62943524068176, 80.61243524068176, 80.77913524068177, 81.52913524068177, 81.64580190734843, 81.76246857401509, 81.87913524068175, 81.99580190734841, 82.11246857401507, 82.22913524068173, 82.34580190734839, 82.46246857401505, 82.57913524068171, 82.69580190734837, 82.81246857401503, 82.92913524068169, 83.04580190734835, 83.16246857401501, 83.27913524068167, 83.39580190734833, 83.62913524068166]	2021_Feb_02_1104	59.93549613248299	1	1
19	15	FALSE	NA	v	['W', 'C', 'N', 'T', 'P', 'S', 'B', 'Y', 'H', 'Z', 'V', 'X', 'J', 'E', 'R', 'M']	[2448, 829, 1335, 1888, 1456, 1731, 760, 2670, 986, 2911, 2245, 4000, 1029, 904, 1587, 1224]	12	Present	NA	NA	PRESENT	0.3698408603668213	85.62428712844849	87.62667417526245	88.67707300186157	89.02683305740356	91.73300290107728	4.106328725814819	[85.6333978176117, 85.7502088546753, 86.73475289344788, 86.90132999420166, 87.65206098556519, 87.76907181739807, 87.88567996025085, 88.0026068687439, 88.11933588981628, 88.23618483543396, 88.35309886932373, 88.46981883049011, 88.58659601211548, 88.70321583747864, 88.81999182701111, 88.93682193756104, 89.05376100540161, 89.17043685913086, 89.28729295730591, 89.40390300750732, 89.52106785774231, 89.73300290107727]	[85.62913524068166, 85.74580190734832, 86.72880190734833, 86.89550190734833, 87.64550190734833, 87.76216857401499, 87.87883524068165, 87.99550190734831, 88.11216857401497, 88.22883524068163, 88.3455019073483, 88.46216857401495, 88.57883524068161, 88.69550190734827, 88.81216857401493, 88.9288352406816, 89.04550190734825, 89.16216857401491, 89.27883524068157, 89.39550190734823, 89.5121685740149, 89.74550190734823]	2021_Feb_02_1104	59.93549613248299	1	1
19	16	FALSE	NA	v	['C', 'P', 'E', 'W', 'U', 'K', 'M', 'N', 'X', 'A', 'R', 'H', 'Y', 'S', 'J', 'T']	[829, 1456, 904, 2448, 2059, 1122, 1224, 1335, 4000, 697, 1587, 986, 2670, 1731, 1029, 1888]	9	Present	NA	NA	PRESENT	0.294342041015625	91.7311201095581	93.74312615394592	94.44335007667542	94.793475151062	97.8493709564209	4.106244802474976	[91.74023103713989, 91.85656094551086, 92.84105801582336, 93.00789284706116, 93.77539896965027, 93.87536191940308, 93.9921669960022, 94.10912585258484, 94.22574996948242, 94.34267091751099, 94.45936703681946, 94.57639503479004, 94.6930148601532, 94.80986380577087, 94.92669296264648, 95.04345893859863, 95.160080909729, 95.27682185173035, 95.39377689361572, 95.51070499420166, 95.62732887268066, 95.8493709564209]	[91.74550190734823, 91.86216857401489, 92.84516857401489, 93.0118685740149, 93.7618685740149, 93.87853524068156, 93.99520190734822, 94.11186857401488, 94.22853524068154, 94.3452019073482, 94.46186857401486, 94.57853524068152, 94.69520190734818, 94.81186857401484, 94.9285352406815, 95.04520190734816, 95.16186857401482, 95.27853524068148, 95.39520190734814, 95.5118685740148, 95.62853524068146, 95.86186857401479]	2021_Feb_02_1104	59.93549613248299	1	1
19	17	FALSE	VA	v	['V', 'W', 'C', 'J', 'Z', 'A', 'K', 'H', 'Y', 'E', 'surprise', 'M', 'R', 'X', 'N', 'U']	[2245, 2448, 829, 1029, 2911, 697, 1122, 986, 2670, 904, 'stimAuditory/all_stimAuditory/207.wav', 1224, 1587, 4000, 1335, 2059]	14	Present	NA	stimVisual/all_stimVisual/121.jpg	PRESENT	0.3226771354675293	97.85391306877136	99.8593921661377	101.14301800727844	101.49322199821472	103.96573781967165	4.1063456535339355	[97.86302280426025, 97.97997283935547, 98.96434783935547, 99.13122582435608, 99.88183784484863, 99.99868392944336, 100.11532092094421, 100.23226594924927, 100.34901189804077, 100.46596503257751, 100.58265686035156, 100.69937992095947, 100.81618690490723, 100.93315291404724, 101.04963397979736, 101.16695189476013, 101.28331995010376, 101.39999985694885, 101.51694989204407, 101.63381099700928, 101.75066089630127, 101.96573781967163]	[97.86186857401479, 97.97853524068145, 98.96153524068146, 99.12823524068146, 99.87823524068146, 99.99490190734812, 100.11156857401478, 100.22823524068144, 100.3449019073481, 100.46156857401476, 100.57823524068142, 100.69490190734808, 100.81156857401474, 100.9282352406814, 101.04490190734806, 101.16156857401472, 101.27823524068138, 101.39490190734804, 101.5115685740147, 101.62823524068136, 101.74490190734802, 101.97823524068136]	2021_Feb_02_1104	59.93549613248299	1	1
19	18	FALSE	NA	v	['W', 'R', 'A', 'T', 'C', 'B', 'Y', 'K', 'G', 'X', 'M', 'Z', 'E', 'H', 'S', 'U']	[2448, 1587, 697, 1888, 829, 760, 2670, 1122, 944, 4000, 1224, 2911, 904, 986, 1731, 2059]	10	Present	NA	NA	PRESENT	0.5120270252227783	103.97707009315492	105.97599411010742	106.79281997680664	107.14292597770692	110.08210492134094	4.1061108112335205	[103.9861798286438, 104.10294985771179, 105.07070994377136, 105.23731684684753, 106.00515103340149, 106.12180185317993, 106.23867583274841, 106.35541081428528, 106.47213387489319, 106.58905696868896, 106.70594382286072, 106.8225269317627, 106.93960380554199, 107.0394058227539, 107.17321586608887, 107.27289390563965, 107.38973498344421, 107.50652694702148, 107.623379945755, 107.74016880989075, 107.85707998275757, 108.08210492134094]	[103.97823524068136, 104.09490190734802, 105.07790190734802, 105.24460190734803, 105.99460190734803, 106.11126857401469, 106.22793524068135, 106.34460190734801, 106.46126857401467, 106.57793524068133, 106.69460190734799, 106.81126857401465, 106.92793524068131, 107.04460190734797, 107.16126857401463, 107.27793524068129, 107.39460190734795, 107.51126857401461, 107.62793524068127, 107.74460190734793, 107.86126857401459, 108.09460190734792]	2021_Feb_02_1104	59.93549613248299	1	1
19	19	FALSE	NN	v	['A', 'R', 'G', 'K', 'W', 'E', 'T', 'M', 'C', 'N', 'B', 'J', 'V', 'Y', 'H', 'P']	[697, 1587, 944, 1122, 2448, 904, 1888, 1224, 829, 1335, 760, 1029, 2245, 2670, 986, 1456]	13	Absent	NA	NA	ABSENT	0.3885049819946289	110.08357310295104	112.09230303764345	113.25912714004517	113.6091651916504	116.19847083091736	4.106167793273926	[110.09268403053284, 110.20955491065979, 111.19442391395569, 111.36089587211609, 112.11148881912231, 112.22836494445801, 112.3451669216156, 112.4619688987732, 112.57876086235046, 112.695631980896, 112.81235599517822, 112.92924690246582, 113.04585695266724, 113.16258502006531, 113.27955794334412, 113.39635300636292, 113.51306486129761, 113.62995600700378, 113.74655485153198, 113.86333584785461, 113.9802680015564, 114.19846987724304]	[110.09460190734792, 110.21126857401458, 111.19426857401459, 111.36096857401459, 112.11096857401459, 112.22763524068125, 112.34430190734791, 112.46096857401457, 112.57763524068123, 112.69430190734789, 112.81096857401455, 112.92763524068121, 113.04430190734787, 113.16096857401453, 113.27763524068119, 113.39430190734785, 113.51096857401451, 113.62763524068117, 113.74430190734783, 113.86096857401449, 113.97763524068115, 114.21096857401449]	2021_Feb_02_1104	59.93549613248299	1	1
19	20	FALSE	NN	v	['B', 'A', 'P', 'Z', 'J', 'R', 'Y', 'V', 'C', 'N', 'H', 'W', 'T', 'S', 'M', 'K']	[760, 697, 1456, 2911, 1029, 1587, 2670, 2245, 829, 1335, 986, 2448, 1888, 1731, 1224, 1122]	13	Absent	NA	NA	ABSENT	0.3060150146484375	116.20694017410278	118.20857000350952	119.37546801567078	119.7258641719818	122.31483697891235	4.106266975402832	[116.21605086326599, 116.33275985717773, 117.31710386276245, 117.48391699790955, 118.23461484909058, 118.35161280632019, 118.46827793121338, 118.58507990837097, 118.7019579410553, 118.81864380836487, 118.9354498386383, 119.05244088172913, 119.16919589042664, 119.2860279083252, 119.40282201766968, 119.5194799900055, 119.63621997833252, 119.7528908252716, 119.86981391906738, 119.98649597167969, 120.08665585517883, 120.31483793258667]	[116.21096857401449, 116.32763524068115, 117.31063524068115, 117.47733524068116, 118.22733524068116, 118.34400190734782, 118.46066857401448, 118.57733524068114, 118.6940019073478, 118.81066857401446, 118.92733524068112, 119.04400190734778, 119.16066857401444, 119.2773352406811, 119.39400190734776, 119.51066857401442, 119.62733524068108, 119.74400190734774, 119.8606685740144, 119.97733524068106, 120.09400190734772, 120.32733524068105]	2021_Feb_02_1104	59.93549613248299	1	1
19	21	FALSE	VA	v	['N', 'M', 'S', 'G', 'K', 'A', 'T', 'Y', 'surprise', 'B', 'P', 'X', 'H', 'V', 'J', 'E']	[1335, 1224, 1731, 944, 1122, 697, 1888, 2670, 'stimAuditory/all_stimAuditory/108.wav', 760, 1456, 4000, 986, 2245, 1029, 904]	12	Present	NA	stimVisual/all_stimVisual/250.jpg	ABSENT	0.2463350296020508	122.31364417076112	124.3248851299286	125.37522006034852	125.7250430583954	128.4312038421631	4.106318712234497	[122.32275581359863, 122.43914103507996, 123.42359685897827, 123.59066081047058, 124.35797882080078, 124.45807385444641, 124.57473802566528, 124.6917200088501, 124.8083438873291, 124.92531895637512, 125.04194593429565, 125.1588978767395, 125.29227089881897, 125.39251184463501, 125.50916600227356, 125.62605285644531, 125.74270701408386, 125.8594880104065, 125.97625780105591, 126.09314584732056, 126.20980882644653, 126.43120288848877]	[122.32733524068105, 122.44400190734771, 123.42700190734772, 123.59370190734772, 124.34370190734772, 124.46036857401438, 124.57703524068104, 124.6937019073477, 124.81036857401436, 124.92703524068102, 125.04370190734768, 125.16036857401434, 125.277035240681, 125.39370190734766, 125.51036857401432, 125.62703524068098, 125.74370190734764, 125.8603685740143, 125.97703524068096, 126.09370190734762, 126.21036857401428, 126.44370190734762]	2021_Feb_02_1104	59.93549613248299	1	1
19	22	FALSE	NA	v	['V', 'H', 'G', 'B', 'A', 'N', 'Z', 'W', 'T', 'C', 'X', 'P', 'K', 'J', 'M', 'S']	[2245, 986, 944, 760, 697, 1335, 2911, 2448, 1888, 829, 4000, 1456, 1122, 1029, 1224, 1731]	11	Present	NA	NA	PRESENT	0.33076906204223633	128.4364721775055	130.4414360523224	131.37492299079895	131.72497010231018	134.5475709438324	4.10613489151001	[128.44558382034302, 128.56238389015198, 129.54680490493774, 129.7138168811798, 130.46440982818604, 130.58135890960693, 130.69803190231323, 130.8147349357605, 130.9315538406372, 131.04837894439697, 131.16533994674683, 131.28185987472534, 131.39887690544128, 131.5155098438263, 131.632465839386, 131.74929881095886, 131.86607003211975, 131.98292088508606, 132.09968090057373, 132.2165629863739, 132.33311080932617, 132.54756999015808]	[128.44370190734762, 128.5603685740143, 129.5433685740143, 129.7100685740143, 130.4600685740143, 130.57673524068096, 130.69340190734763, 130.8100685740143, 130.92673524068098, 131.04340190734766, 131.16006857401433, 131.276735240681, 131.39340190734768, 131.51006857401435, 131.62673524068103, 131.7434019073477, 131.86006857401438, 131.97673524068105, 132.09340190734773, 132.2100685740144, 132.32673524068107, 132.5600685740144]	2021_Feb_02_1104	59.93549613248299	1	1
19	23	FALSE	NA	v	['M', 'Z', 'K', 'N', 'V', 'T', 'P', 'J', 'Y', 'R', 'X', 'U', 'B', 'W', 'S', 'G']	[1224, 2911, 1122, 1335, 2245, 1888, 1456, 1029, 2670, 1587, 4000, 2059, 760, 2448, 1731, 944]	11	Present	NA	NA	PRESENT	0.63233184814453125	134.55978798866272	136.5576241016388	137.4911801815033	137.84184908866882	140.6639368534088	4.1063127517700195	[134.5688989162445, 134.66877794265747, 135.65321683883667, 135.82028603553772, 136.58768486976624, 136.6875548362732, 136.82107496261597, 136.92115092277527, 137.0380139350891, 137.15475988388062, 137.2715790271759, 137.38834881782532, 137.5051498413086, 137.62197494506836, 137.73883700370789, 137.85560083389282, 137.97237491607666, 138.08916187286377, 138.2059268951416, 138.32263588905334, 138.4395740032196, 138.6639368534088]	[134.5600685740144, 134.67673524068107, 135.65973524068107, 135.82643524068106, 136.57643524068106, 136.69310190734774, 136.8097685740144, 136.9264352406811, 137.04310190734776, 137.15976857401444, 137.2764352406811, 137.39310190734778, 137.50976857401446, 137.62643524068113, 137.7431019073478, 137.85976857401448, 137.97643524068116, 138.09310190734783, 138.2097685740145, 138.32643524068118, 138.44310190734785, 138.67643524068117]	2021_Feb_02_1104	59.93549613248299	1	1
19	24	FALSE	AA	v	['Y', 'T', 'V', 'K', 'C', 'E', 'surprise', 'H', 'N', 'X', 'G', 'Z', 'M', 'R', 'P', 'U']	[2670, 1888, 2245, 1122, 829, 904, 'stimAuditory/all_stimAuditory/222.wav', 986, 1335, 4000, 944, 2911, 1224, 1587, 1456, 2059]	10	Present	stimAuditory/all_stimAuditory/211.wav	stimVisual/all_stimVisual/111.jpg	PRESENT	0.34083008766174316	140.66623616218567	142.67414498329163	143.49084401130676	143.84090209007263	146.78030490875244	4.106159925460815	[140.67534589767456, 140.79206895828247, 141.7765610218048, 141.9434838294983, 142.69443202018738, 142.81098580360413, 142.9276578426361, 143.04448294639587, 143.16138195991516, 143.27819800376892, 143.3949098587036, 143.51169085502625, 143.62846183776855, 143.7454538345337, 143.86206984519958, 143.97880601882935, 144.0958309173584, 144.21235585212708, 144.3293240070343, 144.44599795341492, 144.56284189224243, 144.78030490875244]	[140.67643524068117, 140.79310190734785, 141.77610190734785, 141.94280190734784, 142.69280190734784, 142.80946857401452, 142.9261352406812, 143.04280190734787, 143.15946857401454, 143.2761352406812, 143.3928019073479, 143.50946857401456, 143.62613524068124, 143.7428019073479, 143.85946857401458, 143.97613524068126, 144.09280190734793, 144.2094685740146, 144.32613524068128, 144.44280190734796, 144.55946857401463, 144.79280190734795]	2021_Feb_02_1104	59.93549613248299	1	1
19	25	FALSE	NV	v	['H', 'R', 'E', 'U', 'S', 'M', 'T', 'K', 'J', 'A', 'P', 'W', 'X', 'N', 'Z', 'G']	[986, 1587, 904, 2059, 1731, 1224, 1888, 1122, 1029, 697, 1456, 2448, 4000, 1335, 2911, 944]	13	Present	NA	NA	PRESENT	0.48230910301208496	146.7895541191101	148.79059219360352	149.9573631286621	150.307363986969	152.89667081832886	4.106078624725342	[146.798663854599, 146.91545987129211, 147.89963603019714, 148.06656789779663, 148.81728100776672, 148.93403887748718, 149.05084991455078, 149.16788983345032, 149.28448390960693, 149.4014220237732, 149.51812291145325, 149.6349630355835, 149.75154781341553, 149.86835598945618, 149.98516583442688, 150.10214185714722, 150.21887588500977, 150.33576202392578, 150.4525430202484, 150.56937193870544, 150.6692090034485, 150.89666986465454]	[146.79280190734795, 146.90946857401462, 147.89246857401463, 148.05916857401462, 148.80916857401462, 148.9258352406813, 149.04250190734797, 149.15916857401464, 149.27583524068132, 149.392501907348, 149.50916857401467, 149.62583524068134, 149.74250190734801, 149.8591685740147, 149.97583524068136, 150.09250190734804, 150.2091685740147, 150.32583524068139, 150.44250190734806, 150.55916857401473, 150.6758352406814, 150.90916857401473]	2021_Feb_02_1104	59.93549613248299	1	1
19	26	FALSE	NA	v	['W', 'E', 'T', 'J', 'K', 'Z', 'U', 'P', 'X', 'N', 'R', 'S', 'Y', 'G', 'B', 'V']	[2448, 904, 1888, 1029, 1122, 2911, 2059, 1456, 4000, 1335, 1587, 1731, 2670, 944, 760, 2245]	9	Present	NA	NA	PRESENT	0.2945098876953125	152.89637112617493	154.90692806243896	155.60687804222107	155.95849704742432	159.01303696632385	4.106108903884888	[152.90548086166382, 153.02181887626648, 154.00639700889587, 154.17293691635132, 154.9237129688263, 155.04066586494446, 155.15735387802124, 155.27423191070557, 155.3908998966217, 155.50793194770813, 155.62450003623962, 155.74145197868347, 155.8581190109253, 155.974839925766, 156.09185481071472, 156.20874500274658, 156.32538199424744, 156.44199681282043, 156.55906701087952, 156.67583394050598, 156.79265594482422, 157.01303696632385]	[152.90916857401473, 153.0258352406814, 154.0088352406814, 154.1755352406814, 154.9255352406814, 155.04220190734807, 155.15886857401475, 155.27553524068142, 155.3922019073481, 155.50886857401477, 155.62553524068144, 155.74220190734812, 155.8588685740148, 155.97553524068147, 156.09220190734814, 156.20886857401482, 156.3255352406815, 156.44220190734816, 156.55886857401484, 156.6755352406815, 156.7922019073482, 157.0255352406815]	2021_Feb_02_1104	59.93549613248299	1	1
19	27	FALSE	NA	v	['V', 'C', 'Y', 'T', 'H', 'K', 'N', 'R', 'A', 'X', 'S', 'W', 'Z', 'U', 'B', 'M']	[2245, 829, 2670, 1888, 986, 1122, 1335, 1587, 697, 4000, 1731, 2448, 2911, 2059, 760, 1224]	10	Present	NA	NA	PRESENT	0.16326284408569336	159.01895308494568	161.02284812927246	161.84015202522278	162.18988513946533	165.12940287590027	4.106554746627808	[159.02806401252747, 159.14488101005554, 160.12961792945862, 160.29620480537415, 161.04692482948303, 161.16386699676514, 161.28066396713257, 161.39738392829895, 161.5141589641571, 161.63110995292664, 161.74781489372253, 161.8644859790802, 161.98147201538086, 162.09823894500732, 162.21534991264343, 162.33172702789307, 162.44860887527466, 162.56531286239624, 162.68221402168274, 162.79894995689392, 162.915757894516, 163.12940287590027]	[159.0255352406815, 159.14220190734818, 160.12520190734818, 160.29190190734818, 161.04190190734818, 161.15856857401485, 161.27523524068152, 161.3919019073482, 161.50856857401487, 161.62523524068155, 161.74190190734822, 161.8585685740149, 161.97523524068157, 162.09190190734824, 162.20856857401492, 162.3252352406816, 162.44190190734827, 162.55856857401494, 162.67523524068162, 162.7919019073483, 162.90856857401496, 163.14190190734828]	2021_Feb_02_1104	59.93549613248299	1	1
19	28	FALSE	NV	v	['K', 'V', 'Z', 'Y', 'B', 'M', 'N', 'E', 'C', 'T', 'X', 'P', 'G', 'W', 'R', 'A']	[1122, 2245, 2911, 2670, 760, 1224, 1335, 904, 829, 1888, 4000, 1456, 944, 2448, 1587, 697]	11	Present	NA	NA	PRESENT	0.08842301368713379	165.12540006637573	167.13939118385315	168.07320499420166	168.4230761528015	171.24576997756958	4.106378793716431	[165.13450980186462, 165.25137400627136, 166.23598098754883, 166.40274786949158, 167.170166015625, 167.27018785476685, 167.38696384429932, 167.5037398338318, 167.62061595916748, 167.73734998703003, 167.85423302650452, 167.97092390060425, 168.08780789375305, 168.2045979499817, 168.32140493392944, 168.43816590309143, 168.55501985549927, 168.6719310283661, 168.78859901428223, 168.90548586845398, 169.02222800254822, 169.24576997756958]	[165.14190190734828, 165.25856857401496, 166.24156857401496, 166.40826857401495, 167.15826857401495, 167.27493524068163, 167.3916019073483, 167.50826857401498, 167.62493524068165, 167.74160190734833, 167.858268574015, 167.97493524068167, 168.09160190734835, 168.20826857401502, 168.3249352406817, 168.44160190734837, 168.55826857401505, 168.67493524068172, 168.7916019073484, 168.90826857401507, 169.02493524068174, 169.25826857401506]	2021_Feb_02_1104	59.93549613248299	1	1
19	29	FALSE	AV	v	['B', 'N', 'H', 'Y', 'Z', 'T', 'W', 'M', 'surprise', 'J', 'P', 'X', 'C', 'A', 'K', 'U']	[760, 1335, 986, 2670, 2911, 1888, 2448, 1224, 'stimAuditory/all_stimAuditory/203.wav', 1029, 1456, 4000, 829, 697, 1122, 2059]	12	Present	stimAuditory/all_stimAuditory/207.wav	stimVisual/all_stimVisual/105.jpg	PRESENT	0.1489250659942627	171.2487690448761	173.2559151649475	174.3060851097107	174.65620398521423	177.3621368408203	4.106221675872803	[171.25787997245789, 171.37484097480774, 172.3594470024109, 172.52588987350464, 173.2767469882965, 173.3936858177185, 173.51034903526306, 173.62717986106873, 173.7439239025116, 173.86081194877625, 173.97751092910767, 174.09418296813965, 174.21099185943604, 174.32775902748108, 174.44476199150085, 174.56149196624756, 174.67833495140076, 174.79491591453552, 174.91182780265808, 175.02853798866272, 175.14552402496338, 175.3621368408203]	[171.25826857401506, 171.37493524068174, 172.35793524068174, 172.52463524068173, 173.27463524068173, 173.3913019073484, 173.50796857401508, 173.62463524068176, 173.74130190734843, 173.8579685740151, 173.97463524068178, 174.09130190734845, 174.20796857401513, 174.3246352406818, 174.44130190734847, 174.55796857401515, 174.67463524068182, 174.7913019073485, 174.90796857401517, 175.02463524068185, 175.14130190734852, 175.37463524068184]	2021_Feb_02_1104	59.93549613248299	1	1
19	30	FALSE	NN	v	['N', 'W', 'J', 'R', 'Y', 'H', 'C', 'G', 'P', 'V', 'A', 'K', 'B', 'S', 'E', 'Z']	[1335, 2448, 1029, 1587, 2670, 986, 829, 944, 1456, 2245, 697, 1122, 760, 1731, 904, 2911]	13	Absent	NA	NA	ABSENT	0.2581980228424072	177.3721821308136	179.3721261024475	180.5391471385956	180.8892331123352	183.4785039424896	4.106377840042114	[177.3812940120697, 177.4979169368744, 178.48222589492798, 178.64914989471436, 179.39992499351501, 179.5167579650879, 179.63339495658875, 179.7503399848938, 179.86716198921204, 179.98392295837402, 180.10053491592407, 180.21749997138977, 180.33429503440857, 180.45092296600342, 180.56778502464294, 180.68451595306396, 180.80156898498535, 180.91822481155396, 181.03511095046997, 181.15185689926147, 181.25183582305908, 181.4785029888153]	[177.37463524068184, 177.49130190734851, 178.47430190734852, 178.6410019073485, 179.3910019073485, 179.50766857401518, 179.62433524068186, 179.74100190734853, 179.8576685740152, 179.97433524068188, 180.09100190734856, 180.20766857401523, 180.3243352406819, 180.44100190734858, 180.55766857401525, 180.67433524068193, 180.7910019073486, 180.90766857401528, 181.02433524068195, 181.14100190734862, 181.2576685740153, 181.49100190734862]	2021_Feb_02_1104	59.93549613248299	1	1
19	31	FALSE	NV	v	['Y', 'A', 'C', 'J', 'K', 'U', 'W', 'S', 'G', 'Z', 'M', 'X', 'H', 'E', 'N', 'T']	[2670, 697, 829, 1029, 1122, 2059, 2448, 1731, 944, 2911, 1224, 4000, 986, 904, 1335, 1888]	12	Present	NA	NA	PRESENT	0.24681711196899417	183.4789559841156	185.4887180328369	186.53884506225583	186.8888931274414	189.59487080574036	4.106152772903442	[183.4880669116974, 183.60439682006836, 184.58887791633606, 184.75565791130066, 185.5063009262085, 185.62330985069275, 185.73988699913025, 185.8569459915161, 185.97361993789673, 186.09037590026855, 186.20707893371582, 186.32395696640015, 186.44073700904846, 186.55758380889893, 186.67426300048828, 186.79128193855286, 186.90803790092468, 187.02489280700684, 187.14159989356995, 187.25846481323242, 187.3752248287201, 187.59487080574036]	[183.49100190734862, 183.6076685740153, 184.5906685740153, 184.7573685740153, 185.5073685740153, 185.62403524068196, 185.74070190734864, 185.8573685740153, 185.97403524068199, 186.09070190734866, 186.20736857401533, 186.324035240682, 186.44070190734868, 186.55736857401536, 186.67403524068203, 186.7907019073487, 186.90736857401538, 187.02403524068205, 187.14070190734873, 187.2573685740154, 187.37403524068208, 187.6073685740154]	2021_Feb_02_1104	59.93549613248299	1	1
19	32	FALSE	VV	v	['U', 'V', 'E', 'N', 'J', 'C', 'T', 'surprise', 'B', 'R', 'X', 'W', 'K', 'H', 'S', 'P']	[2059, 2245, 904, 1335, 1029, 829, 1888, 'stimAuditory/all_stimAuditory/224.wav', 760, 1587, 4000, 2448, 1122, 986, 1731, 1456]	11	Present	NA	stimVisual/all_stimVisual/209.jpg	PRESENT	0.6593120098114014	189.6018099784851	191.60497117042544	192.53848004341123	192.88861203193665	195.71123790740967	4.106266736984253	[189.6109209060669, 189.72777581214905, 190.71203684806824, 190.87884902954102, 191.62964296340942, 191.7463300228119, 191.8631830215454, 191.97983980178833, 192.09682893753052, 192.21348690986633, 192.33041882514954, 192.44700503349304, 192.56386184692383, 192.68073797225952, 192.79762983322144, 192.91422700881958, 193.03126883506775, 193.1479308605194, 193.26514196395874, 193.38144087791443, 193.49840593338013, 193.71123695373535]	[189.6073685740154, 189.72403524068207, 190.70703524068207, 190.87373524068207, 191.62373524068207, 191.74040190734874, 191.85706857401541, 191.9737352406821, 192.09040190734876, 192.20706857401544, 192.3237352406821, 192.4404019073488, 192.55706857401546, 192.67373524068213, 192.7904019073488, 192.90706857401548, 193.02373524068216, 193.14040190734883, 193.2570685740155, 193.37373524068218, 193.49040190734885, 193.72373524068217]	2021_Feb_02_1104	59.93549613248299	1	1
19	33	FALSE	NV	v	['J', 'H', 'A', 'G', 'Z', 'S', 'C', 'V', 'R', 'W', 'U', 'N', 'M', 'X', 'E', 'B']	[1029, 986, 697, 944, 2911, 1731, 829, 2245, 1587, 2448, 2059, 1335, 1224, 4000, 904, 760]	14	Present	NA	NA	PRESENT	0.2567169666290283	195.70813512802124	197.72146320343015	199.0047791004181	199.3547751903534	201.82760381698608	4.106140613555908	[195.7172679901123, 195.83401679992676, 196.818452835083, 196.98541402816772, 197.75283789634705, 197.85304403305054, 197.9696798324585, 198.0867018699646, 198.20316982269287, 198.3199338912964, 198.4367790222168, 198.55355787277222, 198.67045402526855, 198.7873249053955, 198.90394687652588, 199.02090787887573, 199.1376519203186, 199.2542428970337, 199.37122797966003, 199.48784399032593, 199.60488390922546, 199.82760286331177]	[195.72373524068217, 195.84040190734885, 196.82340190734885, 196.99010190734884, 197.74010190734884, 197.85676857401552, 197.9734352406822, 198.09010190734887, 198.20676857401554, 198.32343524068222, 198.4401019073489, 198.55676857401556, 198.67343524068224, 198.7901019073489, 198.9067685740156, 199.02343524068226, 199.14010190734894, 199.2567685740156, 199.37343524068228, 199.49010190734896, 199.60676857401563, 199.84010190734895]	2021_Feb_02_1104	59.93549613248299	1	1
19	34	FALSE	NA	v	['M', 'G', 'R', 'E', 'Z', 'B', 'P', 'J', 'S', 'X', 'Y', 'N', 'V', 'W', 'T', 'U']	[1224, 944, 1587, 904, 2911, 760, 1456, 1029, 1731, 4000, 2670, 1335, 2245, 2448, 1888, 2059]	10	Present	NA	NA	PRESENT	0.3093588352203369	201.83138918876648	203.8375780582428	204.65483498573303	205.00476002693176	207.9439709186554	4.106392860412598	[201.84051203727722, 201.9574418067932, 202.94182085990906, 203.10838985443115, 203.85963082313538, 203.97623300552368, 204.09284782409668, 204.20966482162476, 204.3264558315277, 204.4433629512787, 204.56011581420898, 204.67686796188354, 204.79368996620178, 204.91028594970703, 205.02721500396729, 205.1440029144287, 205.26096081733704, 205.3775918483734, 205.49429202079773, 205.611172914505, 205.72787380218506, 205.94396996498108]	[201.84010190734895, 201.95676857401563, 202.93976857401563, 203.10646857401562, 203.85646857401562, 203.9731352406823, 204.08980190734897, 204.20646857401564, 204.32313524068232, 204.439801907349, 204.55646857401567, 204.67313524068234, 204.78980190734902, 204.9064685740157, 205.02313524068236, 205.13980190734904, 205.2564685740157, 205.3731352406824, 205.48980190734906, 205.60646857401574, 205.7231352406824, 205.95646857401573]	2021_Feb_02_1104	59.93549613248299	1	1
19	35	FALSE	NV	v	['N', 'V', 'H', 'Z', 'J', 'M', 'U', 'A', 'G', 'T', 'P', 'X', 'C', 'E', 'R', 'K']	[1335, 2245, 986, 2911, 1029, 1224, 2059, 697, 944, 1888, 1456, 4000, 829, 904, 1587, 1122]	12	Present	NA	NA	PRESENT	0.370539903640747	207.95459604263303	209.95377802848816	211.0043911933899	211.3543860912323	214.0603380203247	4.106559991836548	[207.96370792388916, 208.0805308818817, 209.06492686271667, 209.23180985450745, 209.9827070236206, 210.09943294525146, 210.21617794036865, 210.3330008983612, 210.449805021286, 210.56640887260437, 210.68313598632812, 210.80013585090637, 210.91674280166626, 211.03351092338562, 211.15034985542297, 211.2671890258789, 211.38399982452393, 211.5008089542389, 211.61760783195496, 211.73457884788513, 211.83454585075378, 212.0603380203247]	[207.95646857401573, 208.0731352406824, 209.0561352406824, 209.2228352406824, 209.9728352406824, 210.08950190734907, 210.20616857401575, 210.32283524068242, 210.4395019073491, 210.55616857401577, 210.67283524068245, 210.78950190734912, 210.9061685740158, 211.02283524068247, 211.13950190734914, 211.25616857401582, 211.3728352406825, 211.48950190734917, 211.60616857401584, 211.7228352406825, 211.8395019073492, 212.0728352406825]	2021_Feb_02_1104	59.93549613248299	1	1
19	36	FALSE	VV	v	['E', 'V', 'S', 'R', 'C', 'A', 'Z', 'surprise', 'B', 'P', 'X', 'K', 'T', 'H', 'N', 'Y']	[904, 2245, 1731, 1587, 829, 697, 2911, 'stimAuditory/all_stimAuditory/212.wav', 760, 1456, 4000, 1122, 1888, 986, 1335, 2670]	11	Present	NA	stimVisual/all_stimVisual/224.jpg	PRESENT	0.3832271099090576	214.06133604049683	216.07043313980105	217.0039701461792	217.35412406921387	220.17670392990112	4.106270790100098	[214.07044792175293, 214.18704986572266, 215.1714358329773, 215.33806085586548, 216.088937997818, 216.20570397377014, 216.32253694534302, 216.4395399093628, 216.55619597434998, 216.67294788360596, 216.78983783721924, 216.9233009815216, 217.0233998298645, 217.14025497436523, 217.2570698261261, 217.37365698814392, 217.4905879497528, 217.6072599887848, 217.72417283058167, 217.84081888198853, 217.9578468799591, 218.1767029762268]	[214.0728352406825, 214.18950190734918, 215.1725019073492, 215.33920190734918, 216.08920190734918, 216.20586857401585, 216.32253524068253, 216.4392019073492, 216.55586857401588, 216.67253524068255, 216.78920190734922, 216.9058685740159, 217.02253524068257, 217.13920190734925, 217.25586857401592, 217.3725352406826, 217.48920190734927, 217.60586857401594, 217.72253524068262, 217.8392019073493, 217.95586857401597, 218.1892019073493]	2021_Feb_02_1104	59.93549613248299	1	1
19	37	FALSE	NN	v	['T', 'W', 'V', 'M', 'Y', 'N', 'J', 'A', 'S', 'P', 'H', 'E', 'Z', 'G', 'R', 'B']	[1888, 2448, 2245, 1224, 2670, 1335, 1029, 697, 1731, 1456, 986, 904, 2911, 944, 1587, 760]	9	Absent	NA	NA	ABSENT	0.3957650661468506	220.1843421459198	222.18695712089541	222.8870260715485	223.23711013793945	226.2930698394775	4.106112718582153	[220.1934518814087, 220.31007885932922, 221.29449486732483, 221.46142983436584, 222.21224784851074, 222.32912302017212, 222.4457449913025, 222.56247401237488, 222.6795358657837, 222.7961528301239, 222.91311383247375, 223.02982592582703, 223.1465368270874, 223.26369285583496, 223.38014698028564, 223.49698281288147, 223.61362981796265, 223.73047184944153, 223.84732103347778, 223.96405386924744, 224.08097982406616, 224.29306983947754]	[220.1892019073493, 220.30586857401596, 221.28886857401596, 221.45556857401596, 222.20556857401596, 222.32223524068263, 222.4389019073493, 222.55556857401598, 222.67223524068265, 222.78890190734933, 222.905568574016, 223.02223524068268, 223.13890190734935, 223.25556857401602, 223.3722352406827, 223.48890190734937, 223.60556857401605, 223.72223524068272, 223.8389019073494, 223.95556857401607, 224.07223524068274, 224.30556857401606]	2021_Feb_02_1104	59.93549613248299	1	1
19	38	FALSE	NV	v	['T', 'K', 'R', 'J', 'B', 'C', 'N', 'S', 'A', 'W', 'U', 'X', 'Y', 'P', 'M', 'Z']	[1888, 1122, 1587, 1029, 760, 829, 1335, 1731, 697, 2448, 2059, 4000, 2670, 1456, 1224, 2911]	12	Present	NA	NA	PRESENT	0.28888821601867676	226.29072213172913	228.303227186203	229.35362005233765	229.7032260894775	232.40943789482117	4.106210708618164	[226.29983186721802, 226.4167239665985, 227.40111589431763, 227.56779599189758, 228.33534383773804, 228.43561697006226, 228.55229687690735, 228.6690378189087, 228.7858328819275, 228.9027988910675, 229.0193510055542, 229.13614702224731, 229.25307083129883, 229.36984300613403, 229.48655486106873, 229.60336589813232, 229.7202389240265, 229.83702993392944, 229.95378994941711, 230.0704460144043, 230.1874659061432, 230.40943694114685]	[226.30556857401606, 226.42223524068274, 227.40523524068274, 227.57193524068273, 228.32193524068273, 228.4386019073494, 228.55526857401608, 228.67193524068276, 228.78860190734943, 228.9052685740161, 229.02193524068278, 229.13860190734945, 229.25526857401613, 229.3719352406828, 229.48860190734948, 229.60526857401615, 229.72193524068282, 229.8386019073495, 229.95526857401617, 230.07193524068285, 230.18860190734952, 230.42193524068284]	2021_Feb_02_1104	59.93549613248299	1	1
19	39	FALSE	NN	v	['G', 'V', 'Z', 'A', 'H', 'S', 'U', 'R', 'Y', 'J', 'M', 'E', 'K', 'C', 'T', 'B']	[944, 2245, 2911, 697, 986, 1731, 2059, 1587, 2670, 1029, 1224, 904, 1122, 829, 1888, 760]	10	Absent	NA	NA	ABSENT	0.3576960563659668	232.4138350486755	234.4196469783783	235.236524105072	235.58636498451233	238.52580499649048	4.106158018112183	[232.42294597625732, 232.53996086120605, 233.52446293830872, 233.6911108493805, 234.44200992584229, 234.55879092216492, 234.67543697357178, 234.79242300987244, 234.9091649055481, 235.0259199142456, 235.14277291297913, 235.25937294960022, 235.37629795074463, 235.4930968284607, 235.60988783836365, 235.7266788482666, 235.84329390525818, 235.96015882492065, 236.07709002494812, 236.19368195533752, 236.31048798561096, 236.52580380439758]	[232.42193524068284, 232.53860190734952, 233.52160190734952, 233.6883019073495, 234.4383019073495, 234.5549685740162, 234.67163524068286, 234.78830190734953, 234.9049685740162, 235.02163524068288, 235.13830190734956, 235.25496857401623, 235.3716352406829, 235.48830190734958, 235.60496857401625, 235.72163524068293, 235.8383019073496, 235.95496857401628, 236.07163524068295, 236.18830190734963, 236.3049685740163, 236.53830190734962]	2021_Feb_02_1104	59.93549613248299	1	1
19	40	FALSE	NV	v	['V', 'K', 'M', 'J', 'T', 'S', 'B', 'A', 'W', 'C', 'G', 'Z', 'H', 'X', 'U', 'R']	[2245, 1122, 1224, 1029, 1888, 1731, 760, 697, 2448, 829, 944, 2911, 986, 4000, 2059, 1587]	14	Present	NA	NA	PRESENT	0.32290101051330566	238.537250995636	240.53580403327945	241.81941318511963	242.16936016082764	244.64216995239255	4.106365919113159	[238.54636096954346, 238.6629548072815, 239.6306858062744, 239.7974488735199, 240.5650668144226, 240.68197393417358, 240.79863286018372, 240.9155089855194, 241.0321660041809, 241.14901494979858, 241.2660048007965, 241.38280582427979, 241.49961280822754, 241.6162450313568, 241.71607398986816, 241.83289194107056, 241.94971299171448, 242.0664780139923, 242.1833460330963, 242.30011796951294, 242.4171600341797, 242.64216995239258]	[238.53830190734962, 238.6549685740163, 239.6379685740163, 239.8046685740163, 240.5546685740163, 240.67133524068296, 240.78800190734964, 240.9046685740163, 241.021335240683, 241.13800190734966, 241.25466857401634, 241.371335240683, 241.48800190734968, 241.60466857401636, 241.72133524068303, 241.8380019073497, 241.95466857401638, 242.07133524068306, 242.18800190734973, 242.3046685740164, 242.42133524068308, 242.6546685740164]	2021_Feb_02_1104	59.93549613248299	1	1
19	41	FALSE	NV	v	['S', 'C', 'V', 'W', 'P', 'N', 'R', 'K', 'Z', 'X', 'J', 'Y', 'U', 'E', 'A', 'B']	[1731, 829, 2245, 2448, 1456, 1335, 1587, 1122, 2911, 4000, 1029, 2670, 2059, 904, 697, 760]	10	Present	NA	NA	PRESENT	0.2235090732574463	244.64393210411072	246.6522920131683	247.46920704841617	247.81922817230225	250.7585380077362	4.106245994567871	[244.65304398536682, 244.7695119380951, 245.7539348602295, 245.92073583602905, 246.67152190208435, 246.78853392601013, 246.90530586242676, 247.02191996574402, 247.13890099525452, 247.25551199913025, 247.37248182296753, 247.4890718460083, 247.60597896575928, 247.72263598442078, 247.83953285217285, 247.9563238620758, 248.0731029510498, 248.18969798088074, 248.30679392814636, 248.42356300354004, 248.54026889801025, 248.7585368156433]	[244.6546685740164, 244.77133524068307, 245.75433524068308, 245.92103524068307, 246.67103524068307, 246.78770190734974, 246.90436857401642, 247.0210352406831, 247.13770190734976, 247.25436857401644, 247.3710352406831, 247.4877019073498, 247.60436857401646, 247.72103524068314, 247.8377019073498, 247.95436857401648, 248.07103524068316, 248.18770190734983, 248.3043685740165, 248.42103524068318, 248.53770190734986, 248.77103524068318]	2021_Feb_02_1104	59.93549613248299	1	1
19	42	FALSE	NA	v	['B', 'Y', 'A', 'N', 'U', 'K', 'R', 'G', 'Z', 'H', 'V', 'P', 'X', 'M', 'C', 'W']	[760, 2670, 697, 1335, 2059, 1122, 1587, 944, 2911, 986, 2245, 1456, 4000, 1224, 829, 2448]	13	Present	NA	NA	PRESENT	0.18087506294250488	250.7669701576233	252.7686231136322	253.93560099601743	254.28579020500183	256.8749039173126	4.10628080368042	[250.7760808467865, 250.8926978111267, 251.87700080871582, 252.04398894309998, 252.79481983184814, 252.9115710258484, 253.028461933136, 253.14529490470886, 253.26196193695068, 253.3788239955902, 253.49555492401123, 253.6123809814453, 253.72900795936584, 253.84589195251465, 253.9627799987793, 254.07954597473145, 254.19666290283203, 254.3129379749298, 254.429780960083, 254.54672598838806, 254.64668583869934, 254.87490391731262]	[250.77103524068318, 250.88770190734985, 251.87070190734985, 252.03740190734985, 252.78740190734985, 252.90406857401652, 253.0207352406832, 253.13740190734987, 253.25406857401654, 253.37073524068322, 253.4874019073499, 253.60406857401657, 253.72073524068324, 253.8374019073499, 253.9540685740166, 254.07073524068326, 254.18740190734994, 254.3040685740166, 254.42073524068329, 254.53740190734996, 254.65406857401663, 254.88740190734995]	2021_Feb_02_1104	59.93549613248299	1	1
19	43	FALSE	NA	v	['A', 'Z', 'M', 'C', 'T', 'R', 'V', 'Y', 'J', 'B', 'G', 'K', 'P', 'X', 'H', 'U']	[697, 2911, 1224, 829, 1888, 1587, 2245, 2670, 1029, 760, 944, 1122, 1456, 4000, 986, 2059]	14	Present	NA	NA	PRESENT	0.21716618537902832	256.8734350204468	258.88516306877136	260.16851711273193	260.5188510417938	262.99127101898193	4.106107950210571	[256.8825538158417, 256.9991569519043, 257.98382687568665, 258.15037083625793, 258.91807293891907, 259.01800990104675, 259.13484501838684, 259.251806974411, 259.36853885650635, 259.48510098457336, 259.60208201408386, 259.7187399864197, 259.83560395240784, 259.95234203338623, 260.0693688392639, 260.1858079433441, 260.30286693573, 260.4196820259094, 260.53631687164307, 260.65306282043457, 260.77012395858765, 260.99126982688904]	[256.88740190734995, 257.0040685740166, 257.98706857401663, 258.1537685740166, 258.9037685740166, 259.0204352406833, 259.13710190735, 259.25376857401665, 259.3704352406833, 259.48710190735, 259.60376857401667, 259.72043524068334, 259.83710190735, 259.9537685740167, 260.07043524068337, 260.18710190735004, 260.3037685740167, 260.4204352406834, 260.53710190735006, 260.65376857401674, 260.7704352406834, 261.00376857401676]	2021_Feb_02_1104	59.93549613248299	1	1
19	44	FALSE	AA	v	['S', 'B', 'C', 'G', 'R', 'Y', 'N', 'U', 'T', 'surprise', 'H', 'J', 'X', 'V', 'W', 'P']	[1731, 760, 829, 944, 1587, 2670, 1335, 2059, 1888, 'stimAuditory/all_stimAuditory/124.wav', 986, 1029, 4000, 2245, 2448, 1456]	13	Present	stimAuditory/all_stimAuditory/108.wav	stimVisual/all_stimVisual/207.jpg	PRESENT	0.18999099731445312	262.9965171813965	265.00147008895874	266.16830015182495	266.51866698265076	269.10763692855835	4.106166839599609	[263.005628824234, 263.12241101264954, 264.10672402381897, 264.2740008831024, 265.02444791793823, 265.141175031662, 265.2581708431244, 265.3748140335083, 265.4917838573456, 265.6084318161011, 265.72530484199524, 265.84215903282166, 265.95886993408203, 266.0756230354309, 266.1925358772278, 266.30914998054504, 266.42581486701965, 266.54263401031494, 266.6594920158386, 266.77623200416565, 266.89309883117676, 267.10763692855835]	[263.00376857401676, 263.12043524068343, 264.10343524068344, 264.27013524068343, 265.02013524068343, 265.1368019073501, 265.2534685740168, 265.37013524068345, 265.4868019073501, 265.6034685740168, 265.7201352406835, 265.83680190735015, 265.9534685740168, 266.0701352406835, 266.1868019073502, 266.30346857401685, 266.4201352406835, 266.5368019073502, 266.65346857401687, 266.77013524068354, 266.8868019073502, 267.12013524068357]	2021_Feb_02_1104	59.93549613248299	1	1
19	45	FALSE	NV	v	['T', 'K', 'M', 'V', 'N', 'A', 'U', 'Z', 'X', 'B', 'P', 'S', 'H', 'R', 'J', 'E']	[1888, 1122, 1224, 2245, 1335, 697, 2059, 2911, 4000, 760, 1456, 1731, 986, 1587, 1029, 904]	9	Present	NA	NA	PRESENT	0.21928000450134277	269.1197361946106	271.1176509857178	271.8182461261749	272.1679241657257	275.224004983902	4.106353998184204	[269.1288468837738, 269.22886896133423, 270.2134459018707, 270.3800950050354, 271.1477258205414, 271.2643578052521, 271.381089925766, 271.4980778694153, 271.5979619026184, 271.714781999588, 271.8315269947052, 271.94837284088135, 272.06521582603455, 272.1820559501648, 272.29879689216614, 272.4156470298767, 272.53251695632935, 272.6491279602051, 272.7660708427429, 272.88270902633667, 272.9996838569641, 273.22400403022766]	[269.12013524068357, 269.23680190735024, 270.21980190735025, 270.38650190735024, 271.13650190735024, 271.2531685740169, 271.3698352406836, 271.48650190735026, 271.60316857401693, 271.7198352406836, 271.8365019073503, 271.95316857401696, 272.06983524068363, 272.1865019073503, 272.303168574017, 272.41983524068365, 272.5365019073503, 272.653168574017, 272.7698352406837, 272.88650190735035, 273.003168574017, 273.2365019073504]	2021_Feb_02_1104	59.93549613248299	1	1
19	46	FALSE	NV	v	['A', 'J', 'B', 'C', 'Y', 'P', 'V', 'M', 'Z', 'U', 'T', 'E', 'H', 'X', 'R', 'G']	[697, 1029, 760, 829, 2670, 1456, 2245, 1224, 2911, 2059, 1888, 904, 986, 4000, 1587, 944]	14	Present	NA	NA	PRESENT	0.19180083274841309	275.22656512260437	277.23410415649414	278.51781010627747	278.8676860332489	281.3403708934784	4.106266736984253	[275.2356758117676, 275.3522758483887, 276.3364498615265, 276.50345396995544, 277.2541058063507, 277.3709030151367, 277.48790287971497, 277.604612827301, 277.72139501571655, 277.83805894851685, 277.9550359249115, 278.07159090042114, 278.1885938644409, 278.3053479194641, 278.4221680164337, 278.5388238430023, 278.6557788848877, 278.77246284484863, 278.88911986351013, 279.0064079761505, 279.1228928565979, 279.3403708934784]	[275.2365019073504, 275.35316857401705, 276.33616857401705, 276.50286857401704, 277.25286857401704, 277.3695352406837, 277.4862019073504, 277.60286857401707, 277.71953524068374, 277.8362019073504, 277.9528685740171, 278.06953524068376, 278.18620190735044, 278.3028685740171, 278.4195352406838, 278.53620190735046, 278.65286857401713, 278.7695352406838, 278.8862019073505, 279.00286857401716, 279.11953524068383, 279.3528685740172]	2021_Feb_02_1104	59.93549613248299	1	1
19	47	FALSE	NN	v	['T', 'V', 'P', 'C', 'B', 'J', 'H', 'E', 'W', 'K', 'G', 'Z', 'M', 'S', 'A', 'Y']	[1888, 2245, 1456, 829, 760, 1029, 986, 904, 2448, 1122, 944, 2911, 1224, 1731, 697, 2670]	11	Absent	NA	NA	ABSENT	1.053142786026001	281.3494641780853	283.3502821922302	284.2841250896454	284.63427209854126	287.4567368030548	4.106454610824585	[281.3585739135742, 281.4753029346466, 282.4597120285034, 282.6266829967499, 283.3772699832916, 283.49399495124817, 283.61081981658936, 283.72789001464844, 283.84440088272095, 283.961238861084, 284.0782380104065, 284.1949899196625, 284.31184697151184, 284.4284658432007, 284.5454409122467, 284.662220954895, 284.77897000312805, 284.8956689834595, 285.0122628211975, 285.12915992736816, 285.2294318675995, 285.4567379951477]	[281.3528685740172, 281.46953524068385, 282.45253524068386, 282.61923524068385, 283.36923524068385, 283.4859019073505, 283.6025685740172, 283.7192352406839, 283.83590190735055, 283.9525685740172, 284.0692352406839, 284.18590190735057, 284.30256857401724, 284.4192352406839, 284.5359019073506, 284.65256857401727, 284.76923524068394, 284.8859019073506, 285.0025685740173, 285.11923524068396, 285.23590190735064, 285.469235240684]	2021_Feb_02_1104	59.93549613248299	1	1
19	48	FALSE	AA	v	['Z', 'V', 'Y', 'G', 'M', 'W', 'surprise', 'N', 'H', 'X', 'S', 'J', 'C', 'U', 'T', 'E']	[2911, 2245, 2670, 944, 1224, 2448, 'stimAuditory/all_stimAuditory/112.wav', 1335, 986, 4000, 1731, 1029, 829, 2059, 1888, 904]	10	Present	stimAuditory/all_stimAuditory/222.wav	stimVisual/all_stimVisual/217.jpg	PRESENT	0.2656280994415283	287.4558880329132	289.46668100357056	290.2838280200958	290.6336750984192	293.5731039047241	4.1064229011535645	[287.4649999141693, 287.5818359851837, 288.56627082824707, 288.73304080963135, 289.4836640357971, 289.60054993629456, 289.71741580963135, 289.8340928554535, 289.9510009288788, 290.0677788257599, 290.2012870311737, 290.3013668060303, 290.4183328151703, 290.5349760055542, 290.65169882774353, 290.76867294311523, 290.88551902770996, 291.00217390060425, 291.1190469264984, 291.2356958389282, 291.3524010181427, 291.5731029510498]	[287.469235240684, 287.58590190735066, 288.56890190735066, 288.73560190735066, 289.48560190735066, 289.60226857401733, 289.718935240684, 289.8356019073507, 289.95226857401735, 290.068935240684, 290.1856019073507, 290.3022685740174, 290.41893524068405, 290.5356019073507, 290.6522685740174, 290.7689352406841, 290.88560190735075, 291.0022685740174, 291.1189352406841, 291.23560190735077, 291.35226857401744, 291.5856019073508]	2021_Feb_02_1104	59.93549613248299	1	1
19	49	FALSE	NA	v	['P', 'S', 'W', 'Y', 'G', 'E', 'J', 'U', 'H', 'X', 'Z', 'A', 'K', 'C', 'V', 'R']	[1456, 1731, 2448, 2670, 944, 904, 1029, 2059, 986, 4000, 2911, 697, 1122, 829, 2245, 1587]	10	Present	NA	NA	PRESENT	0.31003904342651367	293.5790979862213	295.58314299583435	296.400053024292	296.75016808509827	299.68947100639343	4.106328010559082	[293.5882098674774, 293.704952955246, 294.68955397605896, 294.85639786720276, 295.6074068546295, 295.72378396987915, 295.84069991111755, 295.9573218822479, 296.07424092292786, 296.19092082977295, 296.30781388282776, 296.4246509075165, 296.5414328575134, 296.65837693214417, 296.77496695518494, 296.8917980194092, 297.0084629058838, 297.125403881073, 297.24204182624817, 297.3590259552002, 297.4756410121918, 297.68946981430054]	[293.5856019073508, 293.70226857401747, 294.68526857401747, 294.85196857401746, 295.60196857401746, 295.71863524068414, 295.8353019073508, 295.9519685740175, 296.06863524068416, 296.18530190735083, 296.3019685740175, 296.4186352406842, 296.53530190735086, 296.65196857401753, 296.7686352406842, 296.8853019073509, 297.00196857401755, 297.1186352406842, 297.2353019073509, 297.3519685740176, 297.46863524068425, 297.7019685740176]	2021_Feb_02_1104	59.93549613248299	1	1
19	50	FALSE	NA	v	['U', 'Z', 'A', 'W', 'T', 'P', 'M', 'X', 'R', 'E', 'Y', 'H', 'B', 'G', 'K', 'N']	[2059, 2911, 697, 2448, 1888, 1456, 1224, 4000, 1587, 904, 2670, 986, 760, 944, 1122, 1335]	8	Present	NA	NA	PRESENT	0.3952500820159912	299.7023911476135	301.69941902160645	302.28315019607544	302.6337070465088	305.80583691596985	4.106417894363403	[299.71150183677673, 299.8113830089569, 300.79594802856445, 300.9627139568329, 301.730180978775, 301.8301649093628, 301.94701290130615, 302.06384897232056, 302.1806409358978, 302.2974519729614, 302.4142348766327, 302.5310778617859, 302.6478090286255, 302.7645788192749, 302.8815188407898, 302.99815487861633, 303.11509585380554, 303.2317500114441, 303.3487129211426, 303.46529603004456, 303.5822558403015, 303.80583691596985]	[299.7019685740176, 299.8186352406843, 300.8016352406843, 300.96833524068427, 301.71833524068427, 301.83500190735094, 301.9516685740176, 302.0683352406843, 302.18500190735097, 302.30166857401764, 302.4183352406843, 302.535001907351, 302.65166857401766, 302.76833524068434, 302.885001907351, 303.0016685740177, 303.11833524068436, 303.23500190735103, 303.3516685740177, 303.4683352406844, 303.58500190735106, 303.8183352406844]	2021_Feb_02_1104	59.93549613248299	1	1
19	51	FALSE	NA	v	['H', 'A', 'K', 'Z', 'C', 'Y', 'G', 'S', 'P', 'M', 'X', 'T', 'R', 'N', 'W', 'V']	[986, 697, 1122, 2911, 829, 2670, 944, 1731, 1456, 1224, 4000, 1888, 1587, 1335, 2448, 2245]	11	Present	NA	NA	PRESENT	0.22390484809875488	305.80908012390137	307.8158791065216	308.7495210170746	309.0996460914612	311.92220401763916	4.106324911117554	[305.81819200515747, 305.93479681015015, 306.9192578792572, 307.0860378742218, 307.8367040157318, 307.9534478187561, 308.07042384147644, 308.1870918273926, 308.3039519786835, 308.4208209514618, 308.5373549461365, 308.654394865036, 308.7710738182068, 308.8878560066223, 309.00476002693176, 309.12163186073303, 309.2381329536438, 309.35510301589966, 309.4719798564911, 309.58868885040283, 309.7055058479309, 309.9222049713135]	[305.8183352406844, 305.9350019073511, 306.9180019073511, 307.0847019073511, 307.8347019073511, 307.95136857401775, 308.0680352406844, 308.1847019073511, 308.3013685740178, 308.41803524068445, 308.5347019073511, 308.6513685740178, 308.76803524068447, 308.88470190735114, 309.0013685740178, 309.1180352406845, 309.23470190735117, 309.35136857401784, 309.4680352406845, 309.5847019073512, 309.70136857401786, 309.9347019073512]	2021_Feb_02_1104	59.93549613248299	1	1
19	52	FALSE	NV	v	['V', 'K', 'U', 'Z', 'G', 'J', 'B', 'A', 'H', 'Y', 'S', 'T', 'X', 'R', 'C', 'P']	[2245, 1122, 2059, 2911, 944, 1029, 760, 697, 986, 2670, 1731, 1888, 4000, 1587, 829, 1456]	13	Present	NA	NA	PRESENT	0.2531118392944336	311.9321231842041	313.93200516700745	315.0991630554199	315.44924998283386	318.0385708808899	4.106565713882446	[311.941232919693, 312.0577919483185, 313.04219698905945, 313.20904994010925, 313.9599108695984, 314.07671785354614, 314.19344782829285, 314.3103458881378, 314.4272048473358, 314.54401993751526, 314.66069889068604, 314.7774178981781, 314.8942229747772, 315.01109194755554, 315.1277389526367, 315.245080947876, 315.3614728450775, 315.4781219959259, 315.5952079296112, 315.7118978500366, 315.8120620250702, 316.0385699272156]	[311.9347019073512, 312.0513685740179, 313.0343685740179, 313.2010685740179, 313.9510685740179, 314.06773524068456, 314.18440190735123, 314.3010685740179, 314.4177352406846, 314.53440190735125, 314.6510685740179, 314.7677352406846, 314.8844019073513, 315.00106857401795, 315.1177352406846, 315.2344019073513, 315.351068574018, 315.46773524068465, 315.5844019073513, 315.701068574018, 315.81773524068467, 316.051068574018]	2021_Feb_02_1104	59.93549613248299	1	1
19	53	FALSE	NA	v	['A', 'C', 'U', 'Z', 'J', 'E', 'B', 'X', 'M', 'G', 'V', 'R', 'Y', 'P', 'K', 'N']	[697, 829, 2059, 2911, 1029, 904, 760, 4000, 1224, 944, 2245, 1587, 2670, 1456, 1122, 1335]	8	Present	NA	NA	PRESENT	0.3057830333709717	318.03847002983093	320.04863810539246	320.63276410102844	320.9822771549225	324.1549379825592	4.106299877166748	[318.04758191108704, 318.16455602645874, 319.1488950252533, 319.3157448768616, 320.0663809776306, 320.18325090408325, 320.30014300346375, 320.41677689552307, 320.5336458683014, 320.6503429412842, 320.76707196235657, 320.8840618133545, 321.00086188316345, 321.11773800849915, 321.2343738079071, 321.3511018753052, 321.4680919647217, 321.5847268104553, 321.70158982276917, 321.8184378147125, 321.93519401550293, 322.1549379825592]	[318.051068574018, 318.1677352406847, 319.1507352406847, 319.3174352406847, 320.0674352406847, 320.18410190735136, 320.30076857401804, 320.4174352406847, 320.5341019073514, 320.65076857401806, 320.76743524068473, 320.8841019073514, 321.0007685740181, 321.11743524068476, 321.23410190735143, 321.3507685740181, 321.4674352406848, 321.58410190735145, 321.7007685740181, 321.8174352406848, 321.9341019073515, 322.1674352406848]	2021_Feb_02_1104	59.93549613248299	1	1
19	54	FALSE	NA	v	['E', 'B', 'J', 'V', 'U', 'H', 'G', 'W', 'A', 'K', 'X', 'S', 'T', 'N', 'P', 'Y']	[904, 760, 1029, 2245, 2059, 986, 944, 2448, 697, 1122, 4000, 1731, 1888, 1335, 1456, 2670]	11	Present	NA	NA	PRESENT	0.2463691234588623	324.1617941856384	326.1650710105896	327.09863114356995	327.4488492012024	330.2713038921356	4.1062328815460205	[324.17090487480164, 324.28758692741394, 325.27217292785645, 325.43888783454895, 326.18965697288513, 326.30647897720337, 326.42310190200806, 326.539922952652, 326.65668201446533, 326.7738118171692, 326.890300989151, 327.00718092918396, 327.1239290237427, 327.2407510280609, 327.3576319217682, 327.4744498729706, 327.5911898612976, 327.70808696746826, 327.8247129917145, 327.94142484664917, 328.05841302871704, 328.2713029384613]	[324.1674352406848, 324.2841019073515, 325.2671019073515, 325.4338019073515, 326.1838019073515, 326.30046857401817, 326.41713524068484, 326.5338019073515, 326.6504685740182, 326.76713524068487, 326.88380190735154, 327.0004685740182, 327.1171352406849, 327.23380190735156, 327.35046857401824, 327.4671352406849, 327.5838019073516, 327.70046857401826, 327.81713524068493, 327.9338019073516, 328.0504685740183, 328.28380190735163]	2021_Feb_02_1104	59.93549613248299	1	1
19	55	FALSE	NV	v	['R', 'J', 'V', 'G', 'C', 'U', 'Y', 'T', 'X', 'Z', 'P', 'K', 'M', 'E', 'H', 'S']	[1587, 1029, 2245, 944, 829, 2059, 2670, 1888, 4000, 2911, 1456, 1122, 1224, 904, 986, 1731]	9	Present	NA	NA	PRESENT	0.24349594116210935	330.2681369781494	332.2814199924469	332.9815351963043	333.3321671485901	336.38767099380493	4.106251001358032	[330.2772469520569, 330.3939628601074, 331.3785619735718, 331.5452389717102, 332.31303191185, 332.41275787353516, 332.5295579433441, 332.64632201194763, 332.7632930278778, 332.8799638748169, 332.9969048500061, 333.11357498168945, 333.2304718494415, 333.3470950126648, 333.46404099464417, 333.58076095581055, 333.6975419521332, 333.8144419193268, 333.93134093284607, 334.04799795150757, 334.164913892746, 334.38767099380493]	[330.28380190735163, 330.4004685740183, 331.3834685740183, 331.5501685740183, 332.3001685740183, 332.416835240685, 332.53350190735165, 332.6501685740183, 332.766835240685, 332.8835019073517, 333.00016857401835, 333.116835240685, 333.2335019073517, 333.35016857401837, 333.46683524068504, 333.5835019073517, 333.7001685740184, 333.81683524068507, 333.93350190735174, 334.0501685740184, 334.1668352406851, 334.40016857401844]	2021_Feb_02_1104	59.93549613248299	1	1
19	56	FALSE	NV	v	['G', 'V', 'T', 'E', 'K', 'N', 'P', 'Z', 'M', 'R', 'Y', 'U', 'H', 'X', 'W', 'C']	[944, 2245, 1888, 904, 1122, 1335, 1456, 2911, 1224, 1587, 2670, 2059, 986, 4000, 2448, 829]	14	Present	NA	NA	PRESENT	0.21619391441345215	336.3918101787567	338.3979251384735	339.6816852092743	340.0314130783081	342.50403690338135	4.106111764907837	[336.4009208679199, 336.51734495162964, 337.5016288757324, 337.6684899330139, 338.41931986808777, 338.53604102134705, 338.65298986434937, 338.76966285705566, 338.8863399028778, 339.00319600105286, 339.1202359199524, 339.2368869781494, 339.3537769317627, 339.47053384780884, 339.5871570110321, 339.70408487319946, 339.8208158016205, 339.9377210140228, 340.05432200431824, 340.17106199264526, 340.28805685043335, 340.50403690338135]	[336.40016857401844, 336.5168352406851, 337.4998352406851, 337.6665352406851, 338.4165352406851, 338.5332019073518, 338.64986857401846, 338.76653524068513, 338.8832019073518, 338.9998685740185, 339.11653524068515, 339.2332019073518, 339.3498685740185, 339.4665352406852, 339.58320190735185, 339.6998685740185, 339.8165352406852, 339.9332019073519, 340.04986857401855, 340.1665352406852, 340.2832019073519, 340.51653524068524]	2021_Feb_02_1104	59.93549613248299	1	1
19	57	FALSE	NV	v	['W', 'J', 'A', 'Z', 'E', 'H', 'V', 'G', 'S', 'P', 'B', 'R', 'X', 'T', 'K', 'M']	[2448, 1029, 697, 2911, 904, 986, 2245, 944, 1731, 1456, 760, 1587, 4000, 1888, 1122, 1224]	13	Present	NA	NA	PRESENT	0.21352720260620117	342.5145649909973	344.514288187027	345.681116104126	346.0315320491791	348.620404958725	4.106116771697998	[342.5236768722534, 342.64051580429077, 343.6249649524689, 343.7917649745941, 344.5424118041992, 344.6594820022583, 344.7760009765625, 344.892982006073, 345.0097680091858, 345.1266219615936, 345.24314880371094, 345.360200881958, 345.47677993774414, 345.5936198234558, 345.71033692359924, 345.8273129463196, 345.94390392303467, 346.0609498023987, 346.1779799461365, 346.29438185691833, 346.39434480667114, 346.62040400505066]	[342.51653524068524, 342.6332019073519, 343.6162019073519, 343.7829019073519, 344.5329019073519, 344.6495685740186, 344.76623524068526, 344.88290190735194, 344.9995685740186, 345.1162352406853, 345.23290190735196, 345.34956857401863, 345.4662352406853, 345.582901907352, 345.69956857401866, 345.81623524068533, 345.932901907352, 346.0495685740187, 346.16623524068535, 346.282901907352, 346.3995685740187, 346.63290190735205]	2021_Feb_02_1104	59.93549613248299	1	1
19	58	FALSE	NN	v	['R', 'Z', 'M', 'G', 'Y', 'P', 'J', 'N', 'H', 'V', 'B', 'K', 'E', 'A', 'T', 'C']	[1587, 2911, 1224, 944, 2670, 1456, 1029, 1335, 986, 2245, 760, 1122, 904, 697, 1888, 829]	10	Absent	NA	NA	ABSENT	0.2498629093170166	348.6212420463562	350.63026309013367	351.44757103919983	351.79731798171997	354.7367699146271	4.106506824493408	[348.6303520202637, 348.7469630241394, 349.7313108444214, 349.8983099460602, 350.64904403686523, 350.76595091819763, 350.8827528953552, 350.99949193000793, 351.116308927536, 351.23291993141174, 351.3497738838196, 351.46658396720886, 351.58341693878174, 351.7001509666443, 351.8169159889221, 351.9337718486786, 352.05057883262634, 352.16731095314026, 352.28428196907043, 352.40101981163025, 352.5176649093628, 352.7367708683014]	[348.63290190735205, 348.7495685740187, 349.7325685740187, 349.8992685740187, 350.6492685740187, 350.7659352406854, 350.88260190735207, 350.99926857401874, 351.1159352406854, 351.2326019073521, 351.34926857401877, 351.46593524068544, 351.5826019073521, 351.6992685740188, 351.81593524068546, 351.93260190735214, 352.0492685740188, 352.1659352406855, 352.28260190735216, 352.39926857401883, 352.5159352406855, 352.74926857401886]	2021_Feb_02_1104	59.93549613248299	1	1
19	59	FALSE	VA	v	['T', 'W', 'E', 'A', 'Z', 'J', 'U', 'S', 'C', 'surprise', 'R', 'N', 'X', 'K', 'G', 'M']	[1888, 2448, 904, 697, 2911, 1029, 2059, 1731, 829, 'stimAuditory/all_stimAuditory/106.wav', 1587, 1335, 4000, 1122, 944, 1224]	13	Present	NA	stimVisual/all_stimVisual/113.jpg	PRESENT	0.23954200744628903	354.74434304237366	356.74688816070557	357.91402411460876	358.2638580799103	360.8531370162964	4.10624885559082	[354.7534530162811, 354.8701379299164, 355.8548538684845, 356.02128291130066, 356.77252888679504, 356.88917899131775, 357.0057339668274, 357.1226899623871, 357.2392089366913, 357.35622000694275, 357.4729149341583, 357.5898988246918, 357.7064850330353, 357.82329988479614, 357.9401159286499, 358.05691480636597, 358.1736788749695, 358.290580034256, 358.4072599411011, 358.5240988731384, 358.6410539150238, 358.8531379699707]	[354.74926857401886, 354.86593524068553, 355.84893524068553, 356.0156352406855, 356.7656352406855, 356.8823019073522, 356.9989685740189, 357.11563524068555, 357.2323019073522, 357.3489685740189, 357.4656352406856, 357.58230190735225, 357.6989685740189, 357.8156352406856, 357.93230190735227, 358.04896857401894, 358.1656352406856, 358.2823019073523, 358.39896857401897, 358.51563524068564, 358.6323019073523, 358.86563524068566]	2021_Feb_02_1104	59.93549613248299	1	1
19	60	FALSE	NA	v	['G', 'W', 'C', 'J', 'U', 'T', 'A', 'X', 'M', 'K', 'R', 'H', 'Z', 'N', 'E', 'S']	[944, 2448, 829, 1029, 2059, 1888, 697, 4000, 1224, 1122, 1587, 986, 2911, 1335, 904, 1731]	8	Present	NA	NA	PRESENT	0.4198951721191406	360.85064816474915	362.86338806152344	363.4469270706177	363.79670214653015	366.9695038795471	4.106115818023682	[360.85975790023804, 360.9765729904175, 361.9611539840698, 362.1279900074005, 362.89538192749023, 362.9954068660736, 363.11237502098083, 363.22908782958984, 363.34600281715393, 363.4625039100647, 363.5794949531555, 363.6962478160858, 363.8129279613495, 363.92982482910156, 364.0465679168701, 364.1634259223938, 364.2802929878235, 364.39705181121826, 364.51390981674194, 364.6305139064789, 364.7474949359894, 364.9695029258728]	[360.86563524068566, 360.98230190735234, 361.96530190735234, 362.13200190735233, 362.88200190735233, 362.998668574019, 363.1153352406857, 363.23200190735236, 363.34866857401903, 363.4653352406857, 363.5820019073524, 363.69866857401905, 363.8153352406857, 363.9320019073524, 364.0486685740191, 364.16533524068575, 364.2820019073524, 364.3986685740191, 364.5153352406858, 364.63200190735245, 364.7486685740191, 364.98200190735247]	2021_Feb_02_1104	59.93549613248299	1	1
19	61	FALSE	NN	v	['N', 'H', 'R', 'Y', 'K', 'M', 'U', 'V', 'P', 'E', 'Z', 'G', 'J', 'W', 'T', 'B']	[1335, 986, 1587, 2670, 1122, 1224, 2059, 2245, 1456, 904, 2911, 944, 1029, 2448, 1888, 760]	13	Absent	NA	NA	ABSENT	0.5524768829345703	366.9744000434875	368.9792611598969	370.14657402038574	370.49716901779175	373.0858700275421	4.106608867645264	[366.98351097106934, 367.0998430252075, 368.0841338634491, 368.25101685523987, 369.0020179748535, 369.11882185935974, 369.23564887046814, 369.3523199558258, 369.46905183792114, 369.5858778953552, 369.70256781578064, 369.8195400238037, 369.9361469745636, 370.0530779361725, 370.1698110103607, 370.2865660190582, 370.40330696105957, 370.52023100852966, 370.63686990737915, 370.7536919116974, 370.8704960346222, 371.08587098121643]	[366.98200190735247, 367.09866857401914, 368.08166857401915, 368.24836857401914, 368.99836857401914, 369.1150352406858, 369.2317019073525, 369.34836857401916, 369.46503524068584, 369.5817019073525, 369.6983685740192, 369.81503524068586, 369.93170190735253, 370.0483685740192, 370.1650352406859, 370.28170190735256, 370.39836857401923, 370.5150352406859, 370.6317019073526, 370.74836857401925, 370.8650352406859, 371.0983685740193]	2021_Feb_02_1104	59.93549613248299	1	1
19	62	FALSE	NV	v	['N', 'H', 'G', 'Y', 'V', 'K', 'Z', 'C', 'B', 'S', 'E', 'A', 'X', 'W', 'M', 'P']	[1335, 986, 944, 2670, 2245, 1122, 2911, 829, 760, 1731, 904, 697, 4000, 2448, 1224, 1456]	13	Present	NA	NA	PRESENT	0.24570202827453613	373.0973551273346	375.0961410999298	376.26305413246155	376.6129751205444	379.2022378444672	4.1060967445373535	[373.1064648628235, 373.2231078147888, 374.19068694114685, 374.3574969768524, 375.1250410079956, 375.2418839931488, 375.35879492759705, 375.47554898262024, 375.59232783317566, 375.7089819908142, 375.8258888721466, 375.94251799583435, 376.05932092666626, 376.1766040325165, 376.2928659915924, 376.39285492897034, 376.5097379684448, 376.6264958381653, 376.7433569431305, 376.8601748943329, 376.9769129753113, 377.20223689079285]	[373.0983685740193, 373.21503524068595, 374.19803524068595, 374.36473524068595, 375.11473524068595, 375.2314019073526, 375.3480685740193, 375.46473524068597, 375.58140190735264, 375.6980685740193, 375.814735240686, 375.93140190735267, 376.04806857401934, 376.164735240686, 376.2814019073527, 376.39806857401936, 376.51473524068604, 376.6314019073527, 376.7480685740194, 376.86473524068606, 376.98140190735273, 377.2147352406861]	2021_Feb_02_1104	59.93549613248299	1	1
19	63	FALSE	AN	v	['R', 'H', 'U', 'Z', 'N', 'V', 'M', 'E', 'Y', 'surprise', 'S', 'T', 'W', 'A', 'J', 'K']	[1587, 986, 2059, 2911, 1335, 2245, 1224, 904, 2670, 'stimAuditory/all_stimAuditory/213.wav', 1731, 1888, 2448, 697, 1029, 1122]	13	Absent	stimAuditory/all_stimAuditory/203.wav	stimVisual/all_stimVisual/122.jpg	ABSENT	0.22629499435424805	379.20366311073303	381.2125470638275	382.3792061805725	382.7293570041657	385.31860399246216	4.1060569286346436	[379.21277379989624, 379.3294868469238, 380.3138108253479, 380.48084783554077, 381.2316620349884, 381.3484628200531, 381.46512603759766, 381.58204102516174, 381.6986508369446, 381.8155620098114, 381.93244981765747, 382.04899501800537, 382.1658408641815, 382.2992990016937, 382.3993339538574, 382.5163538455963, 382.63303303718567, 382.74997186660767, 382.86676383018494, 382.9833698272705, 383.10017681121826, 383.3186049461365]	[379.2147352406861, 379.33140190735276, 380.31440190735276, 380.48110190735275, 381.23110190735275, 381.3477685740194, 381.4644352406861, 381.5811019073528, 381.69776857401945, 381.8144352406861, 381.9311019073528, 382.04776857401947, 382.16443524068615, 382.2811019073528, 382.3977685740195, 382.51443524068617, 382.63110190735284, 382.7477685740195, 382.8644352406862, 382.98110190735287, 383.09776857401954, 383.3311019073529]	2021_Feb_02_1104	59.93549613248299	1	1
19	64	FALSE	NA	v	['P', 'A', 'U', 'B', 'R', 'T', 'N', 'X', 'K', 'W', 'J', 'H', 'S', 'V', 'C', 'M']	[1456, 697, 2059, 760, 1587, 1888, 1335, 4000, 1122, 2448, 1029, 986, 1731, 2245, 829, 1224]	8	Present	NA	NA	PRESENT	0.3916940689086914	385.3269231319427	387.3286190032959	387.9125351905823	388.26234316825867	391.4349708557129	4.106351852416992	[385.33603382110596, 385.45279598236084, 386.43752789497375, 386.6039628982544, 387.35475897789, 387.4714858531952, 387.5883228778839, 387.70530700683594, 387.82194781303406, 387.938747882843, 388.055557012558, 388.17230582237244, 388.28915095329285, 388.40601682662964, 388.5225749015808, 388.63944602012634, 388.75637793540955, 388.87311482429504, 388.99007987976074, 389.1066620349884, 389.20670986175537, 389.4349708557129]	[385.3311019073529, 385.44776857401956, 386.43076857401957, 386.59746857401956, 387.34746857401956, 387.46413524068623, 387.5808019073529, 387.6974685740196, 387.81413524068626, 387.93080190735293, 388.0474685740196, 388.1641352406863, 388.28080190735295, 388.3974685740196, 388.5141352406863, 388.630801907353, 388.74746857401965, 388.8641352406863, 388.980801907353, 389.0974685740197, 389.21413524068635, 389.4474685740197]	2021_Feb_02_1104	59.93549613248299	1	1
19	65	FALSE	NA	v	['N', 'G', 'E', 'T', 'W', 'J', 'V', 'H', 'S', 'X', 'U', 'B', 'R', 'P', 'K', 'M']	[1335, 944, 904, 1888, 2448, 1029, 2245, 986, 1731, 4000, 2059, 760, 1587, 1456, 1122, 1224]	10	Present	NA	NA	PRESENT	0.30012011528015137	391.4334330558777	393.44500613212585	394.2622320652008	394.6120641231537	397.5513370037079	4.106330871582031	[391.4425439834595, 391.5591928958893, 392.5437150001526, 392.7106399536133, 393.4779818058014, 393.57802987098694, 393.6950249671936, 393.81166887283325, 393.9286079406738, 394.04541993141174, 394.1620488166809, 394.27896094322205, 394.3956618309021, 394.5123429298401, 394.6292119026184, 394.7460160255432, 394.8628718852997, 394.97959899902344, 395.0961608886719, 395.2132489681244, 395.32995080947876, 395.5513370037079]	[391.4474685740197, 391.56413524068637, 392.5471352406864, 392.71383524068636, 393.46383524068636, 393.58050190735304, 393.6971685740197, 393.8138352406864, 393.93050190735306, 394.04716857401974, 394.1638352406864, 394.2805019073531, 394.39716857401976, 394.51383524068643, 394.6305019073531, 394.7471685740198, 394.86383524068646, 394.98050190735313, 395.0971685740198, 395.2138352406865, 395.33050190735315, 395.5638352406865]	2021_Feb_02_1104	59.93549613248299	1	1
19	66	FALSE	NA	v	['S', 'K', 'W', 'J', 'H', 'E', 'B', 'U', 'V', 'X', 'N', 'G', 'T', 'C', 'Z', 'P']	[1731, 1122, 2448, 1029, 986, 904, 760, 2059, 2245, 4000, 1335, 944, 1888, 829, 2911, 1456]	10	Present	NA	NA	PRESENT	0.2807128429412842	397.55697202682495	399.56128907203674	400.3782820701599	400.7284841537475	403.6677029132843	4.106413841247559	[397.5660820007324, 397.68243193626404, 398.66696190834045, 398.8335168361664, 399.5844748020172, 399.70131492614746, 399.81804895401, 399.93496680259705, 400.05156087875366, 400.1685128211975, 400.2852258682251, 400.4021339416504, 400.51873803138733, 400.63562202453613, 400.7522690296173, 400.8692328929901, 400.98595094680786, 401.10290002822876, 401.2196159362793, 401.33631682395935, 401.4532220363617, 401.6677029132843]	[397.5638352406865, 397.6805019073532, 398.6635019073532, 398.83020190735317, 399.58020190735317, 399.69686857401985, 399.8135352406865, 399.9302019073532, 400.04686857401987, 400.16353524068654, 400.2802019073532, 400.3968685740199, 400.51353524068656, 400.63020190735324, 400.7468685740199, 400.8635352406866, 400.98020190735326, 401.09686857401994, 401.2135352406866, 401.3302019073533, 401.44686857401996, 401.6802019073533]	2021_Feb_02_1104	59.93549613248299	1	1
19	67	FALSE	NA	v	['P', 'C', 'V', 'A', 'Z', 'S', 'E', 'M', 'J', 'X', 'R', 'H', 'T', 'K', 'G', 'Y']	[1456, 829, 2245, 697, 2911, 1731, 904, 1224, 1029, 4000, 1587, 986, 1888, 1122, 944, 2670]	10	Present	NA	NA	PRESENT	0.35798192024230957	403.67990803718567	405.67785000801086	406.4948379993439	406.8446810245514	409.7840700149536	4.106220006942749	[403.68901896476746, 403.80581402778625, 404.77324080467224, 404.94021582603455, 405.70764780044556, 405.8244228363037, 405.94127202033997, 406.0580909252167, 406.15811491012573, 406.2748520374298, 406.3916299343109, 406.50831484794617, 406.64212584495544, 406.74196696281433, 406.85876083374023, 406.9755790233612, 407.09239888191223, 407.2093689441681, 407.3259828090668, 407.4427788257599, 407.55958795547485, 407.7840700149536]	[403.6802019073533, 403.79686857402, 404.77986857402, 404.94656857402, 405.69656857402, 405.81323524068665, 405.9299019073533, 406.04656857402, 406.1632352406867, 406.27990190735335, 406.39656857402, 406.5132352406867, 406.62990190735337, 406.74656857402005, 406.8632352406867, 406.9799019073534, 407.09656857402007, 407.21323524068674, 407.3299019073534, 407.4465685740201, 407.56323524068677, 407.7965685740201]	2021_Feb_02_1104	59.93549613248299	1	1
19	68	FALSE	NA	v	['R', 'A', 'S', 'M', 'T', 'V', 'P', 'U', 'N', 'W', 'J', 'B', 'X', 'H', 'K', 'C']	[1587, 697, 1731, 1224, 1888, 2245, 1456, 2059, 1335, 2448, 1029, 760, 4000, 986, 1122, 829]	13	Present	NA	NA	PRESENT	0.3226950168609619	409.7863039970398	411.7940480709076	412.9616091251374	413.3112120628357	415.90043687820435	4.106388807296753	[409.7954149246216, 409.91217398643494, 410.8964149951935, 411.06343483924866, 411.8140149116516, 411.9310348033905, 412.0478458404541, 412.16450786590576, 412.2814898490906, 412.3982458114624, 412.5149848461151, 412.6316328048706, 412.74846601486206, 412.86543583869934, 412.9820249080658, 413.0989649295807, 413.2154939174652, 413.33254981040955, 413.44929599761963, 413.56622886657715, 413.6828680038452, 413.90043783187866]	[409.7965685740201, 409.9132352406868, 410.8962352406868, 411.0629352406868, 411.8129352406868, 411.92960190735346, 412.04626857402013, 412.1629352406868, 412.2796019073535, 412.39626857402016, 412.51293524068683, 412.6296019073535, 412.7462685740202, 412.86293524068685, 412.9796019073535, 413.0962685740202, 413.2129352406869, 413.32960190735355, 413.4462685740202, 413.5629352406869, 413.6796019073536, 413.9129352406869]	2021_Feb_02_1104	59.93549613248299	1	1
19	69	FALSE	NV	v	['G', 'B', 'P', 'V', 'W', 'J', 'T', 'Y', 'N', 'R', 'X', 'A', 'U', 'K', 'Z', 'C']	[944, 760, 1456, 2245, 2448, 1029, 1888, 2670, 1335, 1587, 4000, 697, 2059, 1122, 2911, 829]	11	Present	NA	NA	PRESENT	0.29587888717651367	415.9093840122223	417.9107241630554	418.8441879749298	419.19423818588257	422.016804933548	4.106080770492554	[415.91849398612976, 416.0354299545288, 417.0198369026184, 417.1869149208069, 417.9374098777771, 418.0543439388275, 418.1708779335022, 418.28772592544556, 418.4045310020447, 418.52142095565796, 418.6382110118866, 418.7547788619995, 418.8717830181122, 418.9884638786316, 419.1053259372711, 419.2219228744507, 419.33904480934143, 419.45569801330566, 419.57261395454407, 419.68918895721436, 419.7892110347748, 420.016804933548]	[415.9129352406869, 416.0296019073536, 417.0126019073536, 417.1793019073536, 417.9293019073536, 418.04596857402026, 418.16263524068694, 418.2793019073536, 418.3959685740203, 418.51263524068696, 418.62930190735364, 418.7459685740203, 418.862635240687, 418.97930190735366, 419.09596857402033, 419.212635240687, 419.3293019073537, 419.44596857402036, 419.56263524068703, 419.6793019073537, 419.7959685740204, 420.0293019073537]	2021_Feb_02_1104	59.93549613248299	1	1
19	70	FALSE	NA	v	['H', 'J', 'B', 'K', 'R', 'E', 'Z', 'C', 'Y', 'U', 'X', 'S', 'P', 'G', 'V', 'T']	[986, 1029, 760, 1122, 1587, 904, 2911, 829, 2670, 2059, 4000, 1731, 1456, 944, 2245, 1888]	11	Present	NA	NA	ABSENT	0.2842731475830078	422.0159339904785	424.0268130302429	424.9605631828308	425.3106269836426	428.1331708431244	4.10635781288147	[422.0250449180603, 422.1419749259949, 423.12617897987366, 423.2930808067322, 424.04373693466187, 424.1606788635254, 424.2775959968567, 424.39428186416626, 424.5109329223633, 424.62792897224426, 424.74479603767395, 424.8614468574524, 424.97818994522095, 425.0950210094452, 425.2118740081787, 425.32860803604126, 425.4454138278961, 425.5622868537903, 425.6788308620453, 425.7958369255066, 425.91243290901184, 426.1331708431244]	[422.0293019073537, 422.1459685740204, 423.1289685740204, 423.2956685740204, 424.0456685740204, 424.16233524068707, 424.27900190735375, 424.3956685740204, 424.5123352406871, 424.62900190735377, 424.74566857402044, 424.8623352406871, 424.9790019073538, 425.09566857402046, 425.21233524068714, 425.3290019073538, 425.4456685740205, 425.56233524068716, 425.67900190735384, 425.7956685740205, 425.9123352406872, 426.14566857402053]	2021_Feb_02_1104	59.93549613248299	1	1
19	71	FALSE	AV	v	['U', 'Z', 'N', 'H', 'M', 'V', 'surprise', 'S', 'T', 'X', 'A', 'Y', 'K', 'G', 'E', 'W']	[2059, 2911, 1335, 986, 1224, 2245, 'stimAuditory/all_stimAuditory/220.wav', 1731, 1888, 4000, 697, 2670, 1122, 944, 904, 2448]	10	Present	stimAuditory/all_stimAuditory/224.wav	stimVisual/all_stimVisual/201.jpg	ABSENT	0.13685202598571777	428.139513015747	430.1432399749756	430.96053314208984	431.3103950023651	434.2495379447937	4.106297969818115	[428.14862394332886, 428.26506781578064, 429.2493619918823, 429.4163148403168, 430.16685581207275, 430.28392791748047, 430.4006419181824, 430.51746892929077, 430.63426089286804, 430.7510688304901, 430.8677909374237, 430.98467993736267, 431.10147500038147, 431.21816182136536, 431.3351128101349, 431.45173692703247, 431.5685119628906, 431.68525981903076, 431.80207991600037, 431.9188828468323, 432.035768032074, 432.2495369911194]	[428.14566857402053, 428.2623352406872, 429.2453352406872, 429.4120352406872, 430.1620352406872, 430.2787019073539, 430.39536857402055, 430.5120352406872, 430.6287019073539, 430.7453685740206, 430.86203524068725, 430.9787019073539, 431.0953685740206, 431.21203524068727, 431.32870190735395, 431.4453685740206, 431.5620352406873, 431.67870190735397, 431.79536857402064, 431.9120352406873, 432.028701907354, 432.26203524068734]	2021_Feb_02_1104	59.93549613248299	1	1
19	72	FALSE	NN	v	['A', 'R', 'W', 'H', 'N', 'Y', 'S', 'M', 'C', 'T', 'V', 'K', 'G', 'P', 'Z', 'E']	[697, 1587, 2448, 986, 1335, 2670, 1731, 1224, 829, 1888, 2245, 1122, 944, 1456, 2911, 904]	13	Absent	NA	NA	ABSENT	0.24634003639221191	434.2622971534729	436.25956106185913	437.4272651672363	437.7767431735992	440.3659029006958	4.10634183883667	[434.2714078426361, 434.3714089393616, 435.355899810791, 435.522864818573, 436.2902238368988, 436.3902199268341, 436.5070209503174, 436.6237998008728, 436.7406048774719, 436.85741686820984, 436.9742019176483, 437.09106397628784, 437.20807099342346, 437.3246569633484, 437.441447019577, 437.5582449436188, 437.6750679016113, 437.79179191589355, 437.90854382514954, 438.02541399002075, 438.1421329975128, 438.3659019470215]	[434.26203524068734, 434.378701907354, 435.361701907354, 435.528401907354, 436.278401907354, 436.3950685740207, 436.51173524068736, 436.62840190735403, 436.7450685740207, 436.8617352406874, 436.97840190735405, 437.09506857402073, 437.2117352406874, 437.3284019073541, 437.44506857402075, 437.5617352406874, 437.6784019073541, 437.7950685740208, 437.91173524068745, 438.0284019073541, 438.1450685740208, 438.37840190735415]	2021_Feb_02_1104	59.93549613248299	1	1
19	73	FALSE	NN	v	['H', 'S', 'V', 'G', 'E', 'P', 'Z', 'B', 'K', 'R', 'U', 'N', 'M', 'W', 'J', 'T']	[986, 1731, 2245, 944, 904, 1456, 2911, 760, 1122, 1587, 2059, 1335, 1224, 2448, 1029, 1888]	12	Absent	NA	NA	ABSENT	0.12297582626342772	440.36893105506897	442.3758502006531	443.4263241291046	443.7766551971435	446.48227095603943	4.1064207553863525	[440.37804198265076, 440.49477195739746, 441.47910594940186, 441.6461148262024, 442.39673590660095, 442.5135018825531, 442.6303768157959, 442.7472188472748, 442.86389994621277, 442.9808738231659, 443.0974268913269, 443.21428990364075, 443.33125495910645, 443.44793796539307, 443.56469988822937, 443.68163990974426, 443.79816198349, 443.9151909351349, 444.0318579673767, 444.14847588539124, 444.2653958797455, 444.48227095603943]	[440.37840190735415, 440.4950685740208, 441.4780685740208, 441.6447685740208, 442.3947685740208, 442.5114352406875, 442.62810190735416, 442.74476857402084, 442.8614352406875, 442.9781019073542, 443.09476857402086, 443.21143524068754, 443.3281019073542, 443.4447685740209, 443.56143524068756, 443.67810190735423, 443.7947685740209, 443.9114352406876, 444.02810190735426, 444.14476857402093, 444.2614352406876, 444.49476857402095]	2021_Feb_02_1104	59.93549613248299	1	1
19	74	FALSE	NA	v	['A', 'K', 'U', 'Y', 'H', 'V', 'S', 'N', 'W', 'R', 'X', 'M', 'J', 'T', 'B', 'E']	[697, 1122, 2059, 2670, 986, 2245, 1731, 1335, 2448, 1587, 4000, 1224, 1029, 1888, 760, 904]	11	Present	NA	NA	PRESENT	0.2161118984222412	446.4921951293946	448.4924120903015	449.42597007751465	449.7760140895843	452.59863686561584	4.106224775314331	[446.5013048648834, 446.61794090270996, 447.60270285606384, 447.76912903785706, 448.52000093460083, 448.63683795928955, 448.75350284576416, 448.87018394470215, 448.9870789051056, 449.10378980636597, 449.22067189216614, 449.33752393722534, 449.45435190200806, 449.57117795944214, 449.68799686431885, 449.80482292175293, 449.92162895202637, 450.03836584091187, 450.15493297576904, 450.27173686027527, 450.3717668056488, 450.59863686561584]	[446.49476857402095, 446.6114352406876, 447.59443524068763, 447.7611352406876, 448.5111352406876, 448.6278019073543, 448.74446857402097, 448.86113524068764, 448.9778019073543, 449.094468574021, 449.21113524068767, 449.32780190735434, 449.444468574021, 449.5611352406877, 449.67780190735436, 449.79446857402104, 449.9111352406877, 450.0278019073544, 450.14446857402106, 450.26113524068774, 450.3778019073544, 450.61113524068776]	2021_Feb_02_1104	59.93549613248299	1	1
19	75	FALSE	NA	v	['Z', 'P', 'J', 'G', 'C', 'Y', 'T', 'X', 'A', 'U', 'B', 'M', 'H', 'V', 'W', 'E']	[2911, 1456, 1029, 944, 829, 2670, 1888, 4000, 697, 2059, 760, 1224, 986, 2245, 2448, 904]	8	Present	NA	NA	PRESENT	0.2606210708618164	452.5985891819	454.6086790561676	455.1923580169678	455.54231905937195	458.7150049209595	4.10632586479187	[452.6076989173889, 452.72439193725586, 453.7088279724121, 453.8756558895111, 454.6262848377228, 454.74331283569336, 454.859925031662, 454.976979970932, 455.09364891052246, 455.2104468345642, 455.3271019458771, 455.4440529346466, 455.56086802482605, 455.67765188217163, 455.7943158149719, 455.9113278388977, 456.02806186676025, 456.1449339389801, 456.2615749835968, 456.3781108856201, 456.49510192871094, 456.71500396728516]	[452.61113524068776, 452.72780190735443, 453.71080190735444, 453.87750190735443, 454.62750190735443, 454.7441685740211, 454.8608352406878, 454.97750190735445, 455.0941685740211, 455.2108352406878, 455.3275019073545, 455.44416857402115, 455.5608352406878, 455.6775019073545, 455.79416857402117, 455.91083524068785, 456.0275019073545, 456.1441685740212, 456.26083524068787, 456.37750190735454, 456.4941685740212, 456.72750190735456]	2021_Feb_02_1104	59.93549613248299	1	1
19	76	FALSE	NA	v	['G', 'S', 'N', 'V', 'W', 'Z', 'C', 'K', 'B', 'P', 'T', 'A', 'H', 'X', 'M', 'Y']	[944, 1731, 1335, 2245, 2448, 2911, 829, 1122, 760, 1456, 1888, 697, 986, 4000, 1224, 2670]	14	Present	NA	NA	PRESENT	0.24115896224975583	458.7219440937042	460.7251260280609	462.00861716270447	462.3586812019348	464.8313708305359	4.106244802474976	[458.731055021286, 458.8476309776306, 459.83210492134094, 459.9988079071045, 460.74946999549866, 460.86632084846497, 460.98333382606506, 461.1000499725342, 461.21676301956177, 461.33361983299255, 461.4505228996277, 461.5673449039459, 461.6839430332184, 461.8009250164032, 461.9176549911499, 462.03430581092834, 462.15125703811646, 462.2678518295288, 462.3850178718567, 462.50142097473145, 462.6182448863983, 462.83136892318726]	[458.72750190735456, 458.84416857402124, 459.82716857402124, 459.99386857402123, 460.74386857402123, 460.8605352406879, 460.9772019073546, 461.09386857402126, 461.21053524068793, 461.3272019073546, 461.4438685740213, 461.56053524068795, 461.67720190735463, 461.7938685740213, 461.910535240688, 462.02720190735465, 462.1438685740213, 462.260535240688, 462.3772019073547, 462.49386857402135, 462.610535240688, 462.84386857402137]	2021_Feb_02_1104	59.93549613248299	1	1
19	77	FALSE	NN	v	['B', 'G', 'M', 'N', 'K', 'Y', 'J', 'W', 'H', 'R', 'U', 'P', 'C', 'Z', 'T', 'S']	[760, 944, 1224, 1335, 1122, 2670, 1029, 2448, 986, 1587, 2059, 1456, 829, 2911, 1888, 1731]	8	Absent	NA	NA	ABSENT	0.2386181354522705	464.8280851840973	466.8412890434265	467.4252681732178	467.775276184082	470.9477379322052	4.1064488887786865	[464.8371958732605, 464.9540250301361, 465.9384939670563, 466.10544896125793, 466.87277698516846, 466.9728219509125, 467.08964681625366, 467.20644092559814, 467.3231098651886, 467.44018292427063, 467.55674982070923, 467.67379689216614, 467.79036498069763, 467.90731501579285, 468.02402782440186, 468.1408348083496, 468.25792503356934, 468.3746190071106, 468.49120688438416, 468.60808396339417, 468.7248568534851, 468.9477369785309]	[464.84386857402137, 464.96053524068805, 465.94353524068805, 466.11023524068804, 466.86023524068804, 466.9769019073547, 467.0935685740214, 467.21023524068806, 467.32690190735474, 467.4435685740214, 467.5602352406881, 467.67690190735476, 467.79356857402144, 467.9102352406881, 468.0269019073548, 468.14356857402146, 468.26023524068813, 468.3769019073548, 468.4935685740215, 468.61023524068816, 468.72690190735483, 468.9602352406882]	2021_Feb_02_1104	59.93549613248299	1	1
19	78	FALSE	NA	v	['U', 'B', 'S', 'R', 'A', 'N', 'V', 'T', 'Z', 'J', 'W', 'X', 'E', 'M', 'G', 'Y']	[2059, 760, 1731, 1587, 697, 1335, 2245, 1888, 2911, 1029, 2448, 4000, 904, 1224, 944, 2670]	12	Present	NA	NA	PRESENT	0.2590610980987549	470.95155215263367	472.9578411579132	474.008358001709	474.3582570552826	477.0641038417816	4.106262683868408	[470.96066188812256, 471.0772798061371, 472.06179690361023, 472.22844099998474, 472.97925782203674, 473.0962538719177, 473.21305894851685, 473.32972383499146, 473.44644689559937, 473.5633888244629, 473.68012285232544, 473.79678201675415, 473.9137268066406, 474.0305669307709, 474.1472008228302, 474.263906955719, 474.3808448314667, 474.4977879524231, 474.61453199386597, 474.73121786117554, 474.8480658531189, 475.0641028881073]	[470.9602352406882, 471.07690190735485, 472.05990190735486, 472.22660190735485, 472.97660190735485, 473.0932685740215, 473.2099352406882, 473.32660190735487, 473.44326857402154, 473.5599352406882, 473.6766019073549, 473.79326857402157, 473.90993524068824, 474.0266019073549, 474.1432685740216, 474.25993524068826, 474.37660190735494, 474.4932685740216, 474.6099352406883, 474.72660190735496, 474.84326857402164, 475.076601907355]	2021_Feb_02_1104	59.93549613248299	1	1
19	79	FALSE	NA	v	['H', 'U', 'C', 'G', 'W', 'P', 'T', 'A', 'S', 'J', 'E', 'X', 'K', 'N', 'M', 'B']	[986, 2059, 829, 944, 2448, 1456, 1888, 697, 1731, 1029, 904, 4000, 1122, 1335, 1224, 760]	12	Present	NA	NA	PRESENT	0.18434691429138184	477.074431180954	479.0742151737213	480.1245250701904	480.47457909584045	483.1804709434509	4.106255769729614	[477.08354091644287, 477.2003560066223, 478.18526101112366, 478.35181498527527, 479.10242199897766, 479.21919202804565, 479.33596682548523, 479.45282793045044, 479.5697259902954, 479.68650794029236, 479.80316495895386, 479.92002987861633, 480.0369918346405, 480.1536159515381, 480.2705228328705, 480.38721799850464, 480.50406980514526, 480.6208038330078, 480.73768186569214, 480.8546018600464, 480.95443201065063, 481.1804699897766]	[477.076601907355, 477.19326857402166, 478.17626857402166, 478.34296857402165, 479.09296857402165, 479.2096352406883, 479.326301907355, 479.4429685740217, 479.55963524068835, 479.676301907355, 479.7929685740217, 479.9096352406884, 480.02630190735505, 480.1429685740217, 480.2596352406884, 480.37630190735507, 480.49296857402175, 480.6096352406884, 480.7263019073551, 480.84296857402177, 480.95963524068844, 481.1929685740218]	2021_Feb_02_1104	59.93549613248299	1	1
