participant	trial_num	practice	task	condition	RSVP	RAP	probePos	probe_presence	surprise_sound	surprise_img	probe_response	probe_resp_time	first_fixation_time	trial_start_time	surprise_start_time	probe_start_time	trial_end_time	trial_duration	actualEventTimes	plannedEventTimes	date	framerate	marker_vol	RAP_vol
32	1	FALSE	NA	v	['C', 'N', 'E', 'B', 'Z', 'Y', 'J', 'S', 'R', 'A', 'G', 'P', 'X', 'U', 'T', 'H']	[829, 1335, 904, 760, 2911, 2670, 1029, 1731, 1587, 697, 944, 1456, 4000, 2059, 1888, 986]	13	Present	NA	NA	PRESENT	0.4398508071899414	2.1457672119140625e-6	2.0032689571380615	3.168403148651123	3.5185070037841797	6.1038689613342285	4.100600004196167	[0.006201028823852539, 0.12296509742736816, 1.1073861122131348, 1.2744710445404053, 2.025114059448242, 2.141940116882324, 2.2586770057678223, 2.3755500316619873, 2.492327928543091, 2.6090869903564453, 2.7259840965270996, 2.8427369594573975, 2.9598331451416016, 3.0763790607452393, 3.1929450035095215, 3.309891939163208, 3.426542043685913, 3.543503999710083, 3.660331964492798, 3.7770321369171143, 3.877026081085205, 4.1038689613342285]	[9.5367431640625e-07, 0.11666762034098306, 1.099667620340983, 1.266367620340983, 2.016367620340983, 2.1330342870076495, 2.249700953674316, 2.366367620340983, 2.4830342870076496, 2.5997009536743163, 2.716367620340983, 2.8330342870076497, 2.9497009536743164, 3.066367620340983, 3.18303428700765, 3.2997009536743165, 3.416367620340983, 3.53303428700765, 3.6497009536743166, 3.7663676203409833, 3.88303428700765, 4.116367620340983]	2021_Feb_18_1436	59.86269970627443	1	1
32	2	FALSE	NA	v	['V', 'T', 'W', 'M', 'U', 'J', 'A', 'S', 'B', 'K', 'E', 'P', 'X', 'G', 'R', 'C']	[2245, 1888, 2448, 1224, 2059, 1029, 697, 1731, 760, 1122, 904, 1456, 4000, 944, 1587, 829]	13	Present	NA	NA	PRESENT	0.3886549472808838	6.107006072998047	8.11697506904602	9.283736944198608	9.633687019348145	12.22023606300354	4.1032609939575195	[6.113205909729004, 6.22967004776001, 7.214056968688965, 7.380779027938843, 8.131428956985474, 8.248498916625977, 8.365135908126831, 8.482033967971802, 8.598833084106445, 8.715737104415894, 8.832337141036987, 8.949211120605469, 9.065927982330322, 9.182749032974243, 9.29957103729248, 9.416329145431519, 9.533239126205444, 9.64983606338501, 9.76672101020813, 9.883376121520996, 10.000379085540771, 10.22023606300354]	[6.116367620340983, 6.23303428700765, 7.216034287007649, 7.382734287007649, 8.132734287007649, 8.249400953674316, 8.366067620340983, 8.48273428700765, 8.599400953674317, 8.716067620340985, 8.832734287007652, 8.949400953674319, 9.066067620340986, 9.182734287007653, 9.29940095367432, 9.416067620340987, 9.532734287007655, 9.649400953674322, 9.766067620340989, 9.882734287007656, 9.999400953674323, 10.232734287007656]	2021_Feb_18_1436	59.86269970627443	1	1
32	3	FALSE	NV	v	['E', 'Z', 'S', 'B', 'N', 'T', 'J', 'K', 'C', 'X', 'H', 'U', 'G', 'M', 'A', 'Y']	[904, 2911, 1731, 760, 1335, 1888, 1029, 1122, 829, 4000, 986, 2059, 944, 1224, 697, 2670]	10	Present	NA	NA	PRESENT	0.8330419063568115	12.229727983474731	14.233039140701294	15.05021905899048	15.400094032287598	18.336601972579956	4.103562831878662	[12.235929012298584, 12.352864980697632, 13.337072134017944, 13.504073143005371, 14.254753112792969, 14.37145709991455, 14.488318920135498, 14.60512900352478, 14.721941947937012, 14.838828086853027, 14.95570993423462, 15.072283029556274, 15.189193964004517, 15.305850982666016, 15.422500133514404, 15.539605140686035, 15.65647006034851, 15.77300500869751, 15.889814138412476, 16.00677800178528, 16.123368978500366, 16.336601972579956]	[12.232734287007656, 12.349400953674323, 13.332400953674323, 13.499100953674324, 14.249100953674324, 14.365767620340991, 14.482434287007658, 14.599100953674325, 14.715767620340992, 14.83243428700766, 14.949100953674327, 15.065767620340994, 15.182434287007661, 15.299100953674328, 15.415767620340995, 15.532434287007662, 15.64910095367433, 15.765767620340997, 15.882434287007664, 15.999100953674331, 16.115767620340996, 16.34910095367433]	2021_Feb_18_1436	59.86269970627443	1	1
32	4	FALSE	NA	v	['R', 'H', 'T', 'U', 'M', 'E', 'A', 'N', 'W', 'V', 'B', 'G', 'X', 'C', 'Z', 'K']	[1587, 986, 1888, 2059, 1224, 904, 697, 1335, 2448, 2245, 760, 944, 4000, 829, 2911, 1122]	13	Present	NA	NA	PRESENT	0.3339200019836426	18.336112022399902	20.349220037460327	21.516574144363403	21.86674404144287	24.452969074249268	4.10374903678894	[18.342311143875122, 18.459300994873047, 19.443717002868652, 19.61036205291748, 20.377860069274902, 20.477917909622192, 20.59473991394043, 20.71152091026306, 20.828414916992188, 20.945110082626343, 21.06202006340027, 21.178779125213623, 21.29559898376465, 21.412289142608643, 21.5292010307312, 21.645884037017822, 21.76286792755127, 21.879467010498047, 21.99634099006653, 22.11298108100891, 22.230117082595825, 22.452969074249268]	[18.34910095367433, 18.465767620340998, 19.448767620341, 19.615467620340997, 20.365467620340997, 20.482134287007664, 20.59880095367433, 20.715467620341, 20.832134287007666, 20.948800953674333, 21.065467620341, 21.182134287007667, 21.298800953674334, 21.415467620341, 21.53213428700767, 21.648800953674336, 21.765467620341003, 21.88213428700767, 21.998800953674337, 22.115467620341004, 22.23213428700767, 22.465467620341006]	2021_Feb_18_1436	59.86269970627443	1	1
32	5	FALSE	AV	v	['A', 'T', 'G', 'W', 'U', 'N', 'R', 'surprise', 'E', 'P', 'X', 'Y', 'B', 'S', 'H', 'K']	[697, 1888, 944, 2448, 2059, 1335, 1587, 'stimAuditory/all_stimAuditory/109.wav', 904, 1456, 4000, 2670, 760, 1731, 986, 1122]	11	Present	stimAuditory/all_stimAuditory/109.wav	stimVisual/all_stimVisual/122.jpg	PRESENT	0.7388949394226074	24.459383964538578	26.46582293510437	27.39952802658081	27.749638080596924	30.5693359375	4.10351300239563	[24.465584993362427, 24.582442045211792, 25.566904067993164, 25.733875036239624, 26.48434591293335, 26.601179122924805, 26.718101978302002, 26.834797143936157, 26.9517879486084, 27.068539142608643, 27.185261011123657, 27.30192494392395, 27.418934106826782, 27.535563945770264, 27.652387142181396, 27.769094944000244, 27.885950088500977, 28.002636909484863, 28.119550943374634, 28.23637890815735, 28.353212118148804, 28.569337129592896]	[24.465467620341006, 24.582134287007673, 25.565134287007673, 25.731834287007672, 26.481834287007672, 26.59850095367434, 26.715167620341006, 26.831834287007673, 26.94850095367434, 27.065167620341008, 27.181834287007675, 27.298500953674342, 27.41516762034101, 27.531834287007676, 27.648500953674343, 27.76516762034101, 27.881834287007678, 27.998500953674345, 28.115167620341012, 28.23183428700768, 28.348500953674346, 28.58183428700768]	2021_Feb_18_1436	59.86269970627443	1	1
32	6	FALSE	NN	v	['H', 'Y', 'P', 'E', 'W', 'Z', 'C', 'K', 'V', 'B', 'M', 'R', 'T', 'N', 'G', 'S']	[986, 2670, 1456, 904, 2448, 2911, 829, 1122, 2245, 760, 1224, 1587, 1888, 1335, 944, 1731]	11	Absent	NA	NA	ABSENT	0.4640219211578369	30.582741022109985	32.58224296569824	33.51621198654175	33.86585807800293	36.685702085494995	4.103459119796753	[30.58894109725952, 30.705699920654297, 31.689878940582275, 31.85684299468994, 32.60751414299011, 32.724465131759644, 32.84123706817627, 32.95835614204407, 33.074711084365845, 33.19159412384033, 33.30859708786011, 33.42519211769104, 33.54187202453613, 33.658653020858765, 33.77550506591797, 33.89230394363403, 34.00923013687134, 34.125805139541626, 34.24262499809265, 34.35958194732666, 34.4594349861145, 34.685702085494995]	[30.58183428700768, 30.698500953674348, 31.681500953674348, 31.848200953674347, 32.59820095367435, 32.71486762034102, 32.831534287007685, 32.94820095367435, 33.06486762034102, 33.181534287007686, 33.29820095367435, 33.41486762034102, 33.53153428700769, 33.648200953674355, 33.76486762034102, 33.88153428700769, 33.998200953674356, 34.11486762034102, 34.23153428700769, 34.34820095367436, 34.464867620341025, 34.69820095367436]	2021_Feb_18_1436	59.86269970627443	1	1
32	7	FALSE	NV	v	['Z', 'K', 'R', 'W', 'E', 'J', 'Y', 'V', 'M', 'C', 'A', 'X', 'T', 'B', 'H', 'P']	[2911, 1122, 1587, 2448, 904, 1029, 2670, 2245, 1224, 829, 697, 4000, 1888, 760, 986, 1456]	12	Present	NA	NA	PRESENT	0.5808150768280029	36.689286947250366	38.69854497909546	39.74888610839844	40.09887504577637	42.80206894874573	4.1035239696502686	[36.69548797607422, 36.81211805343628, 37.79652810096741, 37.963359117507935, 38.714030027389526, 38.831002950668335, 38.947654008865356, 39.064330101013184, 39.18133306503296, 39.29797005653381, 39.41493606567383, 39.53155708312988, 39.648590087890625, 39.76507210731506, 39.88208508491516, 39.99885106086731, 40.11563491821289, 40.232330083847046, 40.349092960357666, 40.465893030166626, 40.58281111717224, 40.80206894874573]	[36.69820095367436, 36.814867620341026, 37.79786762034102, 37.96456762034102, 38.71456762034102, 38.83123428700769, 38.947900953674356, 39.06456762034102, 39.18123428700769, 39.29790095367436, 39.414567620341025, 39.53123428700769, 39.64790095367436, 39.764567620341026, 39.88123428700769, 39.99790095367436, 40.11456762034103, 40.231234287007695, 40.34790095367436, 40.46456762034103, 40.581234287007696, 40.81456762034103]	2021_Feb_18_1436	59.86269970627443	1	1
32	8	FALSE	VV	v	['J', 'R', 'M', 'U', 'K', 'T', 'V', 'surprise', 'Z', 'S', 'X', 'Y', 'C', 'W', 'P', 'E']	[1029, 1587, 1224, 2059, 1122, 1888, 2245, 'stimAuditory/all_stimAuditory/107.wav', 2911, 1731, 4000, 2670, 829, 2448, 1456, 904]	11	Present	NA	stimVisual/all_stimVisual/103.jpg	PRESENT	0.45743703842163086	42.81238412857056	44.81501317024231	45.748615980148315	46.0985791683197	48.918437004089355	4.103423833847046	[42.818583965301514, 42.9351921081543, 43.91966414451599, 44.08645009994507, 44.83730697631836, 44.954002141952515, 45.07076907157898, 45.187618017196655, 45.30449891090393, 45.42115902900696, 45.538137912750244, 45.65482306480408, 45.77175807952881, 45.88826107978821, 46.00510311126709, 46.12178301811218, 46.23878598213196, 46.35574293136597, 46.47230410575867, 46.58946895599365, 46.70594310760498, 46.918437004089355]	[42.81456762034103, 42.9312342870077, 43.914234287007694, 44.08093428700769, 44.83093428700769, 44.94760095367436, 45.06426762034103, 45.180934287007695, 45.29760095367436, 45.41426762034103, 45.530934287007696, 45.64760095367436, 45.76426762034103, 45.8809342870077, 45.997600953674365, 46.11426762034103, 46.2309342870077, 46.347600953674366, 46.46426762034103, 46.5809342870077, 46.69760095367437, 46.9309342870077]	2021_Feb_18_1436	59.86269970627443	1	1
32	9	FALSE	NA	v	['M', 'P', 'C', 'U', 'G', 'B', 'E', 'J', 'Z', 'V', 'R', 'S', 'X', 'T', 'N', 'W']	[1224, 1456, 829, 2059, 944, 760, 904, 1029, 2911, 2245, 1587, 1731, 4000, 1888, 1335, 2448]	13	Present	NA	NA	PRESENT	0.4465680122375488	48.918612003326416	50.93121004104614	52.09828495979309	52.44826316833496	55.034801959991455	4.1035919189453125	[48.92481207847595, 49.0415940284729, 50.02613806724548, 50.192803144454956, 50.96028709411621, 51.06048011779785, 51.17737007141113, 51.29422903060913, 51.41099810600281, 51.52765893936157, 51.644510984420776, 51.76121997833252, 51.87819790840149, 51.9948410987854, 52.11164712905884, 52.22836494445801, 52.345041036605835, 52.46201205253601, 52.57893490791321, 52.69550108909607, 52.81242513656616, 53.03480291366577]	[48.9309342870077, 49.04760095367437, 50.030600953674366, 50.197300953674365, 50.947300953674365, 51.06396762034103, 51.1806342870077, 51.297300953674366, 51.41396762034103, 51.5306342870077, 51.64730095367437, 51.763967620341035, 51.8806342870077, 51.99730095367437, 52.113967620341036, 52.2306342870077, 52.34730095367437, 52.46396762034104, 52.580634287007705, 52.69730095367437, 52.81396762034104, 53.04730095367437]	2021_Feb_18_1436	59.86269970627443	1	1
32	10	FALSE	NV	v	['C', 'J', 'N', 'M', 'K', 'Z', 'Y', 'H', 'X', 'W', 'S', 'R', 'V', 'A', 'G', 'P']	[829, 1029, 1335, 1224, 1122, 2911, 2670, 986, 4000, 2448, 1731, 1587, 2245, 697, 944, 1456]	9	Present	NA	NA	PRESENT	0.4271199703216553	55.041959047317505	57.04771900177002	57.74814295768738	58.09810709953308	61.15116906166077	4.103450059890747	[55.04816007614136, 55.16509509086609, 56.14919996261597, 56.3161039352417, 57.067310094833374, 57.18367314338684, 57.30060601234436, 57.41727900505066, 57.534136056900024, 57.65080213546753, 57.76775598526001, 57.884418964385986, 58.00115394592285, 58.11802101135254, 58.23470997810364, 58.35158610343933, 58.468284130096436, 58.585206031799316, 58.70191812515259, 58.81884813308716, 58.93569207191467, 59.15117001533508]	[55.04730095367437, 55.16396762034104, 56.14696762034104, 56.313667620341036, 57.063667620341036, 57.1803342870077, 57.29700095367437, 57.41366762034104, 57.530334287007705, 57.64700095367437, 57.76366762034104, 57.880334287007706, 57.99700095367437, 58.11366762034104, 58.23033428700771, 58.347000953674375, 58.46366762034104, 58.58033428700771, 58.697000953674376, 58.81366762034104, 58.93033428700771, 59.163667620341045]	2021_Feb_18_1436	59.86269970627443	1	1
32	11	FALSE	NA	v	['G', 'K', 'N', 'V', 'A', 'J', 'T', 'X', 'H', 'C', 'E', 'S', 'U', 'Y', 'Z', 'W']	[944, 1122, 1335, 2245, 697, 1029, 1888, 4000, 986, 829, 904, 1731, 2059, 2670, 2911, 2448]	8	Present	NA	NA	PRESENT	0.4082369804382324	61.16523599624634	63.16386604309082	63.74770712852478	64.0977771282196	67.2675371170044	4.103671073913574	[61.171436071395874, 61.28816509246826, 62.25571894645691, 62.42242908477783, 63.190083026885986, 63.30702805519104, 63.42373991012573, 63.5404109954834, 63.657294034957886, 63.77410411834717, 63.89096403121948, 64.00773096084595, 64.12432193756104, 64.24137806892395, 64.35800504684448, 64.47480511665344, 64.59156394004822, 64.69145011901855, 64.80829310417175, 64.92511200904846, 65.04214596748352, 65.2675359249115]	[61.163667620341045, 61.28033428700771, 62.26333428700771, 62.43003428700771, 63.18003428700771, 63.296700953674375, 63.41336762034104, 63.53003428700771, 63.646700953674376, 63.76336762034104, 63.88003428700771, 63.99670095367438, 64.11336762034104, 64.2300342870077, 64.34670095367436, 64.46336762034102, 64.58003428700768, 64.69670095367434, 64.813367620341, 64.93003428700766, 65.04670095367432, 65.28003428700765]	2021_Feb_18_1436	59.86269970627443	1	1
32	12	FALSE	NV	v	['Y', 'V', 'N', 'U', 'W', 'S', 'A', 'C', 'M', 'K', 'T', 'R', 'X', 'J', 'H', 'G']	[2670, 2245, 1335, 2059, 2448, 1731, 697, 829, 1224, 1122, 1888, 1587, 4000, 1029, 986, 944]	13	Present	NA	NA	PRESENT	0.7090871334075928	67.27192497253418	69.28049397468567	70.44731402397156	70.7975161075592	73.38390302658081	4.103409051895142	[67.27812504768372, 67.39470791816711, 68.37913298606873, 68.54580402374268, 69.29650807380676, 69.41345596313477, 69.53028011322021, 69.6468939781189, 69.7637710571289, 69.88047313690186, 69.99742603302002, 70.11398911476135, 70.23108196258545, 70.34764313697815, 70.46463298797607, 70.58121395111084, 70.69813513755798, 70.81473994255066, 70.93172407150269, 71.04842495918274, 71.1650779247284, 71.38390302658081]	[67.28003428700765, 67.39670095367431, 68.37970095367432, 68.54640095367432, 69.29640095367432, 69.41306762034098, 69.52973428700764, 69.6464009536743, 69.76306762034096, 69.87973428700762, 69.99640095367428, 70.11306762034094, 70.2297342870076, 70.34640095367426, 70.46306762034092, 70.57973428700758, 70.69640095367424, 70.8130676203409, 70.92973428700756, 71.04640095367422, 71.16306762034088, 71.39640095367422]	2021_Feb_18_1436	59.86269970627443	1	1
32	13	FALSE	NN	v	['Y', 'R', 'E', 'B', 'Z', 'T', 'P', 'H', 'K', 'G', 'V', 'M', 'W', 'A', 'S', 'J']	[2670, 1587, 904, 760, 2911, 1888, 1456, 986, 1122, 944, 2245, 1224, 2448, 697, 1731, 1029]	11	Absent	NA	NA	ABSENT	1.1143229007720947	73.39481115341187	75.39670014381409	76.33034300804138	76.6804039478302	79.50027012825012	4.103569984436035	[73.40101099014282, 73.51767897605896, 74.50218510627747, 74.66896390914917, 75.41979002952576, 75.53668713569641, 75.65336799621582, 75.77008104324341, 75.88674902915955, 76.05372214317322, 76.12063407897949, 76.23745512962341, 76.35398292541504, 76.47090005874634, 76.58806109428406, 76.70451307296753, 76.82106614112854, 76.93796396255493, 77.05474710464478, 77.17171502113342, 77.27151894569397, 77.50027012825012]	[73.39640095367422, 73.51306762034088, 74.49606762034088, 74.66276762034089, 75.41276762034089, 75.52943428700755, 75.6461009536742, 75.76276762034087, 75.87943428700753, 75.99610095367419, 76.11276762034085, 76.2294342870075, 76.34610095367417, 76.46276762034083, 76.57943428700749, 76.69610095367415, 76.81276762034081, 76.92943428700747, 77.04610095367413, 77.16276762034079, 77.27943428700745, 77.51276762034078]	2021_Feb_18_1436	59.86269970627443	1	1
32	14	FALSE	NV	v	['A', 'M', 'Y', 'J', 'N', 'P', 'C', 'T', 'G', 'H', 'X', 'B', 'W', 'U', 'S', 'K']	[697, 1224, 2670, 1029, 1335, 1456, 829, 1888, 944, 986, 4000, 760, 2448, 2059, 1731, 1122]	11	Present	NA	NA	PRESENT	0.4467229843139648	79.50116205215454	81.51336216926575	82.44677996635437	82.79674816131592	85.61663699150085	4.103274822235107	[79.50736403465271, 79.62429094314575, 80.60875296592712, 80.77540612220764, 81.54306101799011, 81.64290595054626, 81.75982809066772, 81.87644290924072, 81.99362397193909, 82.11032891273499, 82.22703814506531, 82.3436279296875, 82.46051001548767, 82.57739996910095, 82.69429111480713, 82.81085896492004, 82.9277229309082, 83.04437303543091, 83.16132998466492, 83.27806997299194, 83.39496397972107, 83.61663699150085]	[79.51276762034078, 79.62943428700744, 80.61243428700745, 80.77913428700745, 81.52913428700745, 81.64580095367411, 81.76246762034077, 81.87913428700743, 81.99580095367409, 82.11246762034075, 82.22913428700741, 82.34580095367407, 82.46246762034073, 82.57913428700739, 82.69580095367405, 82.81246762034071, 82.92913428700737, 83.04580095367403, 83.16246762034069, 83.27913428700735, 83.39580095367401, 83.62913428700735]	2021_Feb_18_1436	59.86269970627443	1	1
32	15	FALSE	NV	v	['M', 'Z', 'E', 'S', 'J', 'B', 'K', 'C', 'R', 'U', 'Y', 'H', 'A', 'X', 'P', 'W']	[1224, 2911, 904, 1731, 1029, 760, 1122, 829, 1587, 2059, 2670, 986, 697, 4000, 1456, 2448]	14	Present	NA	NA	PRESENT	0.2913241386413574	85.62431406974792	87.62947106361389	88.9131281375885	89.26345109939575	91.73300313949584	4.103532075881958	[85.63051414489746, 85.74738502502441, 86.73215699195862, 86.89873504638672, 87.64932203292847, 87.76626396179199, 87.88302898406982, 87.9998869895935, 88.1165361404419, 88.23340010643005, 88.35021901130676, 88.46690607070923, 88.58386397361755, 88.7006471157074, 88.81740212440491, 88.9342839717865, 89.0508201122284, 89.16761708259583, 89.2844021320343, 89.40125799179077, 89.51805996894836, 89.73300194740295]	[85.62913428700735, 85.745800953674, 86.72880095367401, 86.89550095367402, 87.64550095367402, 87.76216762034068, 87.87883428700734, 87.995500953674, 88.11216762034066, 88.22883428700732, 88.34550095367398, 88.46216762034064, 88.5788342870073, 88.69550095367396, 88.81216762034062, 88.92883428700728, 89.04550095367394, 89.1621676203406, 89.27883428700726, 89.39550095367392, 89.51216762034058, 89.74550095367391]	2021_Feb_18_1436	59.86269970627443	1	1
32	16	FALSE	NN	v	['U', 'W', 'V', 'A', 'C', 'T', 'Z', 'R', 'B', 'P', 'S', 'H', 'M', 'G', 'J', 'E']	[2059, 2448, 2245, 697, 829, 1888, 2911, 1587, 760, 1456, 1731, 986, 1224, 944, 1029, 904]	14	Absent	NA	NA	ABSENT	0.47266483306884766	91.7477090358734	93.74561405181883	95.02958512306212	95.3796751499176	97.84937000274658	4.103755950927734	[91.75390791893005, 91.8704891204834, 92.83817195892334, 93.00500702857971, 93.77257895469666, 93.88951897621155, 94.00610113143921, 94.12305402755737, 94.23968696594238, 94.35670208930969, 94.4734570980072, 94.59047102928162, 94.69010901451111, 94.80693006515503, 94.92371702194214, 95.04052591323853, 95.15730810165405, 95.27401113510132, 95.39078211784363, 95.50763893127441, 95.62447810173035, 95.84936904907227]	[91.74550095367391, 91.86216762034057, 92.84516762034058, 93.01186762034058, 93.76186762034058, 93.87853428700724, 93.9952009536739, 94.11186762034056, 94.22853428700722, 94.34520095367388, 94.46186762034054, 94.5785342870072, 94.69520095367386, 94.81186762034052, 94.92853428700718, 95.04520095367384, 95.1618676203405, 95.27853428700716, 95.39520095367382, 95.51186762034048, 95.62853428700714, 95.86186762034048]	2021_Feb_18_1436	59.86269970627443	1	1
32	17	FALSE	AA	v	['T', 'Y', 'W', 'B', 'N', 'G', 'V', 'Z', 'H', 'surprise', 'R', 'C', 'X', 'E', 'A', 'K']	[1888, 2670, 2448, 760, 1335, 944, 2245, 2911, 986, 'stimAuditory/all_stimAuditory/121.wav', 1587, 829, 4000, 904, 697, 1122]	13	Present	stimAuditory/all_stimAuditory/107.wav	stimVisual/all_stimVisual/116.jpg	PRESENT	0.533195972442627	97.85427594184875	99.86222100257874	101.0294110774994	101.3792040348053	103.965735912323	4.103514909744263	[97.86047697067261, 97.97700905799866, 98.96153712272644, 99.1283791065216, 99.87902092933655, 99.99575400352478, 100.11275696754456, 100.22937607765198, 100.34637403488159, 100.46296811103821, 100.57994198799133, 100.69663095474243, 100.8134970664978, 100.93010401725769, 101.0470449924469, 101.1638069152832, 101.28056406974792, 101.39733600616455, 101.51416993141174, 101.63091897964478, 101.74773097038269, 101.9657371044159]	[97.86186762034048, 97.97853428700714, 98.96153428700714, 99.12823428700715, 99.87823428700715, 99.9949009536738, 100.11156762034047, 100.22823428700713, 100.34490095367379, 100.46156762034045, 100.5782342870071, 100.69490095367377, 100.81156762034043, 100.92823428700709, 101.04490095367375, 101.1615676203404, 101.27823428700707, 101.39490095367373, 101.51156762034039, 101.62823428700705, 101.7449009536737, 101.97823428700704]	2021_Feb_18_1436	59.86269970627443	1	1
32	18	FALSE	NA	v	['E', 'M', 'Y', 'B', 'U', 'Z', 'C', 'S', 'H', 'R', 'K', 'X', 'P', 'V', 'J', 'W']	[904, 1224, 2670, 760, 2059, 2911, 829, 1731, 986, 1587, 1122, 4000, 1456, 2245, 1029, 2448]	12	Present	NA	NA	PRESENT	0.2906160354614258	103.97736501693726	105.978502035141	107.0293390750885	107.37902116775513	110.08210301399232	4.103600978851318	[103.98356413841248, 104.10031008720398, 105.08455610275269, 105.25135111808777, 106.00206899642944, 106.11921191215515, 106.23570513725281, 106.35278010368347, 106.46937394142151, 106.5863311290741, 106.70299100875854, 106.81983494758606, 106.93652892112732, 107.05351495742798, 107.17028093338013, 107.287024974823, 107.40373396873474, 107.52057695388794, 107.6374671459198, 107.7541880607605, 107.85412907600403, 108.08210396766663]	[103.97823428700704, 104.0949009536737, 105.0779009536737, 105.24460095367371, 105.99460095367371, 106.11126762034037, 106.22793428700703, 106.34460095367369, 106.46126762034035, 106.57793428700701, 106.69460095367367, 106.81126762034033, 106.92793428700699, 107.04460095367365, 107.16126762034031, 107.27793428700697, 107.39460095367363, 107.51126762034029, 107.62793428700695, 107.74460095367361, 107.86126762034027, 108.0946009536736]	2021_Feb_18_1436	59.86269970627443	1	1
32	19	FALSE	NA	v	['Z', 'R', 'S', 'Y', 'C', 'N', 'E', 'U', 'T', 'X', 'P', 'A', 'W', 'H', 'B', 'M']	[2911, 1587, 1731, 2670, 829, 1335, 904, 2059, 1888, 4000, 1456, 697, 2448, 986, 760, 1224]	10	Present	NA	NA	PRESENT	0.39107394218444824	110.0836901664734	112.0949399471283	112.91193199157716	113.2630410194397	116.19847011566162	4.103530168533325	[110.08989095687866, 110.20651292800903, 111.19101905822754, 111.35793995857239, 112.10849595069885, 112.22550392150879, 112.34227204322815, 112.45893907546997, 112.57583713531494, 112.69254803657532, 112.80963110923767, 112.92616891860962, 113.04292297363281, 113.1598551273346, 113.27669310569763, 113.39345192909241, 113.51037192344666, 113.62702298164368, 113.74368596076965, 113.86055612564087, 113.97743201255798, 114.19846892356873]	[110.0946009536736, 110.21126762034027, 111.19426762034027, 111.36096762034028, 112.11096762034028, 112.22763428700694, 112.3443009536736, 112.46096762034026, 112.57763428700692, 112.69430095367358, 112.81096762034024, 112.9276342870069, 113.04430095367356, 113.16096762034022, 113.27763428700688, 113.39430095367354, 113.5109676203402, 113.62763428700686, 113.74430095367352, 113.86096762034018, 113.97763428700684, 114.21096762034017]	2021_Feb_18_1436	59.86269970627443	1	1
32	20	FALSE	NA	v	['S', 'V', 'K', 'E', 'H', 'A', 'C', 'N', 'T', 'P', 'R', 'B', 'X', 'G', 'Z', 'J']	[1731, 2245, 1122, 904, 986, 697, 829, 1335, 1888, 1456, 1587, 760, 4000, 944, 2911, 1029]	13	Present	NA	NA	PRESENT	0.41974806785583496	116.20701003074646	118.21152305603027	119.3783061504364	119.728413105011	122.31483602523804	4.103312969207764	[116.213210105896, 116.3297209739685, 117.31423711776733, 117.48116898536682, 118.23206806182861, 118.3486111164093, 118.46537399291992, 118.58226609230042, 118.69912505149841, 118.81572604179382, 118.93274307250977, 119.04947805404663, 119.1661729812622, 119.28306913375854, 119.39987802505493, 119.5167589187622, 119.63345193862915, 119.75025606155396, 119.86698007583618, 119.98348498344421, 120.10070610046387, 120.31483602523804]	[116.21096762034017, 116.32763428700683, 117.31063428700683, 117.47733428700684, 118.22733428700684, 118.3440009536735, 118.46066762034016, 118.57733428700682, 118.69400095367348, 118.81066762034014, 118.9273342870068, 119.04400095367346, 119.16066762034012, 119.27733428700678, 119.39400095367344, 119.5106676203401, 119.62733428700676, 119.74400095367342, 119.86066762034008, 119.97733428700674, 120.0940009536734, 120.32733428700674]	2021_Feb_18_1436	59.86269970627443	1	1
32	21	FALSE	NA	v	['V', 'S', 'K', 'M', 'R', 'N', 'P', 'A', 'B', 'J', 'X', 'E', 'G', 'U', 'T', 'H']	[2245, 1731, 1122, 1224, 1587, 1335, 1456, 697, 760, 1029, 4000, 904, 944, 2059, 1888, 986]	11	Present	NA	NA	PRESENT	0.464968204498291	122.32998514175416	124.3277621269226	125.26144003868104	125.61135601997375	128.43120312690735	4.103440999984741	[122.33618402481079, 122.43614411354065, 123.42063403129578, 123.58740997314453, 124.35514998435974, 124.47194004058838, 124.58857798576355, 124.70554304122925, 124.80538296699524, 124.92210698127747, 125.03904700279236, 125.15578293800354, 125.27266693115234, 125.3894350528717, 125.50621700286865, 125.62299013137817, 125.73977613449097, 125.85652613639832, 125.97327995300293, 126.09003400802612, 126.20689105987549, 126.43120193481445]	[122.32733428700674, 122.4440009536734, 123.4270009536734, 123.5937009536734, 124.3437009536734, 124.46036762034007, 124.57703428700673, 124.69370095367339, 124.81036762034005, 124.9270342870067, 125.04370095367337, 125.16036762034003, 125.27703428700669, 125.39370095367335, 125.51036762034, 125.62703428700667, 125.74370095367333, 125.86036762033999, 125.97703428700665, 126.0937009536733, 126.21036762033997, 126.4437009536733]	2021_Feb_18_1436	59.86269970627443	1	1
32	22	FALSE	NV	v	['B', 'Z', 'Y', 'G', 'M', 'P', 'E', 'K', 'R', 'X', 'V', 'J', 'W', 'H', 'A', 'S']	[760, 2911, 2670, 944, 1224, 1456, 904, 1122, 1587, 4000, 2245, 1029, 2448, 986, 697, 1731]	10	Present	NA	NA	PRESENT	0.5655009746551514	128.43689513206482	130.44383716583252	131.26145911216736	131.61107206344604	134.54756999015808	4.1037328243255615	[128.44309496879578, 128.55944895744324, 129.54387593269348, 129.7108130455017, 130.46148490905762, 130.5783109664917, 130.69521498680115, 130.8118851184845, 130.92887210845947, 131.04546403884888, 131.162122964859, 131.2791130542755, 131.3957381248474, 131.51271796226501, 131.62960410118103, 131.74631905555725, 131.86317992210388, 131.97991514205933, 132.0964789390564, 132.2135009765625, 132.33018112182617, 132.54756999015808]	[128.4437009536733, 128.56036762033997, 129.54336762033998, 129.71006762033997, 130.46006762033997, 130.57673428700664, 130.69340095367332, 130.81006762034, 130.92673428700667, 131.04340095367334, 131.16006762034002, 131.2767342870067, 131.39340095367336, 131.51006762034004, 131.6267342870067, 131.7434009536734, 131.86006762034006, 131.97673428700674, 132.0934009536734, 132.21006762034008, 132.32673428700676, 132.56006762034008]	2021_Feb_18_1436	59.86269970627443	1	1
32	23	FALSE	NV	v	['V', 'N', 'M', 'C', 'B', 'A', 'K', 'S', 'W', 'E', 'X', 'U', 'J', 'R', 'H', 'T']	[2245, 1335, 1224, 829, 760, 697, 1122, 1731, 2448, 904, 4000, 2059, 1029, 1587, 986, 1888]	11	Present	NA	NA	PRESENT	0.5868840217590332	134.55970096588135	136.5603449344635	137.4942729473114	137.84417295455933	140.66393613815308	4.103591203689575	[134.56590104103088, 134.6826250553131, 135.66709303855896, 135.8339340686798, 136.5845229625702, 136.70164394378662, 136.81827402114868, 136.93521094322205, 137.05182695388794, 137.1686351299286, 137.28532910346985, 137.40235710144043, 137.51901412010193, 137.63625192642212, 137.75261211395264, 137.86957693099976, 137.9861660003662, 138.10317492485046, 138.2197880744934, 138.33673691749573, 138.43652200698853, 138.6639370918274]	[134.56006762034008, 134.67673428700675, 135.65973428700676, 135.82643428700675, 136.57643428700675, 136.69310095367342, 136.8097676203401, 136.92643428700677, 137.04310095367345, 137.15976762034012, 137.2764342870068, 137.39310095367347, 137.50976762034014, 137.62643428700682, 137.7431009536735, 137.85976762034016, 137.97643428700684, 138.0931009536735, 138.2097676203402, 138.32643428700686, 138.44310095367354, 138.67643428700686]	2021_Feb_18_1436	59.86269970627443	1	1
32	24	FALSE	NN	v	['J', 'G', 'V', 'N', 'P', 'E', 'U', 'W', 'M', 'B', 'T', 'K', 'A', 'Z', 'S', 'H']	[1029, 944, 2245, 1335, 1456, 904, 2059, 2448, 1224, 760, 1888, 1122, 697, 2911, 1731, 986]	13	Absent	NA	NA	ABSENT	0.5675530433654785	140.66620898246765	142.676607131958	143.84394001960754	144.1940040588379	146.7803030014038	4.103695869445801	[140.6724100112915, 140.78924107551575, 141.77362704277039, 141.94036197662354, 142.6910331249237, 142.8080539703369, 142.9248399734497, 143.04150199890137, 143.1584439277649, 143.27512097358704, 143.39190912246704, 143.50871992111206, 143.62547612190247, 143.74231004714966, 143.85927295684814, 143.9758861064911, 144.092777967453, 144.2095091342926, 144.32621598243713, 144.44310402870178, 144.5598440170288, 144.7803020477295]	[140.67643428700686, 140.79310095367353, 141.77610095367353, 141.94280095367353, 142.69280095367353, 142.8094676203402, 142.92613428700687, 143.04280095367355, 143.15946762034022, 143.2761342870069, 143.39280095367357, 143.50946762034025, 143.62613428700692, 143.7428009536736, 143.85946762034027, 143.97613428700694, 144.09280095367362, 144.2094676203403, 144.32613428700697, 144.44280095367364, 144.5594676203403, 144.79280095367363]	2021_Feb_18_1436	59.86269970627443	1	1
32	25	FALSE	NN	v	['G', 'A', 'M', 'U', 'Z', 'E', 'V', 'R', 'C', 'K', 'T', 'N', 'P', 'S', 'Y', 'H']	[944, 697, 1224, 2059, 2911, 904, 2245, 1587, 829, 1122, 1888, 1335, 1456, 1731, 2670, 986]	11	Absent	NA	NA	ABSENT	0.603809118270874	146.78942012786865	148.79315304756165	149.72686314582825	150.07701897621155	152.89666891098022	4.103515863418579	[146.7956190109253, 146.91224813461304, 147.89714193344116, 148.06360602378845, 148.81435012817383, 148.93119192123413, 149.04807305335999, 149.16466808319092, 149.28157496452332, 149.3984339237213, 149.51504492759705, 149.63184309005737, 149.74870014190674, 149.865492105484, 149.98205304145813, 150.09921002388, 150.21578693389893, 150.33276200294495, 150.4494891166687, 150.56620407104492, 150.68301105499268, 150.89667010307312]	[146.79280095367363, 146.9094676203403, 147.8924676203403, 148.0591676203403, 148.8091676203403, 148.92583428700698, 149.04250095367365, 149.15916762034033, 149.275834287007, 149.39250095367368, 149.50916762034035, 149.62583428700702, 149.7425009536737, 149.85916762034037, 149.97583428700705, 150.09250095367372, 150.2091676203404, 150.32583428700707, 150.44250095367374, 150.55916762034042, 150.6758342870071, 150.9091676203404]	2021_Feb_18_1436	59.86269970627443	1	1
32	26	FALSE	NN	v	['P', 'G', 'A', 'K', 'B', 'V', 'R', 'N', 'Y', 'U', 'W', 'T', 'S', 'M', 'J', 'Z']	[1456, 944, 697, 1122, 760, 2245, 1587, 1335, 2670, 2059, 2448, 1888, 1731, 1224, 1029, 2911]	8	Absent	NA	NA	ABSENT	0.6971790790557861	152.8956470489502	154.9097981452942	155.4932360649109	155.84318208694458	159.01303696632385	4.103238821029663	[152.90184712409973, 153.01869010925293, 154.0031599998474, 154.17012000083923, 154.93753695487976, 155.0374801158905, 155.15430307388306, 155.2710599899292, 155.38788509368896, 155.5046570301056, 155.6213960647583, 155.7382640838623, 155.85498809814453, 155.97190809249878, 156.08861708641052, 156.20544600486755, 156.32221007347107, 156.4391360282898, 156.55597305297852, 156.67278695106506, 156.7895200252533, 157.01303601264954]	[152.9091676203404, 153.0258342870071, 154.0088342870071, 154.17553428700708, 154.92553428700708, 155.04220095367376, 155.15886762034043, 155.2755342870071, 155.39220095367378, 155.50886762034045, 155.62553428700713, 155.7422009536738, 155.85886762034048, 155.97553428700715, 156.09220095367382, 156.2088676203405, 156.32553428700717, 156.44220095367385, 156.55886762034052, 156.6755342870072, 156.79220095367387, 157.0255342870072]	2021_Feb_18_1436	59.86269970627443	1	1
32	27	FALSE	NN	v	['U', 'T', 'P', 'S', 'J', 'H', 'V', 'W', 'A', 'G', 'R', 'E', 'B', 'Y', 'C', 'N']	[2059, 1888, 1456, 1731, 1029, 986, 2245, 2448, 697, 944, 1587, 904, 760, 2670, 829, 1335]	9	Absent	NA	NA	ABSENT	0.5977818965911865	159.01902604103088	161.02600002288818	161.72615003585815	162.07621502876282	165.12940311431885	4.103403091430664	[159.02522611618042, 159.1420030593872, 160.12639713287354, 160.29334497451782, 161.04401898384094, 161.1607530117035, 161.27760004997253, 161.39437007904053, 161.5112500190735, 161.6279740333557, 161.744637966156, 161.8616759777069, 161.97822403907776, 162.09529495239258, 162.21203303337097, 162.32886505126953, 162.44550609588623, 162.56246614456177, 162.67910504341125, 162.7959349155426, 162.912672996521, 163.12940406799316]	[159.0255342870072, 159.14220095367386, 160.12520095367387, 160.29190095367386, 161.04190095367386, 161.15856762034053, 161.2752342870072, 161.39190095367388, 161.50856762034056, 161.62523428700723, 161.7419009536739, 161.85856762034058, 161.97523428700725, 162.09190095367393, 162.2085676203406, 162.32523428700728, 162.44190095367395, 162.55856762034063, 162.6752342870073, 162.79190095367397, 162.90856762034065, 163.14190095367397]	2021_Feb_18_1436	59.86269970627443	1	1
32	28	FALSE	NV	v	['B', 'E', 'V', 'S', 'M', 'Z', 'W', 'Y', 'U', 'J', 'R', 'X', 'T', 'K', 'N', 'P']	[760, 904, 2245, 1731, 1224, 2911, 2448, 2670, 2059, 1029, 1587, 4000, 1888, 1122, 1335, 1456]	12	Present	NA	NA	PRESENT	0.4911191463470459	165.14229607582092	167.14213514328003	168.19256210327148	168.54262399673462	171.24576997756958	4.103634834289551	[165.14849591255188, 165.26518297195435, 166.24978399276733, 166.41644597053528, 167.1672170162201, 167.28404903411865, 167.4007089138031, 167.51766109466553, 167.63461899757385, 167.75107598304749, 167.86794209480286, 167.98485112190247, 168.10152506828308, 168.2181899547577, 168.33525395393372, 168.45229196548462, 168.5686810016632, 168.68556714057922, 168.8024139404297, 168.91934299468994, 169.0192220211029, 169.24576902389526]	[165.14190095367397, 165.25856762034064, 166.24156762034065, 166.40826762034064, 167.15826762034064, 167.2749342870073, 167.391600953674, 167.50826762034066, 167.62493428700733, 167.741600953674, 167.85826762034068, 167.97493428700736, 168.09160095367403, 168.2082676203407, 168.32493428700738, 168.44160095367405, 168.55826762034073, 168.6749342870074, 168.79160095367408, 168.90826762034075, 169.02493428700743, 169.25826762034075]	2021_Feb_18_1436	59.86269970627443	1	1
32	29	FALSE	VA	v	['A', 'N', 'C', 'U', 'Z', 'J', 'T', 'H', 'G', 'surprise', 'K', 'Y', 'X', 'V', 'S', 'E']	[697, 1335, 829, 2059, 2911, 1029, 1888, 986, 944, 'stimAuditory/all_stimAuditory/203.wav', 1122, 2670, 4000, 2245, 1731, 904]	13	Present	NA	stimVisual/all_stimVisual/209.jpg	PRESENT	0.5357170104980469	171.24854016304016	173.25864911079407	174.42574095726013	174.77594804763794	177.3621370792389	4.103487968444824	[171.2547390460968, 171.3715660572052, 172.35596704483032, 172.52300000190735, 173.27349591255188, 173.39041996002197, 173.50717091560364, 173.62398505210876, 173.74074006080627, 173.85750699043274, 173.97431993484497, 174.0912721157074, 174.20797610282898, 174.32482600212097, 174.4415180683136, 174.55848813056946, 174.67509698867798, 174.79205799102783, 174.90869307518005, 175.02560091018677, 175.1424560546875, 175.3621370792389]	[171.25826762034075, 171.37493428700742, 172.35793428700742, 172.52463428700742, 173.27463428700742, 173.3913009536741, 173.50796762034076, 173.62463428700744, 173.7413009536741, 173.8579676203408, 173.97463428700746, 174.09130095367414, 174.2079676203408, 174.32463428700748, 174.44130095367416, 174.55796762034083, 174.6746342870075, 174.79130095367418, 174.90796762034086, 175.02463428700753, 175.1413009536742, 175.37463428700752]	2021_Feb_18_1436	59.86269970627443	1	1
32	30	FALSE	NV	v	['T', 'B', 'A', 'M', 'Y', 'U', 'J', 'E', 'W', 'K', 'V', 'S', 'X', 'Z', 'N', 'P']	[1888, 760, 697, 1224, 2670, 2059, 1029, 904, 2448, 1122, 2245, 1731, 4000, 2911, 1335, 1456]	13	Present	NA	NA	PRESENT	0.44419097900390625	177.3717041015625	179.37485003471377	180.5422351360321	180.89220094680783	183.4785039424896	4.103653907775879	[177.37790393829346, 177.4949140548706, 178.47962403297424, 178.64604902267456, 179.39692401885986, 179.51360511779785, 179.63032007217407, 179.74744701385498, 179.8640820980072, 179.98056197166443, 180.09749007225037, 180.2144260406494, 180.33123207092285, 180.44806694984436, 180.56476092338562, 180.68162393569946, 180.79834914207458, 180.91506791114807, 181.03189492225647, 181.14884901046753, 181.26555800437927, 181.47850394248962]	[177.37463428700752, 177.4913009536742, 178.4743009536742, 178.6410009536742, 179.3910009536742, 179.50766762034087, 179.62433428700754, 179.74100095367422, 179.8576676203409, 179.97433428700757, 180.09100095367424, 180.2076676203409, 180.3243342870076, 180.44100095367426, 180.55766762034094, 180.6743342870076, 180.79100095367428, 180.90766762034096, 181.02433428700763, 181.1410009536743, 181.25766762034098, 181.4910009536743]	2021_Feb_18_1436	59.86269970627443	1	1
32	31	FALSE	NN	v	['A', 'P', 'M', 'S', 'J', 'G', 'C', 'R', 'K', 'E', 'U', 'Z', 'N', 'Y', 'T', 'B']	[697, 1456, 1224, 1731, 1029, 944, 829, 1587, 1122, 904, 2059, 2911, 1335, 2670, 1888, 760]	10	Absent	NA	NA	ABSENT	0.4570889472961426	183.47819900512695	185.49140095710752	186.3083200454712	186.6583549976349	189.59487009048465	4.103469133377075	[183.48439812660217, 183.60132312774658, 184.58562111854553, 184.7525680065155, 185.5199489593506, 185.61999607086182, 185.73677897453308, 185.85354900360107, 185.9703619480133, 186.0870771408081, 186.20413994789124, 186.32084202766418, 186.43771696090698, 186.55446696281433, 186.67119002342224, 186.7880940437317, 186.90476393699646, 187.02172207832336, 187.13833498954773, 187.25529599189758, 187.3719780445099, 187.59487104415894]	[183.4910009536743, 183.60766762034098, 184.59066762034098, 184.75736762034097, 185.50736762034097, 185.62403428700765, 185.74070095367432, 185.857367620341, 185.97403428700767, 186.09070095367434, 186.20736762034102, 186.3240342870077, 186.44070095367437, 186.55736762034104, 186.67403428700771, 186.7907009536744, 186.90736762034106, 187.02403428700774, 187.1407009536744, 187.25736762034109, 187.37403428700776, 187.60736762034108]	2021_Feb_18_1436	59.86269970627443	1	1
32	32	FALSE	NA	v	['Y', 'K', 'W', 'N', 'V', 'T', 'M', 'E', 'R', 'B', 'U', 'H', 'Z', 'X', 'J', 'S']	[2670, 1122, 2448, 1335, 2245, 1888, 1224, 904, 1587, 760, 2059, 986, 2911, 4000, 1029, 1731]	14	Present	NA	NA	PRESENT	0.3740379810333252	189.6014220714569	191.6075839996338	192.89135599136353	193.24144315719604	195.71123600006104	4.103652000427246	[189.60762310028076, 189.72455406188965, 190.70885491371155, 190.87582802772522, 191.6264090538025, 191.74323296546936, 191.8599989414215, 191.97716212272644, 192.09375596046448, 192.21058297157288, 192.32729506492615, 192.44414710998535, 192.56089401245117, 192.67771792411804, 192.79440593719482, 192.91121006011963, 193.02788400650024, 193.144681930542, 193.26169300079346, 193.3781931400299, 193.49517607688904, 193.71123600006104]	[189.60736762034108, 189.72403428700775, 190.70703428700776, 190.87373428700775, 191.62373428700775, 191.74040095367442, 191.8570676203411, 191.97373428700777, 192.09040095367445, 192.20706762034112, 192.3237342870078, 192.44040095367447, 192.55706762034114, 192.67373428700782, 192.7904009536745, 192.90706762034117, 193.02373428700784, 193.14040095367451, 193.2570676203412, 193.37373428700786, 193.49040095367454, 193.72373428700786]	2021_Feb_18_1436	59.86269970627443	1	1
32	33	FALSE	VA	v	['K', 'J', 'B', 'N', 'M', 'W', 'V', 'G', 'surprise', 'P', 'Y', 'X', 'C', 'R', 'S', 'H']	[1122, 1029, 760, 1335, 1224, 2448, 2245, 944, 'stimAuditory/all_stimAuditory/220.wav', 1456, 2670, 4000, 829, 1587, 1731, 986]	12	Present	NA	stimVisual/all_stimVisual/250.jpg	PRESENT	0.37112998962402344	195.724662065506	197.7241940498352	198.7744140625	199.12442994117737	201.82760310173035	4.103409051895142	[195.73086094856262, 195.84769105911255, 196.83214402198792, 196.98200607299805, 197.75009894371033, 197.86640191078186, 197.98310804367065, 198.09998607635498, 198.21670198440552, 198.33352613449097, 198.45088696479797, 198.5670850276947, 198.68409395217896, 198.80086708068848, 198.91763496398926, 199.0343029499054, 199.15126609802246, 199.26801300048828, 199.38493394851685, 199.50166511535645, 199.60157895088196, 199.82760310173035]	[195.72373428700786, 195.84040095367453, 196.82340095367454, 196.99010095367453, 197.74010095367453, 197.8567676203412, 197.97343428700788, 198.09010095367455, 198.20676762034122, 198.3234342870079, 198.44010095367457, 198.55676762034125, 198.67343428700792, 198.7901009536746, 198.90676762034127, 199.02343428700794, 199.14010095367462, 199.2567676203413, 199.37343428700797, 199.49010095367464, 199.60676762034132, 199.84010095367464]	2021_Feb_18_1436	59.86269970627443	1	1
32	34	FALSE	NA	v	['C', 'B', 'Z', 'S', 'J', 'M', 'A', 'X', 'U', 'R', 'Y', 'G', 'V', 'P', 'E', 'N']	[829, 760, 2911, 1731, 1029, 1224, 697, 4000, 2059, 1587, 2670, 944, 2245, 1456, 904, 1335]	8	Present	NA	NA	PRESENT	0.5438950061798096	201.83138298988345	203.840430021286	204.42421412467957	204.77396702766416	207.94396996498108	4.103539943695068	[201.83758306503296, 201.95445609092712, 202.9385280609131, 203.1052279472351, 203.8561990261078, 203.97297191619873, 204.08982706069946, 204.20648908615112, 204.32333993911743, 204.44017004966736, 204.55710101127625, 204.6736581325531, 204.79056906700134, 204.90729904174805, 205.02413892745972, 205.14095091819763, 205.25761008262634, 205.37454104423523, 205.49119091033936, 205.6080939769745, 205.7248339653015, 205.94396996498108]	[201.84010095367464, 201.9567676203413, 202.9397676203413, 203.1064676203413, 203.8564676203413, 203.97313428700798, 204.08980095367465, 204.20646762034133, 204.323134287008, 204.43980095367468, 204.55646762034135, 204.67313428700803, 204.7898009536747, 204.90646762034137, 205.02313428700805, 205.13980095367472, 205.2564676203414, 205.37313428700807, 205.48980095367475, 205.60646762034142, 205.7231342870081, 205.9564676203414]	2021_Feb_18_1436	59.86269970627443	1	1
32	35	FALSE	NV	v	['N', 'V', 'P', 'Y', 'R', 'C', 'J', 'G', 'M', 'A', 'W', 'T', 'H', 'X', 'S', 'Z']	[1335, 2245, 1456, 2670, 1587, 829, 1029, 944, 1224, 697, 2448, 1888, 986, 4000, 1731, 2911]	14	Present	NA	NA	PRESENT	0.34025001525878906	207.9546270370483	209.9568841457367	211.24045205116272	211.5904700756073	214.0603370666504	4.103452920913696	[207.96082592010498, 208.07744097709656, 209.06174302101135, 209.22844791412354, 209.97914004325867, 210.0962610244751, 210.2129111289978, 210.32969093322754, 210.44652700424194, 210.56335496902466, 210.6799590587616, 210.79678106307983, 210.91368007659912, 211.03054904937744, 211.14711904525757, 211.26415991783142, 211.3809459209442, 211.49755692481995, 211.61447596549988, 211.7311990261078, 211.84789299964905, 212.0603370666504]	[207.9564676203414, 208.0731342870081, 209.0561342870081, 209.22283428700808, 209.97283428700808, 210.08950095367476, 210.20616762034143, 210.3228342870081, 210.43950095367478, 210.55616762034145, 210.67283428700813, 210.7895009536748, 210.90616762034148, 211.02283428700815, 211.13950095367483, 211.2561676203415, 211.37283428700817, 211.48950095367485, 211.60616762034152, 211.7228342870082, 211.83950095367487, 212.0728342870082]	2021_Feb_18_1436	59.86269970627443	1	1
32	36	FALSE	NN	v	['B', 'G', 'M', 'U', 'J', 'V', 'Y', 'S', 'H', 'P', 'T', 'Z', 'K', 'W', 'R', 'C']	[760, 944, 1224, 2059, 1029, 2245, 2670, 1731, 986, 1456, 1888, 2911, 1122, 2448, 1587, 829]	14	Absent	NA	NA	ABSENT	0.40960001945495605	214.06094813346863	216.07309103012085	217.3569631576538	217.70686316490173	220.1767029762268	4.103611946105957	[214.06714797019958, 214.18382501602173, 215.16800904273987, 215.33511209487915, 216.1025869846344, 216.20260906219482, 216.31931710243225, 216.43613696098328, 216.55278611183167, 216.66967797279358, 216.7863781452179, 216.9033489227295, 217.02022314071655, 217.1370279788971, 217.2536220550537, 217.37053799629211, 217.48728108406067, 217.60456705093384, 217.72084212303162, 217.8377981185913, 217.9549469947815, 218.1767029762268]	[214.0728342870082, 214.18950095367487, 215.17250095367487, 215.33920095367486, 216.08920095367486, 216.20586762034154, 216.3225342870082, 216.43920095367488, 216.55586762034156, 216.67253428700823, 216.7892009536749, 216.90586762034158, 217.02253428700826, 217.13920095367493, 217.2558676203416, 217.37253428700828, 217.48920095367495, 217.60586762034163, 217.7225342870083, 217.83920095367498, 217.95586762034165, 218.18920095367497]	2021_Feb_18_1436	59.86269970627443	1	1
32	37	FALSE	AV	v	['U', 'E', 'H', 'C', 'surprise', 'Y', 'K', 'X', 'N', 'B', 'A', 'R', 'T', 'S', 'M', 'J']	[2059, 904, 986, 829, 'stimAuditory/all_stimAuditory/101.wav', 2670, 1122, 4000, 1335, 760, 697, 1587, 1888, 1731, 1224, 1029]	8	Present	stimAuditory/all_stimAuditory/121.wav	stimVisual/all_stimVisual/207.jpg	PRESENT	0.3981189727783203	220.18392395973208	222.18957114219663	222.7731900215149	223.12322902679443	226.29307007789612	4.103498935699463	[220.1901240348816, 220.3071539402008, 221.29147005081177, 221.4581859111786, 222.20895504951477, 222.32588005065918, 222.44255995750427, 222.55946493148804, 222.6761839389801, 222.7929711341858, 222.90966391563416, 223.0265691280365, 223.1432421207428, 223.26020908355713, 223.37682008743286, 223.49383091926575, 223.61049509048462, 223.7273030281067, 223.84413599967957, 223.96078610420227, 224.07775497436523, 224.29307007789612]	[220.18920095367497, 220.30586762034164, 221.28886762034165, 221.45556762034164, 222.20556762034164, 222.3222342870083, 222.438900953675, 222.55556762034166, 222.67223428700834, 222.788900953675, 222.90556762034169, 223.02223428700836, 223.13890095367503, 223.2555676203417, 223.37223428700838, 223.48890095367506, 223.60556762034173, 223.7222342870084, 223.83890095367508, 223.95556762034175, 224.07223428700843, 224.30556762034175]	2021_Feb_18_1436	59.86269970627443	1	1
32	38	FALSE	NV	v	['S', 'Z', 'B', 'P', 'H', 'Y', 'V', 'G', 'N', 'W', 'T', 'A', 'J', 'X', 'U', 'K']	[1731, 2911, 760, 1456, 986, 2670, 2245, 944, 1335, 2448, 1888, 697, 1029, 4000, 2059, 1122]	14	Present	NA	NA	PRESENT	0.3955090045928955	226.3071980476379	228.30583214759827	229.58960103988647	229.9396800994873	232.40943598747253	4.103603839874268	[226.31339693069458, 226.430114030838, 227.3977301120758, 227.56454205513, 228.33250212669373, 228.44983196258545, 228.56589913368225, 228.68239998817444, 228.79932403564453, 228.91619396209717, 229.03302693367004, 229.1495499610901, 229.26655292510986, 229.38332104682922, 229.5002419948578, 229.61680912971497, 229.71674799919128, 229.83360695838928, 229.95043992996216, 230.06716108322144, 230.1841390132904, 230.40943598747253]	[226.30556762034175, 226.42223428700842, 227.40523428700843, 227.57193428700842, 228.32193428700842, 228.4386009536751, 228.55526762034177, 228.67193428700844, 228.78860095367511, 228.9052676203418, 229.02193428700846, 229.13860095367514, 229.2552676203418, 229.3719342870085, 229.48860095367516, 229.60526762034183, 229.7219342870085, 229.83860095367518, 229.95526762034186, 230.07193428700853, 230.1886009536752, 230.42193428700853]	2021_Feb_18_1436	59.86269970627443	1	1
32	39	FALSE	NV	v	['T', 'P', 'E', 'Y', 'V', 'J', 'K', 'C', 'N', 'Z', 'G', 'B', 'M', 'X', 'R', 'U']	[1888, 1456, 904, 2670, 2245, 1029, 1122, 829, 1335, 2911, 944, 760, 1224, 4000, 1587, 2059]	14	Present	NA	NA	PRESENT	0.3600330352783203	232.41367316246033	234.4224410057068	235.7059481143951	236.05605697631836	238.52580404281616	4.103363037109375	[232.41987299919128, 232.53664207458496, 233.52100706100464, 233.6879780292511, 234.43865513801575, 234.5554850101471, 234.6721110343933, 234.7891490459442, 234.90581393241882, 235.02261400222778, 235.1392650604248, 235.25623202323914, 235.37291312217712, 235.48965096473694, 235.60652494430542, 235.7232630252838, 235.84008598327637, 235.95691204071045, 236.07374095916748, 236.19045114517212, 236.3073809146881, 236.52580308914185]	[232.42193428700853, 232.5386009536752, 233.5216009536752, 233.6883009536752, 234.4383009536752, 234.55496762034187, 234.67163428700854, 234.78830095367522, 234.9049676203419, 235.02163428700857, 235.13830095367524, 235.25496762034192, 235.3716342870086, 235.48830095367526, 235.60496762034194, 235.7216342870086, 235.8383009536753, 235.95496762034196, 236.07163428700864, 236.1883009536753, 236.30496762034198, 236.5383009536753]	2021_Feb_18_1436	59.86269970627443	1	1
32	40	FALSE	VV	v	['A', 'T', 'N', 'P', 'U', 'surprise', 'Y', 'M', 'X', 'R', 'J', 'Z', 'K', 'H', 'B', 'W']	[697, 1888, 1335, 1456, 2059, 'stimAuditory/all_stimAuditory/208.wav', 2670, 1224, 4000, 1587, 1029, 2911, 1122, 986, 760, 2448]	9	Present	NA	stimVisual/all_stimVisual/200.jpg	PRESENT	0.5655031204223633	238.5367889404297	240.53848695755005	241.23904514312744	241.58899807929993	244.64216995239255	4.103682994842529	[238.54298996925354, 238.65994000434875, 239.64426112174988, 239.81107592582703, 240.56168913841248, 240.67868900299072, 240.7954080104828, 240.91208410263062, 241.02893590927124, 241.14580607414246, 241.26258301734924, 241.37943601608276, 241.49621605873108, 241.61293292045593, 241.7299039363861, 241.84653091430664, 241.9637200832367, 242.08001494407654, 242.19701313972473, 242.31374311447144, 242.4137270450592, 242.64216995239258]	[238.5383009536753, 238.65496762034198, 239.63796762034198, 239.80466762034197, 240.55466762034197, 240.67133428700865, 240.78800095367532, 240.904667620342, 241.02133428700867, 241.13800095367534, 241.25466762034202, 241.3713342870087, 241.48800095367537, 241.60466762034204, 241.72133428700872, 241.8380009536754, 241.95466762034206, 242.07133428700874, 242.1880009536754, 242.3046676203421, 242.42133428700876, 242.65466762034208]	2021_Feb_18_1436	59.86269970627443	1	1
32	41	FALSE	NV	v	['P', 'A', 'E', 'U', 'W', 'K', 'T', 'X', 'R', 'C', 'V', 'N', 'H', 'M', 'B', 'J']	[1456, 697, 904, 2059, 2448, 1122, 1888, 4000, 1587, 829, 2245, 1335, 986, 1224, 760, 1029]	8	Present	NA	NA	PRESENT	0.36186718940734863	244.64342212677	246.65498304367063	247.23880004882812	247.5887920856476	250.75853610038757	4.103553056716919	[244.64962100982666, 244.76629114151, 245.75060892105103, 245.91763710975647, 246.68491101264954, 246.7850799560547, 246.90200400352478, 247.01873803138733, 247.13563299179077, 247.25228214263916, 247.36910009384155, 247.48583507537842, 247.602872133255, 247.71957898139954, 247.8363311290741, 247.9529550075531, 248.06976509094238, 248.18663811683655, 248.30330896377563, 248.42024302482605, 248.5369040966034, 248.7585370540619]	[244.65466762034208, 244.77133428700876, 245.75433428700876, 245.92103428700875, 246.67103428700875, 246.78770095367543, 246.9043676203421, 247.02103428700877, 247.13770095367545, 247.25436762034212, 247.3710342870088, 247.48770095367547, 247.60436762034215, 247.72103428700882, 247.8377009536755, 247.95436762034217, 248.07103428700884, 248.18770095367552, 248.3043676203422, 248.42103428700887, 248.53770095367554, 248.77103428700886]	2021_Feb_18_1436	59.86269970627443	1	1
32	42	FALSE	NV	v	['W', 'G', 'T', 'A', 'Y', 'U', 'Z', 'H', 'N', 'X', 'R', 'B', 'M', 'P', 'V', 'E']	[2448, 944, 1888, 697, 2670, 2059, 2911, 986, 1335, 4000, 1587, 760, 1224, 1456, 2245, 904]	10	Present	NA	NA	PRESENT	0.48647403717041016	250.76643300056455	252.77132105827332	253.58852005004883	253.93856501579285	256.8749029636383	4.10358190536499	[250.77263402938843, 250.88948512077332, 251.873920917511, 252.0405809879303, 252.79141807556152, 252.90824604034424, 253.02507400512695, 253.1419861316681, 253.25870394706726, 253.37529397010803, 253.49210906028748, 253.60895204544067, 253.72583103179932, 253.84259605407715, 253.95945000648499, 254.07620000839233, 254.19301104545593, 254.30989003181458, 254.4266059398651, 254.54335498809814, 254.66022205352783, 254.8749029636383]	[250.77103428700886, 250.88770095367553, 251.87070095367554, 252.03740095367553, 252.78740095367553, 252.9040676203422, 253.02073428700888, 253.13740095367555, 253.25406762034223, 253.3707342870089, 253.48740095367558, 253.60406762034225, 253.72073428700892, 253.8374009536756, 253.95406762034227, 254.07073428700895, 254.18740095367562, 254.3040676203423, 254.42073428700897, 254.53740095367564, 254.65406762034232, 254.88740095367564]	2021_Feb_18_1436	59.86269970627443	1	1
32	43	FALSE	NN	v	['Z', 'H', 'J', 'W', 'M', 'C', 'S', 'E', 'B', 'R', 'K', 'N', 'T', 'A', 'Y', 'V']	[2911, 986, 1029, 2448, 1224, 829, 1731, 904, 760, 1587, 1122, 1335, 1888, 697, 2670, 2245]	9	Absent	NA	NA	PRESENT	0.5317080020904541	256.889573097229	258.8876841068268	259.5882580280304	259.93813705444336	262.9912700653076	4.103585958480835	[256.89577293395996, 257.01268696784973, 257.98051595687866, 258.14698100090027, 258.9146771430969, 259.03140091896057, 259.14819407463074, 259.26522994041443, 259.3819980621338, 259.49868297576904, 259.61531496047974, 259.7152810096741, 259.8490660190582, 259.9490439891815, 260.0657229423523, 260.1825821399689, 260.29932498931885, 260.41617012023926, 260.53290009498596, 260.64972400665283, 260.7666001319885, 260.9912691116333]	[256.88740095367564, 257.0040676203423, 257.9870676203423, 258.1537676203423, 258.9037676203423, 259.020434287009, 259.13710095367566, 259.25376762034233, 259.370434287009, 259.4871009536757, 259.60376762034235, 259.720434287009, 259.8371009536757, 259.9537676203424, 260.07043428700905, 260.1871009536757, 260.3037676203424, 260.4204342870091, 260.53710095367575, 260.6537676203424, 260.7704342870091, 261.00376762034244]	2021_Feb_18_1436	59.86269970627443	1	1
32	44	FALSE	AV	v	['C', 'M', 'T', 'J', 'surprise', 'Y', 'K', 'X', 'U', 'A', 'N', 'Z', 'P', 'H', 'G', 'W']	[829, 1224, 1888, 1029, 'stimAuditory/all_stimAuditory/214.wav', 2670, 1122, 4000, 2059, 697, 1335, 2911, 1456, 986, 944, 2448]	8	Present	stimAuditory/all_stimAuditory/203.wav	stimVisual/all_stimVisual/112.jpg	PRESENT	0.5122928619384766	262.9961631298065	265.00407099723816	265.58780694007874	265.93780398368835	269.10763692855835	4.10356593132019	[263.0023639202118, 263.119127035141, 264.1033661365509, 264.2704300880432, 265.02113699913025, 265.1380250453949, 265.2548189163208, 265.3716621398926, 265.48833298683167, 265.6052260398865, 265.72184205055237, 265.8387019634247, 265.9553620815277, 266.07224702835083, 266.18917298316956, 266.30586409568787, 266.4225950241089, 266.5395209789276, 266.65623903274536, 266.7728519439697, 266.88977003097534, 267.10763812065125]	[263.00376762034244, 263.1204342870091, 264.1034342870091, 264.2701342870091, 265.0201342870091, 265.1368009536758, 265.25346762034246, 265.37013428700914, 265.4868009536758, 265.6034676203425, 265.72013428700916, 265.83680095367583, 265.9534676203425, 266.0701342870092, 266.18680095367586, 266.30346762034253, 266.4201342870092, 266.5368009536759, 266.65346762034255, 266.7701342870092, 266.8868009536759, 267.12013428700925]	2021_Feb_18_1436	59.86269970627443	1	1
32	45	FALSE	NN	v	['S', 'K', 'T', 'J', 'E', 'Z', 'Y', 'M', 'G', 'W', 'A', 'C', 'V', 'N', 'U', 'B']	[1731, 1122, 1888, 1029, 904, 2911, 2670, 1224, 944, 2448, 697, 829, 2245, 1335, 2059, 760]	8	Absent	NA	NA	ABSENT	0.33379220962524414	269.1191849708557	271.12053203582764	271.70418214797974	272.0541801452637	275.22400403022766	4.103471994400024	[269.12538504600525, 269.24246311187744, 270.22675609588623, 270.3936519622803, 271.1443691253662, 271.2610490322113, 271.37797594070435, 271.4947180747986, 271.611613035202, 271.728404045105, 271.8450970649719, 271.9620249271393, 272.07862401008606, 272.19555401802063, 272.3122589588165, 272.42887592315674, 272.54582500457764, 272.66252994537354, 272.77949595451355, 272.8963141441345, 272.99614691734314, 273.22400307655334]	[269.12013428700925, 269.2368009536759, 270.21980095367593, 270.3865009536759, 271.1365009536759, 271.2531676203426, 271.36983428700927, 271.48650095367594, 271.6031676203426, 271.7198342870093, 271.83650095367597, 271.95316762034264, 272.0698342870093, 272.186500953676, 272.30316762034266, 272.41983428700934, 272.536500953676, 272.6531676203427, 272.76983428700936, 272.88650095367603, 273.0031676203427, 273.23650095367606]	2021_Feb_18_1436	59.86269970627443	1	1
32	46	FALSE	NV	v	['T', 'R', 'S', 'V', 'U', 'H', 'E', 'P', 'C', 'Z', 'X', 'G', 'W', 'A', 'M', 'B']	[1888, 1587, 1731, 2245, 2059, 986, 904, 1456, 829, 2911, 4000, 944, 2448, 697, 1224, 760]	11	Present	NA	NA	PRESENT	0.28234004974365234	275.2258620262146	277.2368791103363	278.1705231666565	278.5205509662628	281.3403699398041	4.103490829467773	[275.23206210136414, 275.34870195388794, 276.3331079483032, 276.4998850822449, 277.2506740093231, 277.36760902404785, 277.48448491096497, 277.6016161441803, 277.71787309646606, 277.8348650932312, 277.9514729976654, 278.06831407546997, 278.18518805503845, 278.30190205574036, 278.4187309741974, 278.53553891181946, 278.65219807624817, 278.7692360877991, 278.88588213920593, 279.00268602371216, 279.1194131374359, 279.3403699398041]	[275.23650095367606, 275.35316762034273, 276.33616762034274, 276.5028676203427, 277.2528676203427, 277.3695342870094, 277.4862009536761, 277.60286762034275, 277.7195342870094, 277.8362009536761, 277.9528676203428, 278.06953428700945, 278.1862009536761, 278.3028676203428, 278.41953428700947, 278.53620095367614, 278.6528676203428, 278.7695342870095, 278.88620095367617, 279.00286762034284, 279.1195342870095, 279.35286762034286]	2021_Feb_18_1436	59.86269970627443	1	1
32	47	FALSE	NV	v	['J', 'U', 'G', 'Z', 'H', 'W', 'N', 'P', 'K', 'V', 'R', 'Y', 'E', 'X', 'A', 'S']	[1029, 2059, 944, 2911, 986, 2448, 1335, 1456, 1122, 2245, 1587, 2670, 904, 4000, 697, 1731]	14	Present	NA	NA	PRESENT	0.26271700859069824	281.3490090370178	283.35325813293457	284.6368839740753	284.9869050979614	287.4567370414734	4.103478908538818	[281.35520911216736, 281.47197699546814, 282.45645904541016, 282.62307500839233, 283.3738489151001, 283.4908320903778, 283.6075530052185, 283.7243881225586, 283.84121108055115, 283.9580020904541, 284.0747699737549, 284.19133496284485, 284.30822110176086, 284.42513394355774, 284.54185795783997, 284.658744096756, 284.77549505233765, 284.8921229839325, 285.0091941356659, 285.1257541179657, 285.2427361011505, 285.4567360877991]	[281.35286762034286, 281.46953428700954, 282.45253428700954, 282.61923428700953, 283.36923428700953, 283.4859009536762, 283.6025676203429, 283.71923428700956, 283.83590095367623, 283.9525676203429, 284.0692342870096, 284.18590095367625, 284.3025676203429, 284.4192342870096, 284.5359009536763, 284.65256762034295, 284.7692342870096, 284.8859009536763, 285.002567620343, 285.11923428700965, 285.2359009536763, 285.46923428700967]	2021_Feb_18_1436	59.86269970627443	1	1
32	48	FALSE	NA	v	['T', 'H', 'R', 'A', 'G', 'Z', 'W', 'E', 'J', 'P', 'U', 'S', 'C', 'X', 'B', 'K']	[1888, 986, 1587, 697, 944, 2911, 2448, 904, 1029, 1456, 2059, 1731, 829, 4000, 760, 1122]	14	Present	NA	NA	PRESENT	0.4519729614257813	287.47203302383423	289.4694709777832	290.75329399108887	291.1033010482788	293.5731029510498	4.103631973266602	[287.4782340526581, 287.5785710811615, 288.562726020813, 288.72952914237976, 289.49710392951965, 289.61404299736023, 289.71387791633606, 289.8306860923767, 289.9475750923157, 290.06434512138367, 290.18110513687134, 290.2979130744934, 290.4146571159363, 290.53132700920105, 290.64826011657715, 290.7650189399719, 290.88181710243225, 290.99881505966187, 291.1154451370239, 291.23255610466003, 291.3490650653839, 291.5731029510498]	[287.46923428700967, 287.58590095367634, 288.56890095367635, 288.73560095367634, 289.48560095367634, 289.602267620343, 289.7189342870097, 289.83560095367636, 289.95226762034304, 290.0689342870097, 290.1856009536764, 290.30226762034306, 290.41893428700973, 290.5356009536764, 290.6522676203431, 290.76893428700976, 290.88560095367643, 291.0022676203431, 291.1189342870098, 291.23560095367645, 291.3522676203431, 291.5856009536765]	2021_Feb_18_1436	59.86269970627443	1	1
32	49	FALSE	NV	v	['N', 'Z', 'W', 'S', 'B', 'V', 'H', 'Y', 'T', 'P', 'A', 'K', 'G', 'X', 'C', 'J']	[1335, 2911, 2448, 1731, 760, 2245, 986, 2670, 1888, 1456, 697, 1122, 944, 4000, 829, 1029]	14	Present	NA	NA	PRESENT	0.4161710739135742	293.57855010032654	295.5859320163727	296.869775056839	297.2197070121765	299.6894700527191	4.1035380363464355	[293.5847499370575, 293.70169591903687, 294.6860659122467, 294.8527491092682, 295.60354804992676, 295.7204899787903, 295.837366104126, 295.9539921283722, 296.0709071159363, 296.1875231266022, 296.30435609817505, 296.4213140010834, 296.53783798217773, 296.6547989845276, 296.77145504951477, 296.8884620666504, 297.00498604774475, 297.1219000816345, 297.2387180328369, 297.3555519580841, 297.4722831249237, 297.6894700527191]	[293.5856009536765, 293.70226762034315, 294.68526762034315, 294.85196762034315, 295.60196762034315, 295.7186342870098, 295.8353009536765, 295.95196762034317, 296.06863428700984, 296.1853009536765, 296.3019676203432, 296.41863428700987, 296.53530095367654, 296.6519676203432, 296.7686342870099, 296.88530095367656, 297.00196762034324, 297.1186342870099, 297.2353009536766, 297.35196762034326, 297.46863428700993, 297.7019676203433]	2021_Feb_18_1436	59.86269970627443	1	1
32	50	FALSE	NA	v	['S', 'M', 'Y', 'R', 'J', 'V', 'T', 'U', 'K', 'H', 'P', 'C', 'X', 'A', 'G', 'W']	[1731, 1224, 2670, 1587, 1029, 2245, 1888, 2059, 1122, 986, 1456, 829, 4000, 697, 944, 2448]	13	Present	NA	NA	PRESENT	0.5098309516906738	299.7017159461975	301.7021961212158	302.86923599243164	303.2194490432739	305.80583596229553	4.103639841079712	[299.70791697502136, 299.8247151374817, 300.80921602249146, 300.9760570526123, 301.72681498527527, 301.843612909317, 301.960324048996, 302.0772180557251, 302.19408798217773, 302.31068205833435, 302.4274809360504, 302.5442271232605, 302.66108298301697, 302.77794003486633, 302.89477014541626, 303.01149010658264, 303.12822699546814, 303.2450580596924, 303.36198806762695, 303.47886395454407, 303.5787000656128, 303.80583691596985]	[299.7019676203433, 299.81863428700996, 300.80163428700996, 300.96833428700995, 301.71833428700995, 301.8350009536766, 301.9516676203433, 302.06833428701, 302.18500095367665, 302.3016676203433, 302.41833428701, 302.5350009536767, 302.65166762034335, 302.76833428701, 302.8850009536767, 303.00166762034337, 303.11833428701004, 303.2350009536767, 303.3516676203434, 303.46833428701007, 303.58500095367674, 303.8183342870101]	2021_Feb_18_1436	59.86269970627443	1	1
32	51	FALSE	NN	v	['Z', 'P', 'V', 'E', 'Y', 'W', 'S', 'K', 'A', 'H', 'J', 'M', 'R', 'C', 'G', 'U']	[2911, 1456, 2245, 904, 2670, 2448, 1731, 1122, 697, 986, 1029, 1224, 1587, 829, 944, 2059]	11	Absent	NA	NA	ABSENT	0.20243501663208008	305.80834913253784	307.8187861442566	308.75240111351013	309.10235714912415	311.92220401763916	4.103417873382568	[305.8145499229431, 305.93127608299255, 306.91569113731384, 307.08232498168945, 307.83350896835327, 307.9506449699402, 308.06679010391235, 308.1837389469147, 308.3003520965576, 308.4173550605774, 308.5340781211853, 308.6507201194763, 308.7675471305847, 308.8842101097107, 309.00118613243103, 309.1180009841919, 309.23464608192444, 309.35146498680115, 309.46857810020447, 309.5851230621338, 309.7020790576935, 309.92220401763916]	[305.8183342870101, 305.93500095367676, 306.91800095367677, 307.08470095367676, 307.83470095367676, 307.95136762034343, 308.0680342870101, 308.1847009536768, 308.30136762034346, 308.41803428701013, 308.5347009536768, 308.6513676203435, 308.76803428701015, 308.8847009536768, 309.0013676203435, 309.1180342870102, 309.23470095367685, 309.3513676203435, 309.4680342870102, 309.5847009536769, 309.70136762034355, 309.9347009536769]	2021_Feb_18_1436	59.86269970627443	1	1
32	52	FALSE	NA	v	['E', 'A', 'W', 'Y', 'U', 'M', 'B', 'N', 'J', 'P', 'C', 'X', 'R', 'S', 'G', 'H']	[904, 697, 2448, 2670, 2059, 1224, 760, 1335, 1029, 1456, 829, 4000, 1587, 1731, 944, 986]	12	Present	NA	NA	PRESENT	0.33509278297424316	311.9313521385193	313.93515515327454	314.98579502105713	315.3354170322418	318.0385699272156	4.10341477394104	[311.93755412101746, 312.0545029640198, 313.0388331413269, 313.2055480480194, 313.956533908844, 314.073312997818, 314.19005703926086, 314.3067669868469, 314.4237470626831, 314.5405020713806, 314.6573450565338, 314.7739579677582, 314.89096307754517, 315.0074770450592, 315.12446093559265, 315.24102997779846, 315.35781598091125, 315.47485303878784, 315.591609954834, 315.7083339691162, 315.82514214515686, 316.0385699272156]	[311.9347009536769, 312.05136762034357, 313.0343676203436, 313.20106762034357, 313.95106762034357, 314.06773428701024, 314.1844009536769, 314.3010676203436, 314.41773428701026, 314.53440095367694, 314.6510676203436, 314.7677342870103, 314.88440095367696, 315.00106762034363, 315.1177342870103, 315.234400953677, 315.35106762034366, 315.46773428701033, 315.584400953677, 315.7010676203437, 315.81773428701035, 316.0510676203437]	2021_Feb_18_1436	59.86269970627443	1	1
32	53	FALSE	NA	v	['R', 'M', 'A', 'G', 'H', 'U', 'P', 'E', 'S', 'W', 'X', 'V', 'C', 'Y', 'N', 'Z']	[1587, 1224, 697, 944, 986, 2059, 1456, 904, 1731, 2448, 4000, 2245, 829, 2670, 1335, 2911]	11	Present	NA	NA	PRESENT	0.364285945892334	318.0550100803375	320.0514681339264	320.9851610660553	321.33635115623474	324.1549370288849	4.103468894958496	[318.0612099170685, 318.16083812713623, 319.14520812034607, 319.3121840953827, 320.0796389579773, 320.1795771121979, 320.29632902145386, 320.41316509246826, 320.5299611091614, 320.64677000045776, 320.7635860443115, 320.8803811073303, 320.9973111152649, 321.113893032074, 321.2307789325714, 321.3474819660187, 321.4643359184265, 321.5810749530792, 321.69788098335266, 321.8148009777069, 321.9316439628601, 322.1549379825592]	[318.0510676203437, 318.1677342870104, 319.1507342870104, 319.31743428701037, 320.06743428701037, 320.18410095367705, 320.3007676203437, 320.4174342870104, 320.53410095367707, 320.65076762034374, 320.7674342870104, 320.8841009536771, 321.00076762034377, 321.11743428701044, 321.2341009536771, 321.3507676203438, 321.46743428701046, 321.58410095367714, 321.7007676203438, 321.8174342870105, 321.93410095367716, 322.1674342870105]	2021_Feb_18_1436	59.86269970627443	1	1
32	54	FALSE	NN	v	['R', 'H', 'E', 'Z', 'V', 'W', 'J', 'N', 'B', 'K', 'G', 'U', 'T', 'C', 'S', 'Y']	[1587, 986, 904, 2911, 2245, 2448, 1029, 1335, 760, 1122, 944, 2059, 1888, 829, 1731, 2670]	8	Absent	NA	NA	ABSENT	0.41687703132629395	324.1612060070038	326.16762495040894	326.75159215927124	327.10164499282837	330.271301984787	4.103677034378052	[324.1674060821533, 324.28404211997986, 325.2683460712433, 325.43511509895325, 326.1859269142151, 326.3029999732971, 326.4196889400482, 326.53674507141113, 326.6532609462738, 326.7701060771942, 326.8869400024414, 327.0037100315094, 327.12052512168884, 327.2371530532837, 327.35389399528503, 327.47090697288513, 327.5879509449005, 327.7043011188507, 327.8212020397186, 327.93778896331787, 328.0548520088196, 328.2713029384613]	[324.1674342870105, 324.2841009536772, 325.2671009536772, 325.4338009536772, 326.1838009536772, 326.30046762034385, 326.4171342870105, 326.5338009536772, 326.6504676203439, 326.76713428701055, 326.8838009536772, 327.0004676203439, 327.1171342870106, 327.23380095367725, 327.3504676203439, 327.4671342870106, 327.58380095367727, 327.70046762034394, 327.8171342870106, 327.9338009536773, 328.05046762034397, 328.2838009536773]	2021_Feb_18_1436	59.86269970627443	1	1
32	55	FALSE	NV	v	['Z', 'W', 'H', 'E', 'A', 'K', 'Y', 'T', 'R', 'J', 'N', 'B', 'V', 'X', 'U', 'S']	[2911, 2448, 986, 904, 697, 1122, 2670, 1888, 1587, 1029, 1335, 760, 2245, 4000, 2059, 1731]	14	Present	NA	NA	PRESENT	0.3661141395568848	330.2843120098114	332.28415393829346	333.56800293922424	333.9178349971771	336.3876700401306	4.103516101837158	[330.2905111312866, 330.40740513801575, 331.39156699180603, 331.5584981441498, 332.30924010276794, 332.4261019229889, 332.5430181026459, 332.65955996513367, 332.77662801742554, 332.8933539390564, 333.0101809501648, 333.12675499916077, 333.2435579299927, 333.36034297943115, 333.4771111011505, 333.59393310546875, 333.7108681201935, 333.82748794555664, 333.944139957428, 334.0613269805908, 334.1612389087677, 334.3876700401306]	[330.2838009536773, 330.400467620344, 331.383467620344, 331.550167620344, 332.300167620344, 332.41683428701066, 332.53350095367733, 332.650167620344, 332.7668342870107, 332.88350095367736, 333.00016762034403, 333.1168342870107, 333.2335009536774, 333.35016762034405, 333.4668342870107, 333.5835009536774, 333.7001676203441, 333.81683428701075, 333.9335009536774, 334.0501676203441, 334.1668342870108, 334.4001676203441]	2021_Feb_18_1436	59.86269970627443	1	1
32	56	FALSE	NN	v	['R', 'T', 'Y', 'H', 'N', 'A', 'Z', 'U', 'S', 'W', 'J', 'K', 'M', 'E', 'C', 'V']	[1587, 1888, 2670, 986, 1335, 697, 2911, 2059, 1731, 2448, 1029, 1122, 1224, 904, 829, 2245]	10	Absent	NA	NA	ABSENT	0.46665406227111816	336.3908181190491	338.4003610610962	339.2176411151886	339.56755208969116	342.5040371417999	4.103676080703735	[336.39702010154724, 336.5137219429016, 337.4982359409332, 337.66533493995667, 338.4155979156494, 338.53261494636536, 338.64924693107605, 338.76599407196045, 338.88291096687317, 338.99986004829407, 339.11655592918396, 339.233225107193, 339.350191116333, 339.4669370651245, 339.58378291130066, 339.7005181312561, 339.8171970844269, 339.93409299850464, 340.0507550239563, 340.1675081253052, 340.28439712524414, 340.5040371417999]	[336.4001676203441, 336.5168342870108, 337.4998342870108, 337.6665342870108, 338.4165342870108, 338.53320095367746, 338.64986762034414, 338.7665342870108, 338.8832009536775, 338.99986762034416, 339.11653428701084, 339.2332009536775, 339.3498676203442, 339.46653428701086, 339.58320095367753, 339.6998676203442, 339.8165342870109, 339.93320095367756, 340.04986762034423, 340.1665342870109, 340.2832009536776, 340.5165342870109]	2021_Feb_18_1436	59.86269970627443	1	1
32	57	FALSE	NA	v	['U', 'A', 'K', 'P', 'E', 'W', 'H', 'B', 'N', 'X', 'C', 'S', 'T', 'J', 'M', 'G']	[2059, 697, 1122, 1456, 904, 2448, 986, 760, 1335, 4000, 829, 1731, 1888, 1029, 1224, 944]	10	Present	NA	NA	PRESENT	0.3992319107055664	342.5138580799103	344.5169041156769	345.3339149951935	345.6842601299286	348.62040305137634	4.103498935699463	[342.52005791664124, 342.6370499134064, 343.6212511062622, 343.78805708885193, 344.5388479232788, 344.655650138855, 344.772665977478, 344.88914704322815, 345.00617003440857, 345.12285900115967, 345.2397880554199, 345.35657000541687, 345.4732699394226, 345.59024310112, 345.7068381309509, 345.82355213165283, 345.9404139518738, 346.0570409297943, 346.1740779876709, 346.2907991409302, 346.4075491428375, 346.620402097702]	[342.5165342870109, 342.6332009536776, 343.6162009536776, 343.7829009536776, 344.5329009536776, 344.64956762034427, 344.76623428701095, 344.8829009536776, 344.9995676203443, 345.11623428701097, 345.23290095367764, 345.3495676203443, 345.466234287011, 345.58290095367767, 345.69956762034434, 345.816234287011, 345.9329009536777, 346.04956762034436, 346.16623428701104, 346.2829009536777, 346.3995676203444, 346.63290095367773]	2021_Feb_18_1436	59.86269970627443	1	1
32	58	FALSE	NA	v	['G', 'P', 'E', 'A', 'T', 'W', 'Y', 'B', 'X', 'J', 'U', 'Z', 'H', 'M', 'S', 'K']	[944, 1456, 904, 697, 1888, 2448, 2670, 760, 4000, 1029, 2059, 2911, 986, 1224, 1731, 1122]	9	Present	NA	NA	PRESENT	0.3324410915374756	348.62063908576965	350.63332414627075	351.3336341381073	351.68364906311035	354.7367699146271	4.103445768356323	[348.6268379688263, 348.74332213401794, 349.7278559207916, 349.8944981098175, 350.6621379852295, 350.76202392578125, 350.8788571357727, 350.995726108551, 351.1126620769501, 351.2292959690094, 351.34626293182373, 351.46304512023926, 351.57974910736084, 351.69640493392944, 351.8133330345154, 351.9299509525299, 352.046884059906, 352.163526058197, 352.28043007850647, 352.3971600532532, 352.5140631198883, 352.73676896095276]	[348.63290095367773, 348.7495676203444, 349.7325676203444, 349.8992676203444, 350.6492676203444, 350.7659342870111, 350.88260095367775, 350.9992676203444, 351.1159342870111, 351.2326009536778, 351.34926762034445, 351.4659342870111, 351.5826009536778, 351.6992676203445, 351.81593428701115, 351.9326009536778, 352.0492676203445, 352.16593428701117, 352.28260095367784, 352.3992676203445, 352.5159342870112, 352.74926762034454]	2021_Feb_18_1436	59.86269970627443	1	1
32	59	FALSE	NN	v	['K', 'M', 'A', 'C', 'E', 'R', 'Z', 'N', 'J', 'S', 'Y', 'W', 'V', 'H', 'T', 'U']	[1122, 1224, 697, 829, 904, 1587, 2911, 1335, 1029, 1731, 2670, 2448, 2245, 986, 1888, 2059]	11	Absent	NA	NA	ABSENT	0.4811391830444336	354.7437081336975	356.7496190071106	357.68329310417175	358.0333650112152	360.8531370162964	4.103518009185791	[354.74990797042847, 354.8666009902954, 355.85089206695557, 356.0176990032196, 356.76845598220825, 356.8852939605713, 357.00224900245667, 357.119038105011, 357.2358160018921, 357.35237407684326, 357.4696171283722, 357.5860381126404, 357.7030351161957, 357.8198490142822, 357.93664598464966, 358.0531871318817, 358.1701650619507, 358.28680992126465, 358.40375804901123, 358.5204141139984, 358.6377489566803, 358.8531370162964]	[354.74926762034454, 354.8659342870112, 355.8489342870112, 356.0156342870112, 356.7656342870112, 356.8823009536779, 356.99896762034456, 357.11563428701123, 357.2323009536779, 357.3489676203446, 357.46563428701126, 357.58230095367793, 357.6989676203446, 357.8156342870113, 357.93230095367795, 358.0489676203446, 358.1656342870113, 358.282300953678, 358.39896762034465, 358.5156342870113, 358.632300953678, 358.86563428701135]	2021_Feb_18_1436	59.86269970627443	1	1
32	60	FALSE	NA	v	['E', 'Y', 'G', 'M', 'U', 'K', 'N', 'W', 'C', 'Z', 'V', 'J', 'X', 'P', 'S', 'B']	[904, 2670, 944, 1224, 2059, 1122, 1335, 2448, 829, 2911, 2245, 1029, 4000, 1456, 1731, 760]	13	Present	NA	NA	PRESENT	0.33440208435058594	360.86670303344727	362.8659639358521	364.03301906585693	364.38297605514526	366.9695029258728	4.103538990020752	[360.8729040622711, 360.9897561073303, 361.95728611946106, 362.12414598464966, 362.89172101020813, 363.00850009918213, 363.1253139972687, 363.242094039917, 363.3590009212494, 363.4756979942322, 363.5924699306488, 363.7092750072479, 363.82619309425354, 363.9428451061249, 364.05982208251953, 364.1763470172882, 364.2931709289551, 364.4100570678711, 364.5270221233368, 364.64368510246277, 364.74370098114014, 364.9695041179657]	[360.86563428701135, 360.982300953678, 361.965300953678, 362.132000953678, 362.882000953678, 362.9986676203447, 363.11533428701136, 363.23200095367804, 363.3486676203447, 363.4653342870114, 363.58200095367806, 363.69866762034474, 363.8153342870114, 363.9320009536781, 364.04866762034476, 364.16533428701143, 364.2820009536781, 364.3986676203448, 364.51533428701146, 364.63200095367813, 364.7486676203448, 364.98200095367815]	2021_Feb_18_1436	59.86269970627443	1	1
32	61	FALSE	AA	v	['R', 'S', 'M', 'C', 'G', 'J', 'A', 'U', 'V', 'surprise', 'H', 'N', 'X', 'W', 'K', 'B']	[1587, 1731, 1224, 829, 944, 1029, 697, 2059, 2245, 'stimAuditory/all_stimAuditory/112.wav', 986, 1335, 4000, 2448, 1122, 760]	13	Present	stimAuditory/all_stimAuditory/220.wav	stimVisual/all_stimVisual/215.jpg	PRESENT	0.30707693099975586	366.9730429649353	368.98228001594543	370.1498820781708	370.4994270801544	373.0858700275421	4.10359001159668	[366.9792449474335, 367.09637999534607, 368.0804920196533, 368.24742698669434, 368.99845790863037, 369.1150951385498, 369.23172211647034, 369.34872007369995, 369.4653239250183, 369.5823640823364, 369.698872089386, 369.81574010849, 369.93263006210327, 370.06617307662964, 370.16624903678894, 370.28283500671387, 370.399845123291, 370.51652908325195, 370.63332509994507, 370.7500190734863, 370.86677408218384, 371.08587098121643]	[366.98200095367815, 367.0986676203448, 368.08166762034483, 368.2483676203448, 368.9983676203448, 369.1150342870115, 369.23170095367817, 369.34836762034485, 369.4650342870115, 369.5817009536782, 369.69836762034487, 369.81503428701154, 369.9317009536782, 370.0483676203449, 370.16503428701157, 370.28170095367824, 370.3983676203449, 370.5150342870116, 370.63170095367826, 370.74836762034494, 370.8650342870116, 371.09836762034496]	2021_Feb_18_1436	59.86269970627443	1	1
32	62	FALSE	NA	v	['T', 'V', 'Z', 'P', 'Y', 'U', 'R', 'K', 'M', 'E', 'X', 'G', 'C', 'J', 'B', 'H']	[1888, 2245, 2911, 1456, 2670, 2059, 1587, 1122, 1224, 904, 4000, 944, 829, 1029, 760, 986]	11	Present	NA	NA	PRESENT	0.352459192276001	373.0962679386139	375.0986440181732	376.0324399471283	376.3825240135193	379.2022371292114	4.103593111038208	[373.10246896743774, 373.2193410396576, 374.20375299453735, 374.3706121444702, 375.12134313583374, 375.23805499076843, 375.35492992401123, 375.47178196907043, 375.5886240005493, 375.70531010627747, 375.82218313217163, 375.9388370513916, 376.05580401420593, 376.1726460456848, 376.28949093818665, 376.4062271118164, 376.5230860710144, 376.6396760940552, 376.7565529346466, 376.8733320236206, 376.9900851249695, 377.2022371292114]	[373.09836762034496, 373.21503428701163, 374.19803428701164, 374.36473428701163, 375.11473428701163, 375.2314009536783, 375.348067620345, 375.46473428701165, 375.5814009536783, 375.698067620345, 375.8147342870117, 375.93140095367835, 376.048067620345, 376.1647342870117, 376.28140095367837, 376.39806762034505, 376.5147342870117, 376.6314009536784, 376.74806762034507, 376.86473428701174, 376.9814009536784, 377.21473428701177]	2021_Feb_18_1436	59.86269970627443	1	1
32	63	FALSE	NA	v	['S', 'J', 'W', 'E', 'P', 'N', 'G', 'Y', 'B', 'A', 'U', 'X', 'M', 'T', 'V', 'C']	[1731, 1029, 2448, 904, 1456, 1335, 944, 2670, 760, 697, 2059, 4000, 1224, 1888, 2245, 829]	12	Present	NA	NA	PRESENT	0.23671197891235352	379.2030200958252	381.2151279449463	382.26545810699463	382.61543798446655	385.3186020851135	4.103474140167236	[379.20921993255615, 379.3259630203247, 380.31047201156616, 380.4770760536194, 381.2444131374359, 381.3448610305786, 381.4614291191101, 381.5782220363617, 381.69491696357727, 381.81168699264526, 381.9286320209503, 382.045294046402, 382.1622540950775, 382.2789649963379, 382.3958649635315, 382.51254892349243, 382.6295280456543, 382.7459919452667, 382.86299109458923, 382.9796600341797, 383.0965859889984, 383.3186020851135]	[379.21473428701177, 379.33140095367844, 380.31440095367844, 380.48110095367844, 381.23110095367844, 381.3477676203451, 381.4644342870118, 381.58110095367846, 381.69776762034513, 381.8144342870118, 381.9311009536785, 382.04776762034516, 382.16443428701183, 382.2811009536785, 382.3977676203452, 382.51443428701185, 382.6311009536785, 382.7477676203452, 382.8644342870119, 382.98110095367855, 383.0977676203452, 383.3311009536786]	2021_Feb_18_1436	59.86269970627443	1	1
32	64	FALSE	NV	v	['B', 'N', 'H', 'T', 'K', 'C', 'S', 'M', 'G', 'Z', 'P', 'Y', 'V', 'X', 'A', 'W']	[760, 1335, 986, 1888, 1122, 829, 1731, 1224, 944, 2911, 1456, 2670, 2245, 4000, 697, 2448]	14	Present	NA	NA	PRESENT	0.3855059146881103	385.3260669708252	387.3315191268921	388.6151540279389	388.96517610549927	391.4349701404571	4.1034510135650635	[385.33226704597473, 385.4489769935608, 386.43351697921753, 386.60028409957886, 387.35118293762207, 387.4679539203644, 387.58461594581604, 387.7015209197998, 387.81832098960876, 387.9350221157074, 388.05195713043213, 388.16856813430786, 388.2855999469757, 388.4021589756012, 388.5191459655762, 388.6360909938812, 388.75244402885437, 388.8692419528961, 388.9860861301422, 389.1029100418091, 389.2196569442749, 389.43497014045715]	[385.3311009536786, 385.44776762034525, 386.43076762034525, 386.59746762034524, 387.34746762034524, 387.4641342870119, 387.5808009536786, 387.69746762034526, 387.81413428701194, 387.9308009536786, 388.0474676203453, 388.16413428701196, 388.28080095367864, 388.3974676203453, 388.514134287012, 388.63080095367866, 388.74746762034533, 388.864134287012, 388.9808009536787, 389.09746762034536, 389.21413428701203, 389.4474676203454]	2021_Feb_18_1436	59.86269970627443	1	1
32	65	FALSE	NV	v	['U', 'E', 'G', 'V', 'T', 'N', 'A', 'H', 'Z', 'R', 'J', 'S', 'X', 'C', 'M', 'K']	[2059, 904, 944, 2245, 1888, 1335, 697, 986, 2911, 1587, 1029, 1731, 4000, 829, 1224, 1122]	13	Present	NA	NA	PRESENT	0.3106100559234619	391.4490649700165	393.44775700569153	394.61485600471497	394.9648940563202	397.5513370037079	4.103579998016357	[391.455265045166, 391.5721571445465, 392.5397551059723, 392.706668138504, 393.47418308258057, 393.5909159183502, 393.7077329158783, 393.82458305358887, 393.94171690940857, 394.0583770275116, 394.1749529838562, 394.29168605804443, 394.40863609313965, 394.5254430770874, 394.6421489715576, 394.7421419620514, 394.858962059021, 394.97575306892395, 395.0924599170685, 395.20925307273865, 395.32622814178467, 395.5513370037079]	[391.4474676203454, 391.56413428701205, 392.54713428701206, 392.71383428701205, 393.46383428701205, 393.5805009536787, 393.6971676203454, 393.81383428701207, 393.93050095367875, 394.0471676203454, 394.1638342870121, 394.28050095367877, 394.39716762034544, 394.5138342870121, 394.6305009536788, 394.74716762034546, 394.86383428701214, 394.9805009536788, 395.0971676203455, 395.21383428701216, 395.33050095367884, 395.5638342870122]	2021_Feb_18_1436	59.86269970627443	1	1
32	66	FALSE	AA	v	['J', 'M', 'N', 'B', 'P', 'U', 'K', 'E', 'Z', 'surprise', 'Y', 'V', 'X', 'H', 'W', 'G']	[1029, 1224, 1335, 760, 1456, 2059, 1122, 904, 2911, 'stimAuditory/all_stimAuditory/217.wav', 2670, 2245, 4000, 986, 2448, 944]	13	Present	stimAuditory/all_stimAuditory/101.wav	stimVisual/all_stimVisual/123.jpg	PRESENT	0.3791348934173584	397.5557870864868	399.5641219615936	400.7311720848083	401.08127903938293	403.66770195961	4.103579998016357	[397.56198596954346, 397.67876410484314, 398.66335701942444, 398.82994294166565, 399.5805959701538, 399.6974301338196, 399.8143820762634, 399.9310281276703, 400.04792404174805, 400.1647639274597, 400.28153109550476, 400.398246049881, 400.51500701904297, 400.6318929195404, 400.74869894981384, 400.8654909133911, 400.98284006118774, 401.0991449356079, 401.2158739566803, 401.33252692222595, 401.4494740962982, 401.66770195961]	[397.5638342870122, 397.68050095367886, 398.66350095367886, 398.83020095367885, 399.58020095367885, 399.69686762034553, 399.8135342870122, 399.9302009536789, 400.04686762034555, 400.1635342870122, 400.2802009536789, 400.3968676203456, 400.51353428701225, 400.6302009536789, 400.7468676203456, 400.86353428701227, 400.98020095367895, 401.0968676203456, 401.2135342870123, 401.33020095367897, 401.44686762034564, 401.680200953679]	2021_Feb_18_1436	59.86269970627443	1	1
32	67	FALSE	NA	v	['H', 'B', 'T', 'R', 'S', 'C', 'A', 'V', 'X', 'P', 'Y', 'U', 'W', 'J', 'N', 'G']	[986, 760, 1888, 1587, 1731, 829, 697, 2245, 4000, 1456, 2670, 2059, 2448, 1029, 1335, 944]	9	Present	NA	NA	PRESENT	0.3845648765563965	403.6789231300354	405.68058705329895	406.38087010383606	406.7310559749603	409.7840700149536	4.103482961654663	[403.68512511253357, 403.80170607566833, 404.78626894950867, 404.95310711860657, 405.70384192466736, 405.8207709789276, 405.93749499320984, 406.0541241168976, 406.17096495628357, 406.28782892227173, 406.40470004081726, 406.52150201797485, 406.6383249759674, 406.7551119327545, 406.87195205688477, 406.98853302001953, 407.1055200099945, 407.22230291366577, 407.3388121128082, 407.45612502098083, 407.5557470321655, 407.7840700149536]	[403.680200953679, 403.79686762034567, 404.77986762034567, 404.94656762034566, 405.69656762034566, 405.81323428701234, 405.929900953679, 406.0465676203457, 406.16323428701236, 406.27990095367903, 406.3965676203457, 406.5132342870124, 406.62990095367905, 406.74656762034573, 406.8632342870124, 406.9799009536791, 407.09656762034575, 407.2132342870124, 407.3299009536791, 407.4465676203458, 407.56323428701245, 407.7965676203458]	2021_Feb_18_1436	59.86269970627443	1	1
32	68	FALSE	NV	v	['W', 'N', 'A', 'T', 'G', 'K', 'Z', 'J', 'S', 'V', 'M', 'U', 'X', 'C', 'R', 'Y']	[2448, 1335, 697, 1888, 944, 1122, 2911, 1029, 1731, 2245, 1224, 2059, 4000, 829, 1587, 2670]	13	Present	NA	NA	PRESENT	0.32502007484436035	409.785542011261	411.7968521118164	412.9642670154571	413.31409907341	415.9004371166229	4.1035850048065186	[409.7917411327362, 409.90840697288513, 410.8928210735321, 411.05954098701477, 411.8270089626312, 411.92703008651733, 412.04388999938965, 412.16077613830566, 412.27760195732117, 412.3941650390625, 412.51114892959595, 412.6279261112213, 412.7448670864105, 412.86161613464355, 412.97833704948425, 413.0950469970703, 413.21197605133057, 413.32862997055054, 413.44544291496277, 413.5621500015259, 413.6789870262146, 413.9004371166229]	[409.7965676203458, 409.9132342870125, 410.8962342870125, 411.06293428701247, 411.81293428701247, 411.92960095367914, 412.0462676203458, 412.1629342870125, 412.27960095367916, 412.39626762034584, 412.5129342870125, 412.6296009536792, 412.74626762034586, 412.86293428701254, 412.9796009536792, 413.0962676203459, 413.21293428701256, 413.32960095367923, 413.4462676203459, 413.5629342870126, 413.67960095367926, 413.9129342870126]	2021_Feb_18_1436	59.86269970627443	1	1
32	69	FALSE	AN	v	['G', 'B', 'J', 'T', 'surprise', 'M', 'W', 'Z', 'K', 'H', 'S', 'U', 'P', 'A', 'E', 'N']	[944, 760, 1029, 1888, 'stimAuditory/all_stimAuditory/102.wav', 1224, 2448, 2911, 1122, 986, 1731, 2059, 1456, 697, 904, 1335]	8	Absent	stimAuditory/all_stimAuditory/208.wav	stimVisual/all_stimVisual/107.jpg	ABSENT	0.3937399387359619	415.9086110591888	417.913232088089	418.4970669746399	418.84704399108887	422.01680302619934	4.103570938110352	[415.9148099422455, 416.0314230918884, 417.0158181190491, 417.1828861236572, 417.9335389137268, 418.05024814605713, 418.16705107688904, 418.28396701812744, 418.40078806877136, 418.5173580646515, 418.6343810558319, 418.7510099411011, 418.8676941394806, 418.9845609664917, 419.1015360355377, 419.218220949173, 419.33491110801697, 419.45191407203674, 419.56877398490906, 419.6856939792633, 419.8022520542145, 420.01680397987366]	[415.9129342870126, 416.0296009536793, 417.0126009536793, 417.1793009536793, 417.9293009536793, 418.04596762034595, 418.1626342870126, 418.2793009536793, 418.39596762034597, 418.51263428701265, 418.6293009536793, 418.745967620346, 418.86263428701267, 418.97930095367934, 419.095967620346, 419.2126342870127, 419.32930095367936, 419.44596762034604, 419.5626342870127, 419.6793009536794, 419.79596762034606, 420.0293009536794]	2021_Feb_18_1436	59.86269970627443	1	1
32	70	FALSE	NN	v	['J', 'K', 'S', 'M', 'G', 'Y', 'N', 'T', 'B', 'Z', 'W', 'R', 'U', 'E', 'P', 'H']	[1029, 1122, 1731, 1224, 944, 2670, 1335, 1888, 760, 2911, 2448, 1587, 2059, 904, 1456, 986]	9	Absent	NA	NA	PRESENT	0.2868781089782715	422.03170800209045	424.0296530723572	424.73001313209534	425.0800940990448	428.13317012786865	4.103517055511475	[422.0379090309143, 422.15464901924133, 423.1225459575653, 423.28915309906006, 424.05655312538147, 424.1734139919281, 424.29018211364746, 424.4071340560913, 424.52380299568176, 424.640545129776, 424.7406039237976, 424.8574640750885, 424.9742739200592, 425.09101390838623, 425.2077820301056, 425.3246159553528, 425.4414939880371, 425.558207988739, 425.6750099658966, 425.7918629646301, 425.90873098373413, 426.13317012786865]	[422.0293009536794, 422.1459676203461, 423.1289676203461, 423.2956676203461, 424.0456676203461, 424.16233428701275, 424.27900095367943, 424.3956676203461, 424.5123342870128, 424.62900095367945, 424.7456676203461, 424.8623342870128, 424.9790009536795, 425.09566762034615, 425.2123342870128, 425.3290009536795, 425.44566762034617, 425.56233428701285, 425.6790009536795, 425.7956676203462, 425.91233428701287, 426.1456676203462]	2021_Feb_18_1436	59.86269970627443	1	1
32	71	FALSE	NA	v	['U', 'A', 'C', 'H', 'G', 'W', 'J', 'V', 'B', 'N', 'T', 'M', 'X', 'R', 'P', 'K']	[2059, 697, 829, 986, 944, 2448, 1029, 2245, 760, 1335, 1888, 1224, 4000, 1587, 1456, 1122]	13	Present	NA	NA	PRESENT	0.32358717918395996	428.1382169723511	430.1462290287018	431.3130450248718	431.66304898262024	434.2495369911194	4.1033079624176025	[428.1444180011749, 428.26126194000244, 429.24545907974243, 429.4125111103058, 430.1634750366211, 430.280091047287, 430.39682602882385, 430.51361107826233, 430.63046193122864, 430.74707198143005, 430.86401200294495, 430.9809019565582, 431.0976679325104, 431.21429204940796, 431.3312771320343, 431.4480171203613, 431.5648319721222, 431.6814830303192, 431.79837799072266, 431.91518902778625, 432.0318179130554, 432.24953603744507]	[428.1456676203462, 428.2623342870129, 429.2453342870129, 429.4120342870129, 430.1620342870129, 430.27870095367956, 430.39536762034624, 430.5120342870129, 430.6287009536796, 430.74536762034626, 430.86203428701293, 430.9787009536796, 431.0953676203463, 431.21203428701295, 431.32870095367963, 431.4453676203463, 431.562034287013, 431.67870095367965, 431.7953676203463, 431.912034287013, 432.0287009536797, 432.262034287013]	2021_Feb_18_1436	59.86269970627443	1	1
32	72	FALSE	NV	v	['Z', 'T', 'J', 'Y', 'P', 'E', 'M', 'A', 'N', 'X', 'H', 'W', 'R', 'K', 'C', 'G']	[2911, 1888, 1029, 2670, 1456, 904, 1224, 697, 1335, 4000, 986, 2448, 1587, 1122, 829, 944]	10	Present	NA	NA	PRESENT	0.3606140613555908	434.2614071369171	436.2622730731964	437.0798139572144	437.4294500350952	440.3659019470215	4.103628873825073	[434.26760697364807, 434.3843550682068, 435.36888313293457, 435.5356180667877, 436.28632497787476, 436.4031140804291, 436.5198619365692, 436.6368429660797, 436.75335001945496, 436.870285987854, 436.98705196380615, 437.1040279865265, 437.2206120491028, 437.3376131057739, 437.4546821117401, 437.57125210762024, 437.6878979206085, 437.80476212501526, 437.92137908935547, 438.0381519794464, 438.1383309364319, 438.3659019470215]	[434.262034287013, 434.3787009536797, 435.3617009536797, 435.5284009536797, 436.2784009536797, 436.39506762034637, 436.51173428701304, 436.6284009536797, 436.7450676203464, 436.86173428701306, 436.97840095367974, 437.0950676203464, 437.2117342870131, 437.32840095367976, 437.44506762034644, 437.5617342870131, 437.6784009536798, 437.79506762034646, 437.91173428701313, 438.0284009536798, 438.1450676203465, 438.37840095367983]	2021_Feb_18_1436	59.86269970627443	1	1
32	73	FALSE	NV	v	['B', 'A', 'J', 'U', 'H', 'K', 'M', 'S', 'G', 'N', 'E', 'X', 'W', 'P', 'T', 'Y']	[760, 697, 1029, 2059, 986, 1122, 1224, 1731, 944, 1335, 904, 4000, 2448, 1456, 1888, 2670]	12	Present	NA	NA	PRESENT	0.40544700622558594	440.36822605133057	442.3787090778351	443.429563999176	443.77918314933777	446.4822700023651	4.103560924530029	[440.3744261264801, 440.49069595336914, 441.47505497932434, 441.6421070098877, 442.3925700187683, 442.50950813293457, 442.6265001296997, 442.74327206611633, 442.86006808280945, 442.9766879081726, 443.093631029129, 443.21047496795654, 443.3272759914398, 443.4439890384674, 443.5608971118927, 443.67750096321106, 443.79420804977417, 443.9111371040344, 444.0280361175537, 444.1448380947113, 444.2616949081421, 444.4822690486908]	[440.37840095367983, 440.4950676203465, 441.4780676203465, 441.6447676203465, 442.3947676203465, 442.5114342870132, 442.62810095367985, 442.7447676203465, 442.8614342870132, 442.97810095367987, 443.09476762034654, 443.2114342870132, 443.3281009536799, 443.44476762034657, 443.56143428701324, 443.6781009536799, 443.7947676203466, 443.91143428701326, 444.02810095367994, 444.1447676203466, 444.2614342870133, 444.49476762034664]	2021_Feb_18_1436	59.86269970627443	1	1
32	74	FALSE	NN	v	['C', 'M', 'G', 'E', 'K', 'Y', 'A', 'R', 'N', 'P', 'T', 'S', 'W', 'J', 'B', 'H']	[829, 1224, 944, 904, 1122, 2670, 697, 1587, 1335, 1456, 1888, 1731, 2448, 1029, 760, 986]	13	Absent	NA	NA	ABSENT	0.4178738594055176	446.4909851551056	448.4949779510498	449.66227197647095	450.0123450756073	452.5986371040344	4.103659152984619	[446.49718499183655, 446.61378502845764, 447.5983729362488, 447.7652540206909, 448.5159749984741, 448.632924079895, 448.7497091293335, 448.8662979602814, 448.9831750392914, 449.09986901283264, 449.2165849208832, 449.3336169719696, 449.450453042984, 449.5671420097351, 449.68414998054504, 449.80077600479126, 449.91754698753357, 450.0343940258026, 450.15107107162476, 450.26797795295715, 450.38461112976074, 450.59863805770874]	[446.49476762034664, 446.6114342870133, 447.5944342870133, 447.7611342870133, 448.5111342870133, 448.62780095368, 448.74446762034665, 448.86113428701333, 448.97780095368, 449.0944676203467, 449.21113428701335, 449.32780095368, 449.4444676203467, 449.5611342870134, 449.67780095368005, 449.7944676203467, 449.9111342870134, 450.02780095368007, 450.14446762034675, 450.2611342870134, 450.3778009536801, 450.61113428701344]	2021_Feb_18_1436	59.86269970627443	1	1
32	75	FALSE	NN	v	['Y', 'A', 'R', 'P', 'U', 'B', 'E', 'M', 'G', 'V', 'J', 'N', 'W', 'C', 'S', 'T']	[2670, 697, 1587, 1456, 2059, 760, 904, 1224, 944, 2245, 1029, 1335, 2448, 829, 1731, 1888]	11	Absent	NA	NA	ABSENT	0.6711061000823975	452.6142120361328	454.61150908470154	455.5452210903168	455.89528703689575	458.7150030136109	4.103493928909302	[452.62041211128235, 452.72041606903076, 453.70482206344604, 453.87159395217896, 454.6389729976654, 454.73912596702576, 454.8559341430664, 454.97278213500977, 455.0895240306854, 455.2063190937042, 455.3231201171875, 455.4400610923767, 455.55667304992676, 455.67350006103516, 455.79056692123413, 455.9070870876312, 456.0241210460663, 456.1407449245453, 456.25771498680115, 456.37441301345825, 456.4911141395569, 456.71500301361084]	[452.61113428701344, 452.7278009536801, 453.7108009536801, 453.8775009536801, 454.6275009536801, 454.7441676203468, 454.86083428701346, 454.97750095368013, 455.0941676203468, 455.2108342870135, 455.32750095368016, 455.44416762034683, 455.5608342870135, 455.6775009536802, 455.79416762034685, 455.91083428701353, 456.0275009536802, 456.1441676203469, 456.26083428701355, 456.3775009536802, 456.4941676203469, 456.72750095368025]	2021_Feb_18_1436	59.86269970627443	1	1
32	76	FALSE	NV	v	['E', 'Y', 'V', 'M', 'T', 'R', 'B', 'A', 'H', 'S', 'Z', 'W', 'X', 'G', 'P', 'C']	[904, 2670, 2245, 1224, 1888, 1587, 760, 697, 986, 1731, 2911, 2448, 4000, 944, 1456, 829]	13	Present	NA	NA	PRESENT	0.32375407218933105	458.7205560207367	460.7276930809021	461.8949301242829	462.2448270320892	464.83137011528015	4.103677034378052	[458.72675704956055, 458.8435411453247, 459.82832503318787, 459.9950120449066, 460.7456319332123, 460.86243200302124, 460.97929310798645, 461.0959529876709, 461.2126679420471, 461.3295979499817, 461.4464430809021, 461.5631990432739, 461.6801290512085, 461.7968399524689, 461.91370606422424, 462.0303809642792, 462.14713501930237, 462.26404213905334, 462.3807439804077, 462.4976201057434, 462.6142830848694, 462.83137011528015]	[458.72750095368025, 458.8441676203469, 459.8271676203469, 459.9938676203469, 460.7438676203469, 460.8605342870136, 460.97720095368027, 461.09386762034694, 461.2105342870136, 461.3272009536803, 461.44386762034696, 461.56053428701364, 461.6772009536803, 461.793867620347, 461.91053428701366, 462.02720095368034, 462.143867620347, 462.2605342870137, 462.37720095368036, 462.49386762034703, 462.6105342870137, 462.84386762034705]	2021_Feb_18_1436	59.86269970627443	1	1
32	77	FALSE	NA	v	['N', 'P', 'Z', 'U', 'H', 'S', 'W', 'V', 'M', 'K', 'A', 'G', 'C', 'X', 'Y', 'T']	[1335, 1456, 2911, 2059, 986, 1731, 2448, 2245, 1224, 1122, 697, 944, 829, 4000, 2670, 1888]	14	Present	NA	NA	PRESENT	0.4493110179901123	464.84385895729065	466.84438705444336	468.1279170513153	468.4779670238495	470.9477369785309	4.103349924087524	[464.8500590324402, 464.96694803237915, 465.95138597488403, 466.1182699203491, 466.86892104148865, 466.98548913002014, 467.10239601135254, 467.21928906440735, 467.3359229564667, 467.4531729221344, 467.5696611404419, 467.68654894828796, 467.8030240535736, 467.91990303993225, 468.0368649959564, 468.15356707572937, 468.2702970504761, 468.3872981071472, 468.5038731098175, 468.62074303627014, 468.7209861278534, 468.9477369785309]	[464.84386762034705, 464.96053428701373, 465.94353428701373, 466.1102342870137, 466.8602342870137, 466.9769009536804, 467.0935676203471, 467.21023428701375, 467.3269009536804, 467.4435676203471, 467.56023428701377, 467.67690095368044, 467.7935676203471, 467.9102342870138, 468.02690095368047, 468.14356762034714, 468.2602342870138, 468.3769009536805, 468.49356762034716, 468.61023428701384, 468.7269009536805, 468.96023428701386]	2021_Feb_18_1436	59.86269970627443	1	1
32	78	FALSE	NA	v	['Z', 'M', 'A', 'T', 'V', 'G', 'N', 'Y', 'X', 'U', 'P', 'W', 'H', 'J', 'B', 'K']	[2911, 1224, 697, 1888, 2245, 944, 1335, 2670, 4000, 2059, 1456, 2448, 986, 1029, 760, 1122]	9	Present	NA	NA	PRESENT	0.3814520835876465	470.9506080150604	472.96061515808105	473.6612250804901	474.0109920501709	477.0641031265259	4.103487968444824	[470.95680713653564, 471.07335209846497, 472.05774307250977, 472.224534034729, 472.9752700328827, 473.0919671058655, 473.2089219093323, 473.32579708099365, 473.44242811203003, 473.5591471195221, 473.6758680343628, 473.7928659915924, 473.90972995758057, 474.0265200138092, 474.14333295822144, 474.2599880695343, 474.3768980503082, 474.4935510158539, 474.61030101776123, 474.72717809677124, 474.84386110305786, 475.0641031265259]	[470.96023428701386, 471.07690095368054, 472.05990095368054, 472.22660095368053, 472.97660095368053, 473.0932676203472, 473.2099342870139, 473.32660095368055, 473.4432676203472, 473.5599342870139, 473.6766009536806, 473.79326762034725, 473.9099342870139, 474.0266009536806, 474.1432676203473, 474.25993428701395, 474.3766009536806, 474.4932676203473, 474.60993428701397, 474.72660095368065, 474.8432676203473, 475.07660095368067]	2021_Feb_18_1436	59.86269970627443	1	1
32	79	FALSE	NA	v	['C', 'R', 'N', 'G', 'T', 'Y', 'W', 'E', 'J', 'V', 'X', 'P', 'M', 'A', 'K', 'H']	[829, 1587, 1335, 944, 1888, 2670, 2448, 904, 1029, 2245, 4000, 1456, 1224, 697, 1122, 986]	11	Present	NA	NA	PRESENT	0.4100189208984375	477.0735399723053	479.0768070220947	480.0108540058136	480.3606901168823	483.1804699897766	4.103662967681885	[477.07974004745483, 477.19631004333496, 478.18079710006714, 478.3477199077606, 479.098562002182, 479.2152600288391, 479.3321421146393, 479.44885301589966, 479.5657260417938, 479.68248891830444, 479.7991409301758, 479.91614413261414, 480.0328769683838, 480.14973306655884, 480.2665591239929, 480.38326501846313, 480.50003695487976, 480.6170561313629, 480.73354291915894, 480.8505530357361, 480.9672849178314, 481.1804690361023]	[477.07660095368067, 477.19326762034734, 478.17626762034735, 478.34296762034734, 479.09296762034734, 479.209634287014, 479.3263009536807, 479.44296762034736, 479.55963428701403, 479.6763009536807, 479.7929676203474, 479.90963428701406, 480.02630095368073, 480.1429676203474, 480.2596342870141, 480.37630095368075, 480.49296762034743, 480.6096342870141, 480.7263009536808, 480.84296762034745, 480.9596342870141, 481.1929676203475]	2021_Feb_18_1436	59.86269970627443	1	1
