participant	trial_num	practice	task	condition	RSVP	RAP	probePos	probe_presence	surprise_sound	surprise_img	probe_response	probe_resp_time	first_fixation_time	trial_start_time	surprise_start_time	probe_start_time	trial_end_time	trial_duration	actualEventTimes	plannedEventTimes	date	framerate	marker_vol	RAP_vol
12	1	FALSE	NA	v	['K', 'M', 'U', 'S', 'A', 'P', 'N', 'X', 'V', 'R', 'J', 'H', 'E', 'T', 'G', 'W']	[1122, 1224, 2059, 1731, 697, 1456, 1335, 4000, 2245, 1587, 1029, 986, 904, 1888, 944, 2448]	8	Present	NA	NA	PRESENT	0.7247931957244873	2.86102294921875e-6	1.9993908405303955	2.5801498889923096	2.9311509132385254	6.1038689613342285	4.104478120803833	[0.010066986083984375, 0.10966897010803223, 1.094059944152832, 1.2610418796539307, 2.028474807739258, 2.145220994949341, 2.245309829711914, 2.362074851989746, 2.478928804397583, 2.5957138538360596, 2.712571859359741, 2.829352855682373, 2.9460458755493164, 3.0628528594970703, 3.179548978805542, 3.2964589595794678, 3.413188934326172, 3.5300137996673584, 3.6467769145965576, 3.763580799102783, 3.880409002304077, 4.103869915008545]	[9.5367431640625e-07, 0.11666762034098306, 1.099667620340983, 1.266367620340983, 2.016367620340983, 2.1330342870076495, 2.249700953674316, 2.366367620340983, 2.4830342870076496, 2.5997009536743163, 2.716367620340983, 2.8330342870076497, 2.9497009536743164, 3.066367620340983, 3.18303428700765, 3.2997009536743165, 3.416367620340983, 3.53303428700765, 3.6497009536743166, 3.7663676203409833, 3.88303428700765, 4.116367620340983]	2021_Jan_27_1253	59.815404273767555	1	1
12	2	FALSE	NV	v	['G', 'P', 'R', 'J', 'N', 'K', 'T', 'Z', 'X', 'E', 'S', 'A', 'U', 'M', 'B', 'Y']	[944, 1456, 1587, 1029, 1335, 1122, 1888, 2911, 4000, 904, 1731, 697, 2059, 1224, 760, 2670]	9	Present	NA	NA	PRESENT	0.5611598491668701	6.106298923492432	8.11295199394226	8.813210010528564	9.163100004196169	12.220236778259276	4.107284784317017	[6.116364002227783, 6.2328338623046875, 7.217335939407349, 7.384249925613403, 8.13492488861084, 8.251905918121338, 8.368776798248291, 8.485343933105469, 8.602298974990845, 8.71901798248291, 8.83582878112793, 8.952598810195923, 9.06917691230774, 9.186495780944824, 9.303025007247925, 9.419845819473267, 9.536626815795898, 9.653262853622437, 9.77004885673523, 9.886777877807617, 10.003647804260254, 10.220236778259277]	[6.116367620340983, 6.23303428700765, 7.216034287007649, 7.382734287007649, 8.132734287007649, 8.249400953674316, 8.366067620340983, 8.48273428700765, 8.599400953674317, 8.716067620340985, 8.832734287007652, 8.949400953674319, 9.066067620340986, 9.182734287007653, 9.29940095367432, 9.416067620340987, 9.532734287007655, 9.649400953674322, 9.766067620340989, 9.882734287007656, 9.999400953674323, 10.232734287007656]	2021_Jan_27_1253	59.815404273767555	1	1
12	3	FALSE	NV	v	['M', 'W', 'R', 'C', 'Z', 'V', 'P', 'U', 'G', 'B', 'Y', 'H', 'S', 'X', 'E', 'J']	[1224, 2448, 1587, 829, 2911, 2245, 1456, 2059, 944, 760, 2670, 986, 1731, 4000, 904, 1029]	14	Present	NA	NA	PRESENT	0.5185132026672363	12.22947382926941	14.22905683517456	15.51283884048462	15.862802982330322	18.336602926254272	4.107546091079712	[12.239537954330444, 12.356198787689209, 13.34064793586731, 13.507325887680054, 14.258190870285034, 14.375089883804321, 14.491906881332397, 14.608639001846313, 14.725411891937256, 14.84212589263916, 14.958889961242676, 15.075576782226562, 15.1925528049469, 15.309372901916504, 15.425975799560547, 15.54276180267334, 15.659822940826416, 15.776540994644165, 15.893208980560303, 16.00995397567749, 16.11007595062256, 16.336602926254272]	[12.232734287007656, 12.349400953674323, 13.332400953674323, 13.499100953674324, 14.249100953674324, 14.365767620340991, 14.482434287007658, 14.599100953674325, 14.715767620340992, 14.83243428700766, 14.949100953674327, 15.065767620340994, 15.182434287007661, 15.299100953674328, 15.415767620340995, 15.532434287007662, 15.64910095367433, 15.765767620340997, 15.882434287007664, 15.999100953674331, 16.115767620340996, 16.34910095367433]	2021_Jan_27_1253	59.815404273767555	1	1
12	4	FALSE	NV	v	['T', 'M', 'R', 'W', 'U', 'J', 'Z', 'A', 'V', 'S', 'C', 'X', 'B', 'E', 'P', 'N']	[1888, 1224, 1587, 2448, 2059, 1029, 2911, 697, 2245, 1731, 829, 4000, 760, 904, 1456, 1335]	12	Present	NA	NA	ABSENT	0.3631160259246826	18.335882902145386	20.345520973205566	21.395948886871334	21.745977878570557	24.45296883583069	4.107447862625122	[18.345946788787842, 18.462602853775024, 19.44728994369507, 19.613942861557007, 20.364611864089966, 20.48150897026062, 20.59840178489685, 20.71511197090149, 20.831811904907227, 20.948649883270264, 21.065521001815796, 21.18218684196472, 21.299049854278564, 21.41584277153015, 21.532745838165283, 21.649499893188477, 21.766135931015015, 21.882929801940918, 21.999692916870117, 22.11664080619812, 22.233380794525146, 22.45296883583069]	[18.34910095367433, 18.465767620340998, 19.448767620341, 19.615467620340997, 20.365467620340997, 20.482134287007664, 20.59880095367433, 20.715467620341, 20.832134287007666, 20.948800953674333, 21.065467620341, 21.182134287007667, 21.298800953674334, 21.415467620341, 21.53213428700767, 21.648800953674336, 21.765467620341003, 21.88213428700767, 21.998800953674337, 22.115467620341004, 22.23213428700767, 22.465467620341006]	2021_Jan_27_1253	59.815404273767555	1	1
12	5	FALSE	AA	v	['A', 'W', 'H', 'U', 'Z', 'M', 'J', 'B', 'N', 'surprise', 'P', 'T', 'X', 'C', 'R', 'E']	[697, 2448, 986, 2059, 2911, 1224, 1029, 760, 1335, 'stimAuditory/all_stimAuditory/221.wav', 1456, 1888, 4000, 829, 1587, 904]	13	Present	stimAuditory/all_stimAuditory/221.wav	stimVisual/all_stimVisual/123.jpg	ABSENT	0.703463077545166	24.459028959274292	26.461841821670532	27.62898302078247	27.979074001312256	30.5693359375	4.107494115829468	[24.469092845916748, 24.585789918899536, 25.570146799087524, 25.736896991729736, 26.48777985572815, 26.604796886444092, 26.721458911895752, 26.83838987350464, 26.955167770385742, 27.07200789451599, 27.188591957092285, 27.305410861968994, 27.4220609664917, 27.538821935653687, 27.655640840530396, 27.772689819335938, 27.88923978805542, 28.00614595413208, 28.123011827468872, 28.23984694480896, 28.356560945510864, 28.569336891174316]	[24.465467620341006, 24.582134287007673, 25.565134287007673, 25.731834287007672, 26.481834287007672, 26.59850095367434, 26.715167620341006, 26.831834287007673, 26.94850095367434, 27.065167620341008, 27.181834287007675, 27.298500953674342, 27.41516762034101, 27.531834287007676, 27.648500953674343, 27.76516762034101, 27.881834287007678, 27.998500953674345, 28.115167620341012, 28.23183428700768, 28.348500953674346, 28.58183428700768]	2021_Jan_27_1253	59.815404273767555	1	1
12	6	FALSE	NV	v	['M', 'W', 'Z', 'A', 'K', 'N', 'R', 'X', 'T', 'U', 'V', 'E', 'Y', 'P', 'S', 'H']	[1224, 2448, 2911, 697, 1122, 1335, 1587, 4000, 1888, 2059, 2245, 904, 2670, 1456, 1731, 986]	8	Present	NA	NA	PRESENT	0.5487427711486816	30.56550097465515	32.57831287384033	33.161945819854736	33.511910915374756	36.68570399284363	4.107391119003296	[30.57556700706482, 30.69228982925415, 31.676634788513184, 31.84356379508972, 32.61121988296509, 32.711084842681885, 32.828051805496216, 32.94478392601013, 33.0615758895874, 33.178130865097046, 33.29488778114319, 33.41182994842529, 33.5284857749939, 33.64543795585632, 33.76225280761719, 33.87899994850159, 33.995689868927, 34.11268377304077, 34.22936391830444, 34.346290826797485, 34.46290898323059, 34.685704946517944]	[30.58183428700768, 30.698500953674348, 31.681500953674348, 31.848200953674347, 32.59820095367435, 32.71486762034102, 32.831534287007685, 32.94820095367435, 33.06486762034102, 33.181534287007686, 33.29820095367435, 33.41486762034102, 33.53153428700769, 33.648200953674355, 33.76486762034102, 33.88153428700769, 33.998200953674356, 34.11486762034102, 34.23153428700769, 34.34820095367436, 34.464867620341025, 34.69820095367436]	2021_Jan_27_1253	59.815404273767555	1	1
12	7	FALSE	NV	v	['S', 'K', 'P', 'C', 'Z', 'B', 'E', 'R', 'W', 'N', 'T', 'X', 'A', 'Y', 'U', 'H']	[1731, 1122, 1456, 829, 2911, 760, 904, 1587, 2448, 1335, 1888, 4000, 697, 2670, 2059, 986]	12	Present	NA	NA	PRESENT	1.3772380352020264	36.68869686126709	38.69473695755005	39.74493384361267	40.095337867736816	42.80206894874573	4.107331991195679	[36.698760986328125, 36.815425872802734, 37.79989981651306, 37.96671986579895, 38.717444896698, 38.83442997932434, 38.951154947280884, 39.06796598434448, 39.18491792678833, 39.30144286155701, 39.418168783187866, 39.53491187095642, 39.65176582336426, 39.76870679855347, 39.885512828826904, 40.00230288505554, 40.11897277832031, 40.23598599433899, 40.3525447845459, 40.46944880485535, 40.5862238407135, 40.80206894874573]	[36.69820095367436, 36.814867620341026, 37.79786762034102, 37.96456762034102, 38.71456762034102, 38.83123428700769, 38.947900953674356, 39.06456762034102, 39.18123428700769, 39.29790095367436, 39.414567620341025, 39.53123428700769, 39.64790095367436, 39.764567620341026, 39.88123428700769, 39.99790095367436, 40.11456762034103, 40.231234287007695, 40.34790095367436, 40.46456762034103, 40.581234287007696, 40.81456762034103]	2021_Jan_27_1253	59.815404273767555	1	1
12	8	FALSE	VV	v	['C', 'J', 'M', 'S', 'surprise', 'U', 'T', 'X', 'H', 'E', 'P', 'B', 'W', 'N', 'G', 'Z']	[829, 1029, 1224, 1731, 'stimAuditory/all_stimAuditory/113.wav', 2059, 1888, 4000, 986, 904, 1456, 760, 2448, 1335, 944, 2911]	8	Present	NA	stimVisual/all_stimVisual/122.jpg	PRESENT	0.5586659908294678	42.81191396713257	44.81109380722046	45.39480900764465	45.74463391304016	48.918437004089355	4.1073431968688965	[42.82197880744934, 42.938631772994995, 43.92316198348999, 44.073091983795166, 44.840598821640015, 44.95759391784668, 45.074376821517944, 45.191091775894165, 45.307777881622314, 45.4246768951416, 45.54138994216919, 45.65828084945679, 45.77496385574341, 45.89165282249451, 46.008784770965576, 46.125250816345215, 46.24225378036499, 46.359007835388184, 46.458945989608765, 46.59276080131531, 46.692569971084595, 46.918434858322144]	[42.81456762034103, 42.9312342870077, 43.914234287007694, 44.08093428700769, 44.83093428700769, 44.94760095367436, 45.06426762034103, 45.180934287007695, 45.29760095367436, 45.41426762034103, 45.530934287007696, 45.64760095367436, 45.76426762034103, 45.8809342870077, 45.997600953674365, 46.11426762034103, 46.2309342870077, 46.347600953674366, 46.46426762034103, 46.5809342870077, 46.69760095367437, 46.9309342870077]	2021_Jan_27_1253	59.815404273767555	1	1
12	9	FALSE	NN	v	['C', 'H', 'Y', 'G', 'P', 'N', 'A', 'Z', 'M', 'B', 'S', 'J', 'E', 'R', 'U', 'T']	[829, 986, 2670, 944, 1456, 1335, 697, 2911, 1224, 760, 1731, 1029, 904, 1587, 2059, 1888]	12	Absent	NA	NA	ABSENT	0.3951120376586914	48.918416023254395	50.927273988723755	51.977757930755615	52.32770299911499	55.034801959991455	4.1075279712677	[48.92848086357117, 49.04511094093323, 50.029775857925415, 50.196523904800415, 50.94715094566345, 51.06407189369202, 51.1806697845459, 51.29760384559631, 51.41418194770813, 51.531166791915894, 51.64782094955444, 51.76467180252075, 51.881375789642334, 51.99830484390259, 52.114959955215454, 52.23191285133362, 52.34852981567383, 52.46553587913513, 52.58210492134094, 52.69915294647217, 52.81587290763855, 53.034801959991455]	[48.9309342870077, 49.04760095367437, 50.030600953674366, 50.197300953674365, 50.947300953674365, 51.06396762034103, 51.1806342870077, 51.297300953674366, 51.41396762034103, 51.5306342870077, 51.64730095367437, 51.763967620341035, 51.8806342870077, 51.99730095367437, 52.113967620341036, 52.2306342870077, 52.34730095367437, 52.46396762034104, 52.580634287007705, 52.69730095367437, 52.81396762034104, 53.04730095367437]	2021_Jan_27_1253	59.815404273767555	1	1
12	10	FALSE	NA	v	['T', 'K', 'P', 'G', 'Z', 'S', 'N', 'A', 'M', 'R', 'X', 'H', 'E', 'U', 'J', 'B']	[1888, 1122, 1456, 944, 2911, 1731, 1335, 697, 1224, 1587, 4000, 986, 904, 2059, 1029, 760]	11	Present	NA	NA	PRESENT	0.5523159503936768	55.04204702377319	57.043816804885864	57.977577924728394	58.327457904815674	61.151169776916504	4.10735297203064	[55.052111864089966, 55.16844177246094, 56.15281581878662, 56.319533824920654, 57.070207834243774, 57.18725085258484, 57.30404186248779, 57.420562982559204, 57.537378787994385, 57.654337882995605, 57.77096199989319, 57.88795495033264, 58.00450897216797, 58.12136697769165, 58.2382447719574, 58.355082988739014, 58.47194480895996, 58.588666915893555, 58.70543193817139, 58.82214283943176, 58.93906378746033, 59.151169776916504]	[55.04730095367437, 55.16396762034104, 56.14696762034104, 56.313667620341036, 57.063667620341036, 57.1803342870077, 57.29700095367437, 57.41366762034104, 57.530334287007705, 57.64700095367437, 57.76366762034104, 57.880334287007706, 57.99700095367437, 58.11366762034104, 58.23033428700771, 58.347000953674375, 58.46366762034104, 58.58033428700771, 58.697000953674376, 58.81366762034104, 58.93033428700771, 59.163667620341045]	2021_Jan_27_1253	59.815404273767555	1	1
12	11	FALSE	AV	v	['B', 'N', 'K', 'Z', 'H', 'surprise', 'A', 'U', 'X', 'W', 'C', 'P', 'G', 'S', 'V', 'J']	[760, 1335, 1122, 2911, 986, 'stimAuditory/all_stimAuditory/215.wav', 697, 2059, 4000, 2448, 829, 1456, 944, 1731, 2245, 1029]	9	Present	stimAuditory/all_stimAuditory/113.wav	stimVisual/all_stimVisual/216.jpg	ABSENT	0.4370040893554687	61.14781999588013	63.160106897354126	63.86046290397644	64.21043586730957	67.2675359249115	4.107429027557373	[61.1578848361969, 61.274775981903076, 62.25908088684082, 62.42605400085449, 63.19348096847534, 63.29359698295593, 63.41045093536377, 63.527132987976074, 63.644020795822144, 63.77758193016052, 63.877381801605225, 63.99431300163269, 64.11102890968323, 64.22800993919373, 64.34455180168152, 64.46133184432983, 64.57821679115295, 64.69515800476074, 64.81180596351624, 64.92880892753601, 65.04542088508606, 65.26753687858582]	[61.163667620341045, 61.28033428700771, 62.26333428700771, 62.43003428700771, 63.18003428700771, 63.296700953674375, 63.41336762034104, 63.53003428700771, 63.646700953674376, 63.76336762034104, 63.88003428700771, 63.99670095367438, 64.11336762034104, 64.2300342870077, 64.34670095367436, 64.46336762034102, 64.58003428700768, 64.69670095367434, 64.813367620341, 64.93003428700766, 65.04670095367432, 65.28003428700765]	2021_Jan_27_1253	59.815404273767555	1	1
12	12	FALSE	NA	v	['R', 'B', 'J', 'G', 'K', 'C', 'W', 'P', 'S', 'X', 'T', 'Y', 'V', 'E', 'Z', 'U']	[1587, 760, 1029, 944, 1122, 829, 2448, 1456, 1731, 4000, 1888, 2670, 2245, 904, 2911, 2059]	10	Present	NA	NA	ABSENT	0.8175630569458008	67.27109098434448	69.276526927948	70.09352397918701	70.44352793693542	73.38390398025513	4.107377052307129	[67.28115487098694, 67.39802098274231, 68.38245391845703, 68.54957485198975, 69.30025100708008, 69.41687893867493, 69.5334689617157, 69.65042281150818, 69.76723790168762, 69.88405299186707, 70.00067281723022, 70.11759281158447, 70.23430681228638, 70.3510627746582, 70.46790885925293, 70.58470892906189, 70.70157980918884, 70.8181848526001, 70.93507099151611, 71.05202078819275, 71.16869783401489, 71.38390278816223]	[67.28003428700765, 67.39670095367431, 68.37970095367432, 68.54640095367432, 69.29640095367432, 69.41306762034098, 69.52973428700764, 69.6464009536743, 69.76306762034096, 69.87973428700762, 69.99640095367428, 70.11306762034094, 70.2297342870076, 70.34640095367426, 70.46306762034092, 70.57973428700758, 70.69640095367424, 70.8130676203409, 70.92973428700756, 71.04640095367422, 71.16306762034088, 71.39640095367422]	2021_Jan_27_1253	59.815404273767555	1	1
12	13	FALSE	NN	v	['N', 'S', 'Z', 'H', 'J', 'E', 'A', 'T', 'U', 'V', 'Y', 'R', 'C', 'M', 'G', 'P']	[1335, 1731, 2911, 986, 1029, 904, 697, 1888, 2059, 2245, 2670, 1587, 829, 1224, 944, 1456]	14	Absent	NA	NA	ABSENT	0.4149568080902099	73.39419198036194	75.39296984672546	76.67650699615479	77.02652883529663	79.50026988983154	4.107300043106079	[73.40425682067871, 73.52117085456848, 74.48876190185547, 74.6556088924408, 75.42331385612488, 75.540109872818, 75.65677189826965, 75.77368998527527, 75.89042377471924, 76.0069727897644, 76.12408185005188, 76.24059391021729, 76.40750789642334, 76.45737791061401, 76.57418394088745, 76.69101881980896, 76.80782294273376, 76.92468976974487, 77.04148197174072, 77.15820288658142, 77.27502489089966, 77.50026893615723]	[73.39640095367422, 73.51306762034088, 74.49606762034088, 74.66276762034089, 75.41276762034089, 75.52943428700755, 75.6461009536742, 75.76276762034087, 75.87943428700753, 75.99610095367419, 76.11276762034085, 76.2294342870075, 76.34610095367417, 76.46276762034083, 76.57943428700749, 76.69610095367415, 76.81276762034081, 76.92943428700747, 77.04610095367413, 77.16276762034079, 77.27943428700745, 77.51276762034078]	2021_Jan_27_1253	59.815404273767555	1	1
12	14	FALSE	NN	v	['J', 'Z', 'H', 'V', 'C', 'M', 'N', 'W', 'S', 'B', 'E', 'T', 'R', 'P', 'U', 'K']	[1029, 2911, 986, 2245, 829, 1224, 1335, 2448, 1731, 760, 904, 1888, 1587, 1456, 2059, 1122]	14	Absent	NA	NA	ABSENT	0.6674480438232422	79.50129890441895	81.50943183898926	82.79284381866455	83.1429328918457	85.61663699150085	4.107205152511597	[79.5113639831543, 79.62758183479309, 80.61199378967285, 80.7788918018341, 81.52968692779541, 81.64645600318909, 81.76303577423096, 81.88001084327698, 81.99671196937561, 82.11359691619873, 82.23036980628967, 82.34730386734009, 82.46388697624207, 82.5807797908783, 82.69753289222717, 82.81434893608093, 82.93128299713135, 83.04798793792725, 83.16480779647827, 83.2816789150238, 83.39833498001099, 83.61663699150085]	[79.51276762034078, 79.62943428700744, 80.61243428700745, 80.77913428700745, 81.52913428700745, 81.64580095367411, 81.76246762034077, 81.87913428700743, 81.99580095367409, 82.11246762034075, 82.22913428700741, 82.34580095367407, 82.46246762034073, 82.57913428700739, 82.69580095367405, 82.81246762034071, 82.92913428700737, 83.04580095367403, 83.16246762034069, 83.27913428700735, 83.39580095367401, 83.62913428700735]	2021_Jan_27_1253	59.815404273767555	1	1
12	15	FALSE	NA	v	['J', 'V', 'W', 'G', 'M', 'C', 'K', 'A', 'X', 'R', 'B', 'N', 'P', 'U', 'H', 'S']	[1029, 2245, 2448, 944, 1224, 829, 1122, 697, 4000, 1587, 760, 1335, 1456, 2059, 986, 1731]	9	Present	NA	NA	PRESENT	0.33690404891967773	85.62375593185425	87.62549686431885	88.32607889175415	88.67589783668518	91.73300290107728	4.107506036758423	[85.63382077217102, 85.75088095664978, 86.73523998260498, 86.90188479423523, 87.65265989303589, 87.76966381072998, 87.88634085655212, 88.00311994552612, 88.11997389793396, 88.2368597984314, 88.35364484786987, 88.47031283378601, 88.58715486526489, 88.70387291908264, 88.82072877883911, 88.93764996528625, 89.05456686019897, 89.17164778709412, 89.28776597976685, 89.40458798408508, 89.50468683242798, 89.73300290107727]	[85.62913428700735, 85.745800953674, 86.72880095367401, 86.89550095367402, 87.64550095367402, 87.76216762034068, 87.87883428700734, 87.995500953674, 88.11216762034066, 88.22883428700732, 88.34550095367398, 88.46216762034064, 88.5788342870073, 88.69550095367396, 88.81216762034062, 88.92883428700728, 89.04550095367394, 89.1621676203406, 89.27883428700726, 89.39550095367392, 89.51216762034058, 89.74550095367391]	2021_Jan_27_1253	59.815404273767555	1	1
12	16	FALSE	NV	v	['T', 'A', 'R', 'V', 'J', 'E', 'Z', 'M', 'K', 'X', 'P', 'S', 'U', 'H', 'Y', 'G']	[1888, 697, 1587, 2245, 1029, 904, 2911, 1224, 1122, 4000, 1456, 1731, 2059, 986, 2670, 944]	10	Present	NA	NA	ABSENT	0.3574678897857666	91.73048281669617	93.74197101593018	94.55915188789368	94.90904593467712	97.84937000274658	4.107398986816406	[91.7405469417572, 91.85717177391052, 92.84170699119568, 93.00864577293396, 93.77606296539307, 93.8760118484497, 93.99290084838867, 94.10963988304138, 94.2263548374176, 94.3433289527893, 94.45994091033936, 94.57689380645752, 94.69351482391357, 94.81048583984375, 94.92714095115662, 95.04417300224304, 95.16072988510132, 95.27772283554077, 95.39426398277283, 95.51125693321228, 95.6279969215393, 95.84936881065369]	[91.74550095367391, 91.86216762034057, 92.84516762034058, 93.01186762034058, 93.76186762034058, 93.87853428700724, 93.9952009536739, 94.11186762034056, 94.22853428700722, 94.34520095367388, 94.46186762034054, 94.5785342870072, 94.69520095367386, 94.81186762034052, 94.92853428700718, 95.04520095367384, 95.1618676203405, 95.27853428700716, 95.39520095367382, 95.51186762034048, 95.62853428700714, 95.86186762034048]	2021_Jan_27_1253	59.815404273767555	1	1
12	17	FALSE	NV	v	['U', 'M', 'V', 'S', 'K', 'G', 'E', 'A', 'B', 'R', 'X', 'P', 'T', 'N', 'J', 'Y']	[2059, 1224, 2245, 1731, 1122, 944, 904, 697, 760, 1587, 4000, 1456, 1888, 1335, 1029, 2670]	11	Present	NA	NA	PRESENT	0.32184410095214844	97.85348987579346	99.8581337928772	100.79191398620604	101.1421709060669	103.965735912323	4.107602119445801	[97.86355400085449, 97.98034977912903, 98.96495485305786, 99.13191294670105, 99.88231778144836, 99.99937391281128, 100.11600279808044, 100.23292589187622, 100.34964799880981, 100.4663758277893, 100.58311486244202, 100.70002484321594, 100.81669783592224, 100.93343091011047, 101.05041980743408, 101.16731691360474, 101.28402781486511, 101.40069580078125, 101.51755595207214, 101.63441681861877, 101.75117087364197, 101.965735912323]	[97.86186762034048, 97.97853428700714, 98.96153428700714, 99.12823428700715, 99.87823428700715, 99.9949009536738, 100.11156762034047, 100.22823428700713, 100.34490095367379, 100.46156762034045, 100.5782342870071, 100.69490095367377, 100.81156762034043, 100.92823428700709, 101.04490095367375, 101.1615676203404, 101.27823428700707, 101.39490095367373, 101.51156762034039, 101.62823428700705, 101.7449009536737, 101.97823428700704]	2021_Jan_27_1253	59.815404273767555	1	1
12	18	FALSE	NV	v	['U', 'N', 'R', 'B', 'H', 'W', 'S', 'V', 'M', 'P', 'C', 'G', 'X', 'A', 'J', 'K']	[2059, 1335, 1587, 760, 986, 2448, 1731, 2245, 1224, 1456, 829, 944, 4000, 697, 1029, 1122]	13	Present	NA	NA	PRESENT	0.29531097412109375	103.97686195373537	105.97463798522948	107.14172196388245	107.49185085296632	110.08210277557372	4.107464790344238	[103.98692584037781, 104.10348582267761, 105.07124400138855, 105.2380588054657, 106.0058708190918, 106.12243986129761, 106.23918795585632, 106.35597681999207, 106.47286796569824, 106.57277083396912, 106.68957090377808, 106.80632996559143, 106.92313694953918, 107.0399169921875, 107.15673899650574, 107.27350878715515, 107.39033484458923, 107.5071189403534, 107.62392783164978, 107.74092483520508, 107.85753679275513, 108.08210277557373]	[103.97823428700704, 104.0949009536737, 105.0779009536737, 105.24460095367371, 105.99460095367371, 106.11126762034037, 106.22793428700703, 106.34460095367369, 106.46126762034035, 106.57793428700701, 106.69460095367367, 106.81126762034033, 106.92793428700699, 107.04460095367365, 107.16126762034031, 107.27793428700697, 107.39460095367363, 107.51126762034029, 107.62793428700695, 107.74460095367361, 107.86126762034027, 108.0946009536736]	2021_Jan_27_1253	59.815404273767555	1	1
12	19	FALSE	NA	v	['W', 'M', 'R', 'V', 'Z', 'K', 'J', 'X', 'S', 'H', 'N', 'A', 'E', 'T', 'U', 'P']	[2448, 1224, 1587, 2245, 2911, 1122, 1029, 4000, 1731, 986, 1335, 697, 904, 1888, 2059, 1456]	8	Present	NA	NA	ABSENT	0.3237001895904541	110.0835587978363	112.0911169052124	112.67471885681152	113.02465796470642	116.19846987724304	4.10735297203064	[110.09362387657166, 110.21005988121033, 111.19446182250977, 111.36132192611694, 112.11205077171326, 112.22895789146423, 112.34556698799133, 112.46259379386902, 112.57929587364197, 112.69590878486633, 112.8129198551178, 112.92977690696716, 113.04660487174988, 113.16340684890747, 113.28001189231873, 113.39693093299866, 113.51365780830383, 113.63051891326904, 113.74711680412292, 113.8638379573822, 113.98079800605774, 114.19846892356873]	[110.0946009536736, 110.21126762034027, 111.19426762034027, 111.36096762034028, 112.11096762034028, 112.22763428700694, 112.3443009536736, 112.46096762034026, 112.57763428700692, 112.69430095367358, 112.81096762034024, 112.9276342870069, 113.04430095367356, 113.16096762034022, 113.27763428700688, 113.39430095367354, 113.5109676203402, 113.62763428700686, 113.74430095367352, 113.86096762034018, 113.97763428700684, 114.21096762034017]	2021_Jan_27_1253	59.815404273767555	1	1
12	20	FALSE	NV	v	['R', 'M', 'N', 'J', 'U', 'S', 'K', 'Z', 'B', 'P', 'W', 'G', 'H', 'X', 'E', 'Y']	[1587, 1224, 1335, 1029, 2059, 1731, 1122, 2911, 760, 1456, 2448, 944, 986, 4000, 904, 2670]	14	Present	NA	NA	PRESENT	0.3212471008300781	116.20653080940248	118.20759081840517	119.49103379249571	119.84135699272156	122.31483697891235	4.107246160507202	[116.2165949344635, 116.33336591720581, 117.31778192520142, 117.48442077636719, 118.23527097702026, 118.3521568775177, 118.46897077560425, 118.58563780784607, 118.70247387886047, 118.81930780410767, 118.93610382080078, 119.0529408454895, 119.1699628829956, 119.2862777709961, 119.40332984924316, 119.52003479003906, 119.63690996170044, 119.7535138130188, 119.87059783935547, 119.98721385002136, 120.08715677261353, 120.31483697891235]	[116.21096762034017, 116.32763428700683, 117.31063428700683, 117.47733428700684, 118.22733428700684, 118.3440009536735, 118.46066762034016, 118.57733428700682, 118.69400095367348, 118.81066762034014, 118.9273342870068, 119.04400095367346, 119.16066762034012, 119.27733428700678, 119.39400095367344, 119.5106676203401, 119.62733428700676, 119.74400095367342, 119.86066762034008, 119.97733428700674, 120.0940009536734, 120.32733428700674]	2021_Jan_27_1253	59.815404273767555	1	1
12	21	FALSE	NA	v	['W', 'A', 'K', 'B', 'Z', 'S', 'N', 'M', 'P', 'U', 'V', 'X', 'Y', 'R', 'G', 'J']	[2448, 697, 1122, 760, 2911, 1731, 1335, 1224, 1456, 2059, 2245, 4000, 2670, 1587, 944, 1029]	12	Present	NA	NA	PRESENT	0.27779603004455566	122.31297492980956	124.3237648010254	125.37407684326172	125.72410893440248	128.43120288848877	4.107438087463379	[122.32303977012634, 122.43977093696594, 123.42405295372009, 123.59089398384094, 124.34156680107117, 124.45864796638489, 124.57521390914917, 124.69220900535583, 124.80888485908508, 124.92576885223389, 125.04239892959595, 125.15959191322327, 125.27607989311218, 125.39298892021179, 125.50968980789185, 125.62664484977722, 125.74323081970215, 125.86009979248047, 125.97674298286438, 126.09368181228638, 126.21050381660461, 126.43120193481445]	[122.32733428700674, 122.4440009536734, 123.4270009536734, 123.5937009536734, 124.3437009536734, 124.46036762034007, 124.57703428700673, 124.69370095367339, 124.81036762034005, 124.9270342870067, 125.04370095367337, 125.16036762034003, 125.27703428700669, 125.39370095367335, 125.51036762034, 125.62703428700667, 125.74370095367333, 125.86036762033999, 125.97703428700665, 126.0937009536733, 126.21036762033997, 126.4437009536733]	2021_Jan_27_1253	59.815404273767555	1	1
12	22	FALSE	NV	v	['J', 'S', 'U', 'N', 'Z', 'A', 'E', 'Y', 'B', 'C', 'T', 'X', 'R', 'H', 'W', 'K']	[1029, 1731, 2059, 1335, 2911, 697, 904, 2670, 760, 829, 1888, 4000, 1587, 986, 2448, 1122]	12	Present	NA	NA	PRESENT	0.37797021865844727	128.43588089942932	130.44022798538208	131.49105095863342	131.84042501449585	134.5475687980652	4.1073408126831055	[128.44594597816467, 128.56295895576477, 129.54800295829773, 129.71403789520264, 130.46488094329834, 130.58213996887207, 130.69842982292175, 130.81531476974487, 130.9320318698883, 131.04904294013977, 131.16576886177063, 131.28236079216003, 131.39930987358093, 131.51602578163147, 131.63297200202942, 131.74967288970947, 131.8665578365326, 131.983167886734, 132.10001182556152, 132.2167239189148, 132.33365988731384, 132.54756999015808]	[128.4437009536733, 128.56036762033997, 129.54336762033998, 129.71006762033997, 130.46006762033997, 130.57673428700664, 130.69340095367332, 130.81006762034, 130.92673428700667, 131.04340095367334, 131.16006762034002, 131.2767342870067, 131.39340095367336, 131.51006762034004, 131.6267342870067, 131.7434009536734, 131.86006762034006, 131.97673428700674, 132.0934009536734, 132.21006762034008, 132.32673428700676, 132.56006762034008]	2021_Jan_27_1253	59.815404273767555	1	1
12	23	FALSE	NV	v	['M', 'H', 'G', 'V', 'Y', 'N', 'W', 'R', 'X', 'A', 'Z', 'C', 'U', 'K', 'T', 'J']	[1224, 986, 944, 2245, 2670, 1335, 2448, 1587, 4000, 697, 2911, 829, 2059, 1122, 1888, 1029]	9	Present	NA	NA	ABSENT	0.4155449867248535	134.55916595458984	136.55639481544495	137.25692796707153	137.60702681541443	140.6639368534088	4.107542037963867	[134.56923079490662, 134.6692237854004, 135.6538598537445, 135.82062697410583, 136.58807492256165, 136.68809580802917, 136.821772813797, 136.92165279388428, 137.03839683532715, 137.1552608013153, 137.27205681800842, 137.3888418674469, 137.50559377670288, 137.62242889404297, 137.73922181129456, 137.8560209274292, 137.97286581993103, 138.08951091766357, 138.20631194114685, 138.32332587242126, 138.44013786315918, 138.66393780708313]	[134.56006762034008, 134.67673428700675, 135.65973428700676, 135.82643428700675, 136.57643428700675, 136.69310095367342, 136.8097676203401, 136.92643428700677, 137.04310095367345, 137.15976762034012, 137.2764342870068, 137.39310095367347, 137.50976762034014, 137.62643428700682, 137.7431009536735, 137.85976762034016, 137.97643428700684, 138.0931009536735, 138.2097676203402, 138.32643428700686, 138.44310095367354, 138.67643428700686]	2021_Jan_27_1253	59.815404273767555	1	1
12	24	FALSE	NA	v	['V', 'S', 'W', 'N', 'H', 'G', 'A', 'C', 'T', 'B', 'M', 'P', 'X', 'K', 'E', 'Y']	[2245, 1731, 2448, 1335, 986, 944, 697, 829, 1888, 760, 1224, 1456, 4000, 1122, 904, 2670]	13	Present	NA	NA	PRESENT	0.22003698348999023	140.6659638881683	142.67296981811523	143.83982300758362	144.1903748512268	146.78030395507812	4.107334136962891	[140.6760289669037, 140.79266691207886, 141.77686095237732, 141.94377088546753, 142.69443798065186, 142.8113899230957, 142.92814087867737, 143.045343875885, 143.16158986091614, 143.27848887443542, 143.3954038619995, 143.5122377872467, 143.6289939880371, 143.74581289291382, 143.86259698867798, 143.97921991348267, 144.09606885910034, 144.2128357887268, 144.32969188690186, 144.4462869167328, 144.56335377693176, 144.7803030014038]	[140.67643428700686, 140.79310095367353, 141.77610095367353, 141.94280095367353, 142.69280095367353, 142.8094676203402, 142.92613428700687, 143.04280095367355, 143.15946762034022, 143.2761342870069, 143.39280095367357, 143.50946762034025, 143.62613428700692, 143.7428009536736, 143.85946762034027, 143.97613428700694, 144.09280095367362, 144.2094676203403, 144.32613428700697, 144.44280095367364, 144.5594676203403, 144.79280095367363]	2021_Jan_27_1253	59.815404273767555	1	1
12	25	FALSE	VA	v	['M', 'Y', 'K', 'J', 'surprise', 'S', 'H', 'X', 'Z', 'E', 'B', 'R', 'G', 'T', 'W', 'V']	[1224, 2670, 1122, 1029, 'stimAuditory/all_stimAuditory/109.wav', 1731, 986, 4000, 2911, 904, 760, 1587, 944, 1888, 2448, 2245]	8	Present	NA	stimVisual/all_stimVisual/101.jpg	PRESENT	0.2412869930267334	146.78896379470825	148.789244890213	149.37295079231262	149.7229199409485	152.89666986465454	4.107424974441528	[146.79902982711792, 146.91572999954224, 147.90002393722534, 148.0671079158783, 148.81780982017517, 148.93448877334595, 149.05128693580627, 149.16834688186646, 149.2850158214569, 149.40171194076538, 149.5185739994049, 149.6353828907013, 149.75222182273865, 149.86897897720337, 149.98580193519592, 150.10246682167053, 150.21950578689575, 150.33599591255188, 150.45294284820557, 150.56944584846497, 150.6696319580078, 150.89666891098022]	[146.79280095367363, 146.9094676203403, 147.8924676203403, 148.0591676203403, 148.8091676203403, 148.92583428700698, 149.04250095367365, 149.15916762034033, 149.275834287007, 149.39250095367368, 149.50916762034035, 149.62583428700702, 149.7425009536737, 149.85916762034037, 149.97583428700705, 150.09250095367372, 150.2091676203404, 150.32583428700707, 150.44250095367374, 150.55916762034042, 150.6758342870071, 150.9091676203404]	2021_Jan_27_1253	59.815404273767555	1	1
12	26	FALSE	NA	v	['B', 'A', 'K', 'V', 'J', 'U', 'M', 'W', 'T', 'X', 'N', 'G', 'Y', 'S', 'P', 'H']	[760, 697, 1122, 2245, 1029, 2059, 1224, 2448, 1888, 4000, 1335, 944, 2670, 1731, 1456, 986]	10	Present	NA	NA	PRESENT	0.9099299907684326	152.89542698860168	154.90583300590515	155.72253394126892	156.07267689704895	159.01303696632385	4.107203960418701	[152.90549087524414, 153.02219891548157, 154.00680780410767, 154.1735279560089, 154.92415595054626, 155.0411398410797, 155.15777587890625, 155.27470779418945, 155.39137983322144, 155.50821495056152, 155.6249258518219, 155.74188685417175, 155.8585798740387, 155.975261926651, 156.09218883514404, 156.20890188217163, 156.32571697235107, 156.44255590438843, 156.55923295021057, 156.67596793174744, 156.79287481307983, 157.01303577423096]	[152.9091676203404, 153.0258342870071, 154.0088342870071, 154.17553428700708, 154.92553428700708, 155.04220095367376, 155.15886762034043, 155.2755342870071, 155.39220095367378, 155.50886762034045, 155.62553428700713, 155.7422009536738, 155.85886762034048, 155.97553428700715, 156.09220095367382, 156.2088676203405, 156.32553428700717, 156.44220095367385, 156.55886762034052, 156.6755342870072, 156.79220095367387, 157.0255342870072]	2021_Jan_27_1253	59.815404273767555	1	1
12	27	FALSE	NA	v	['B', 'T', 'S', 'W', 'C', 'E', 'J', 'Z', 'Y', 'G', 'A', 'M', 'H', 'X', 'U', 'R']	[760, 1888, 1731, 2448, 829, 904, 1029, 2911, 2670, 944, 697, 1224, 986, 4000, 2059, 1587]	14	Present	NA	NA	PRESENT	0.2745988368988037	159.01836395263672	161.02198886871338	162.3059120178223	162.65568780899048	165.12940192222595	4.107413053512573	[159.0284287929535, 159.14538478851318, 160.1300139427185, 160.29653787612915, 161.04785799980164, 161.16418886184692, 161.28093791007996, 161.3976309299469, 161.51467299461365, 161.6312038898468, 161.74830293655396, 161.86510491371155, 161.9818778038025, 162.0985188484192, 162.2154519557953, 162.33204984664917, 162.44895482063293, 162.56576991081238, 162.68239092826843, 162.79930782318115, 162.91609978675842, 163.12940287590027]	[159.0255342870072, 159.14220095367386, 160.12520095367387, 160.29190095367386, 161.04190095367386, 161.15856762034053, 161.2752342870072, 161.39190095367388, 161.50856762034056, 161.62523428700723, 161.7419009536739, 161.85856762034058, 161.97523428700725, 162.09190095367393, 162.2085676203406, 162.32523428700728, 162.44190095367395, 162.55856762034063, 162.6752342870073, 162.79190095367397, 162.90856762034065, 163.14190095367397]	2021_Jan_27_1253	59.815404273767555	1	1
12	28	FALSE	NA	v	['J', 'S', 'Z', 'R', 'E', 'G', 'A', 'T', 'X', 'U', 'M', 'Y', 'P', 'H', 'B', 'K']	[1029, 1731, 2911, 1587, 904, 944, 697, 1888, 4000, 2059, 1224, 2670, 1456, 986, 760, 1122]	9	Present	NA	NA	PRESENT	0.2957789897918701	165.12489700317383	167.13842487335205	167.83881998062134	168.18875002861023	171.24576997756958	4.107345104217529	[165.13496088981628, 165.2517499923706, 166.23632383346558, 166.40293884277344, 167.17054796218872, 167.2705419063568, 167.38734984397888, 167.50416588783264, 167.62100791931152, 167.7378067970276, 167.85462498664856, 167.97140192985535, 168.08819580078125, 168.20514678955078, 168.32181000709534, 168.43863582611084, 168.55526280403137, 168.6721749305725, 168.7888629436493, 168.90571188926697, 169.02252888679504, 169.24576997756958]	[165.14190095367397, 165.25856762034064, 166.24156762034065, 166.40826762034064, 167.15826762034064, 167.2749342870073, 167.391600953674, 167.50826762034066, 167.62493428700733, 167.741600953674, 167.85826762034068, 167.97493428700736, 168.09160095367403, 168.2082676203407, 168.32493428700738, 168.44160095367405, 168.55826762034073, 168.6749342870074, 168.79160095367408, 168.90826762034075, 169.02493428700743, 169.25826762034075]	2021_Jan_27_1253	59.815404273767555	1	1
12	29	FALSE	NA	v	['S', 'H', 'N', 'U', 'W', 'Y', 'K', 'G', 'V', 'P', 'E', 'C', 'X', 'B', 'A', 'R']	[1731, 986, 1335, 2059, 2448, 2670, 1122, 944, 2245, 1456, 904, 829, 4000, 760, 697, 1587]	13	Present	NA	NA	PRESENT	0.24437713623046875	171.2485008239746	173.254714012146	174.421875	174.77173280715942	177.3621368408203	4.107422828674316	[171.25856685638428, 171.37512493133545, 172.35961484909058, 172.5261538028717, 173.2770299911499, 173.39387583732605, 173.5106909275055, 173.62748193740845, 173.74426794052124, 173.8610179424286, 173.97786378860474, 174.09467887878418, 174.21129989624023, 174.32808089256287, 174.44498300552368, 174.5618269443512, 174.67851781845093, 174.7954239845276, 174.9122278690338, 175.02887177467346, 175.14576888084412, 175.362135887146]	[171.25826762034075, 171.37493428700742, 172.35793428700742, 172.52463428700742, 173.27463428700742, 173.3913009536741, 173.50796762034076, 173.62463428700744, 173.7413009536741, 173.8579676203408, 173.97463428700746, 174.09130095367414, 174.2079676203408, 174.32463428700748, 174.44130095367416, 174.55796762034083, 174.6746342870075, 174.79130095367418, 174.90796762034086, 175.02463428700753, 175.1413009536742, 175.37463428700752]	2021_Jan_27_1253	59.815404273767555	1	1
12	30	FALSE	NN	v	['C', 'E', 'B', 'T', 'R', 'A', 'P', 'S', 'N', 'J', 'K', 'Z', 'M', 'U', 'H', 'V']	[829, 904, 760, 1888, 1587, 697, 1456, 1731, 1335, 1029, 1122, 2911, 1224, 2059, 986, 2245]	8	Absent	NA	NA	ABSENT	0.24157500267028809	177.3713300228119	179.37109899520874	179.95473289489746	180.30511283874512	183.4785039424896	4.107404947280884	[177.38139581680298, 177.4982979297638, 178.4826250076294, 178.6494209766388, 179.4001748561859, 179.51688599586487, 179.6339168548584, 179.75076699256897, 179.8674499988556, 179.9843578338623, 180.10093784332275, 180.2177929878235, 180.3347408771515, 180.45133590698242, 180.56795477867126, 180.6848487854004, 180.80157780647278, 180.9186248779297, 181.03534698486328, 181.15239882469177, 181.2521288394928, 181.4785029888153]	[177.37463428700752, 177.4913009536742, 178.4743009536742, 178.6410009536742, 179.3910009536742, 179.50766762034087, 179.62433428700754, 179.74100095367422, 179.8576676203409, 179.97433428700757, 180.09100095367424, 180.2076676203409, 180.3243342870076, 180.44100095367426, 180.55766762034094, 180.6743342870076, 180.79100095367428, 180.90766762034096, 181.02433428700763, 181.1410009536743, 181.25766762034098, 181.4910009536743]	2021_Jan_27_1253	59.815404273767555	1	1
12	31	FALSE	NA	v	['Y', 'C', 'M', 'K', 'S', 'J', 'W', 'U', 'N', 'Z', 'A', 'P', 'X', 'E', 'B', 'R']	[2670, 829, 1224, 1122, 1731, 1029, 2448, 2059, 1335, 2911, 697, 1456, 4000, 904, 760, 1587]	13	Present	NA	NA	PRESENT	0.4220700263977051	183.477698802948	185.48744702339172	186.65475702285767	187.00440883636475	189.59486985206604	4.107422828674316	[183.48776292800903, 183.604660987854, 184.58906197547913, 184.75590586662292, 185.50660586357117, 185.6235489845276, 185.74027395248413, 185.85718083381653, 185.97387385368347, 186.09073090553284, 186.20741200447083, 186.3242208957672, 186.44096088409424, 186.55777287483215, 186.67472195625305, 186.79133677482605, 186.90828800201416, 187.02493381500244, 187.14188194274902, 187.25843596458435, 187.37542486190796, 187.59486985206604]	[183.4910009536743, 183.60766762034098, 184.59066762034098, 184.75736762034097, 185.50736762034097, 185.62403428700765, 185.74070095367432, 185.857367620341, 185.97403428700767, 186.09070095367434, 186.20736762034102, 186.3240342870077, 186.44070095367437, 186.55736762034104, 186.67403428700771, 186.7907009536744, 186.90736762034106, 187.02403428700774, 187.1407009536744, 187.25736762034109, 187.37403428700776, 187.60736762034108]	2021_Jan_27_1253	59.815404273767555	1	1
12	32	FALSE	NV	v	['Z', 'A', 'S', 'R', 'E', 'W', 'U', 'G', 'N', 'X', 'M', 'B', 'H', 'C', 'P', 'V']	[2911, 697, 1731, 1587, 904, 2448, 2059, 944, 1335, 4000, 1224, 760, 986, 829, 1456, 2245]	10	Present	NA	NA	PRESENT	0.2826850414276123	189.60101580619812	191.604022026062	192.420804977417	192.7707929611206	195.71123695373535	4.10721492767334	[189.61108088493347, 189.7278048992157, 190.71233487129211, 190.87913393974304, 191.630206823349, 191.7467999458313, 191.86354088783264, 191.98029279708862, 192.09703397750854, 192.2140109539032, 192.33068084716797, 192.4475178718567, 192.56427478790283, 192.6810278892517, 192.7979769706726, 192.91455078125, 193.0314497947693, 193.14821577072144, 193.2649610042572, 193.381817817688, 193.4986789226532, 193.71123695373535]	[189.60736762034108, 189.72403428700775, 190.70703428700776, 190.87373428700775, 191.62373428700775, 191.74040095367442, 191.8570676203411, 191.97373428700777, 192.09040095367445, 192.20706762034112, 192.3237342870078, 192.44040095367447, 192.55706762034114, 192.67373428700782, 192.7904009536745, 192.90706762034117, 193.02373428700784, 193.14040095367451, 193.2570676203412, 193.37373428700786, 193.49040095367454, 193.72373428700786]	2021_Jan_27_1253	59.815404273767555	1	1
12	33	FALSE	NN	v	['Y', 'E', 'B', 'P', 'R', 'S', 'T', 'K', 'N', 'V', 'J', 'C', 'A', 'G', 'H', 'U']	[2670, 904, 760, 1456, 1587, 1731, 1888, 1122, 1335, 2245, 1029, 829, 697, 944, 986, 2059]	8	Absent	NA	NA	ABSENT	0.359893798828125	195.70738983154297	197.72020983695984	198.30510687828064	198.65389800071716	201.82760286331177	4.107393026351929	[195.717453956604, 195.83437585830688, 196.8187108039856, 196.98546195030212, 197.75310897827148, 197.85326886177063, 197.96987390518188, 198.08665299415588, 198.20343899726868, 198.3202338218689, 198.43708777427673, 198.55386686325073, 198.67063999176025, 198.78760194778442, 198.90424489974976, 199.02116680145264, 199.13782596588135, 199.2545268535614, 199.37142896652222, 199.48812985420227, 199.60488390922546, 199.82760095596313]	[195.72373428700786, 195.84040095367453, 196.82340095367454, 196.99010095367453, 197.74010095367453, 197.8567676203412, 197.97343428700788, 198.09010095367455, 198.20676762034122, 198.3234342870079, 198.44010095367457, 198.55676762034125, 198.67343428700792, 198.7901009536746, 198.90676762034127, 199.02343428700794, 199.14010095367462, 199.2567676203413, 199.37343428700797, 199.49010095367464, 199.60676762034132, 199.84010095367464]	2021_Jan_27_1253	59.815404273767555	1	1
12	34	FALSE	NA	v	['P', 'R', 'W', 'Y', 'V', 'J', 'C', 'X', 'M', 'N', 'Z', 'A', 'T', 'U', 'E', 'G']	[1456, 1587, 2448, 2670, 2245, 1029, 829, 4000, 1224, 1335, 2911, 697, 1888, 2059, 904, 944]	8	Present	NA	NA	PRESENT	0.2846488952636719	201.8309860229492	203.83642482757568	204.42033696174624	204.7702569961548	207.94396996498108	4.1075451374053955	[201.841050863266, 201.95758700370789, 202.9419708251953, 203.1088149547577, 203.85957098007202, 203.97641897201538, 204.09317994117737, 204.2098548412323, 204.32669377326965, 204.44361090660095, 204.56042289733887, 204.67703294754028, 204.7939019203186, 204.9105908870697, 205.02755689620972, 205.1441957950592, 205.26113080978394, 205.37776494026184, 205.4947168827057, 205.61132979393005, 205.72822499275208, 205.94396877288818]	[201.84010095367464, 201.9567676203413, 202.9397676203413, 203.1064676203413, 203.8564676203413, 203.97313428700798, 204.08980095367465, 204.20646762034133, 204.323134287008, 204.43980095367468, 204.55646762034135, 204.67313428700803, 204.7898009536747, 204.90646762034137, 205.02313428700805, 205.13980095367472, 205.2564676203414, 205.37313428700807, 205.48980095367475, 205.60646762034142, 205.7231342870081, 205.9564676203414]	2021_Jan_27_1253	59.815404273767555	1	1
12	35	FALSE	NN	v	['U', 'H', 'P', 'K', 'N', 'C', 'T', 'E', 'J', 'B', 'R', 'W', 'S', 'A', 'G', 'Y']	[2059, 986, 1456, 1122, 1335, 829, 1888, 904, 1029, 760, 1587, 2448, 1731, 697, 944, 2670]	12	Absent	NA	NA	ABSENT	0.31380510330200195	207.95387291908264	209.95293998718265	211.00376081466675	211.35327982902527	214.0603368282318	4.107396841049194	[207.963937997818, 208.08066082000732, 209.0482349395752, 209.21501183509827, 209.98272681236267, 210.09961485862732, 210.2162299156189, 210.33310794830322, 210.44995284080505, 210.5665819644928, 210.6834478378296, 210.80022478103638, 210.91708183288574, 211.033793926239, 211.150887966156, 211.26739597320557, 211.38424491882324, 211.50086188316345, 211.60087895393372, 211.71770477294922, 211.83475279808044, 212.0603358745575]	[207.9564676203414, 208.0731342870081, 209.0561342870081, 209.22283428700808, 209.97283428700808, 210.08950095367476, 210.20616762034143, 210.3228342870081, 210.43950095367478, 210.55616762034145, 210.67283428700813, 210.7895009536748, 210.90616762034148, 211.02283428700815, 211.13950095367483, 211.2561676203415, 211.37283428700817, 211.48950095367485, 211.60616762034152, 211.7228342870082, 211.83950095367487, 212.0728342870082]	2021_Jan_27_1253	59.815404273767555	1	1
12	36	FALSE	VV	v	['V', 'Z', 'K', 'W', 'P', 'Y', 'S', 'surprise', 'U', 'C', 'X', 'J', 'N', 'H', 'E', 'R']	[2245, 2911, 1122, 2448, 1456, 2670, 1731, 'stimAuditory/all_stimAuditory/222.wav', 2059, 829, 4000, 1029, 1335, 986, 904, 1587]	11	Present	NA	stimVisual/all_stimVisual/119.jpg	ABSENT	0.3824341297149658	214.06022381782532	216.0691478252411	217.00298595428467	217.3531038761139	220.17670392990112	4.107556104660034	[214.07028985023499, 214.18732690811157, 215.1715908050537, 215.33833193778992, 216.0891227722168, 216.20591378211975, 216.32286381721497, 216.4397349357605, 216.5563359260559, 216.67312383651733, 216.7900447845459, 216.92347693443298, 217.02355790138245, 217.1404058933258, 217.25699877738953, 217.3737828731537, 217.490740776062, 217.60743594169617, 217.72433185577393, 217.84113883972168, 217.95786094665527, 218.17670392990112]	[214.0728342870082, 214.18950095367487, 215.17250095367487, 215.33920095367486, 216.08920095367486, 216.20586762034154, 216.3225342870082, 216.43920095367488, 216.55586762034156, 216.67253428700823, 216.7892009536749, 216.90586762034158, 217.02253428700826, 217.13920095367493, 217.2558676203416, 217.37253428700828, 217.48920095367495, 217.60586762034163, 217.7225342870083, 217.83920095367498, 217.95586762034165, 218.18920095367497]	2021_Jan_27_1253	59.815404273767555	1	1
12	37	FALSE	NV	v	['M', 'T', 'P', 'C', 'H', 'B', 'K', 'W', 'G', 'X', 'U', 'J', 'A', 'N', 'R', 'Z']	[1224, 1888, 1456, 829, 986, 760, 1122, 2448, 944, 4000, 2059, 1029, 697, 1335, 1587, 2911]	10	Present	NA	NA	PRESENT	0.17183613777160645	220.18346500396729	222.18554496765137	223.00270795822144	223.3526599407196	226.2930698394775	4.107524871826172	[220.19352984428406, 220.3102948665619, 221.2949628829956, 221.46163892745972, 222.21242880821228, 222.32910799980164, 222.44607496261597, 222.56267380714417, 222.67966079711914, 222.7964949607849, 222.91316080093384, 223.02993488311768, 223.1467478275299, 223.26362299919128, 223.38008785247803, 223.4971079826355, 223.61382389068604, 223.73061084747314, 223.84749484062195, 223.96428298950195, 224.0809178352356, 224.29306888580322]	[220.18920095367497, 220.30586762034164, 221.28886762034165, 221.45556762034164, 222.20556762034164, 222.3222342870083, 222.438900953675, 222.55556762034166, 222.67223428700834, 222.788900953675, 222.90556762034169, 223.02223428700836, 223.13890095367503, 223.2555676203417, 223.37223428700838, 223.48890095367506, 223.60556762034173, 223.7222342870084, 223.83890095367508, 223.95556762034175, 224.07223428700843, 224.30556762034175]	2021_Jan_27_1253	59.815404273767555	1	1
12	38	FALSE	NA	v	['V', 'J', 'M', 'G', 'P', 'H', 'R', 'X', 'Y', 'E', 'A', 'B', 'U', 'N', 'T', 'K']	[2245, 1029, 1224, 944, 1456, 986, 1587, 4000, 2670, 904, 697, 760, 2059, 1335, 1888, 1122]	8	Present	NA	NA	PRESENT	0.82423996925354	226.28992080688477	228.3021969795227	228.885675907135	229.2357189655304	232.40943598747253	4.107239007949829	[226.2999849319458, 226.41701197624207, 227.4012417793274, 227.56792998313904, 228.3353989124298, 228.43576097488403, 228.5524618625641, 228.66919589042664, 228.7860507965088, 228.90272283554077, 229.01946997642517, 229.13624477386475, 229.25314378738403, 229.36979699134827, 229.48681092262268, 229.60341382026672, 229.72037982940674, 229.83720088005066, 229.95397281646729, 230.07059478759766, 230.18763184547424, 230.40943598747253]	[226.30556762034175, 226.42223428700842, 227.40523428700843, 227.57193428700842, 228.32193428700842, 228.4386009536751, 228.55526762034177, 228.67193428700844, 228.78860095367511, 228.9052676203418, 229.02193428700846, 229.13860095367514, 229.2552676203418, 229.3719342870085, 229.48860095367516, 229.60526762034183, 229.7219342870085, 229.83860095367518, 229.95526762034186, 230.07193428700853, 230.1886009536752, 230.42193428700853]	2021_Jan_27_1253	59.815404273767555	1	1
12	39	FALSE	NN	v	['B', 'J', 'N', 'Y', 'C', 'A', 'K', 'Z', 'W', 'U', 'V', 'G', 'T', 'P', 'E', 'M']	[760, 1029, 1335, 2670, 829, 697, 1122, 2911, 2448, 2059, 2245, 944, 1888, 1456, 904, 1224]	11	Absent	NA	NA	ABSENT	0.28447890281677246	232.413076877594	234.41840887069705	235.35206484794617	235.7020559310913	238.52580285072327	4.107393980026245	[232.42314195632935, 232.54013895988464, 233.52420091629028, 233.69125986099243, 234.4420838356018, 234.55874180793762, 234.6756567955017, 234.79249691963196, 234.9092137813568, 235.02589178085327, 235.14273595809937, 235.25958800315857, 235.37642979621887, 235.49309587478638, 235.6099898815155, 235.72669100761414, 235.84347295761108, 235.9602119922638, 236.07695698738098, 236.19407081604004, 236.31072187423706, 236.52580285072327]	[232.42193428700853, 232.5386009536752, 233.5216009536752, 233.6883009536752, 234.4383009536752, 234.55496762034187, 234.67163428700854, 234.78830095367522, 234.9049676203419, 235.02163428700857, 235.13830095367524, 235.25496762034192, 235.3716342870086, 235.48830095367526, 235.60496762034194, 235.7216342870086, 235.8383009536753, 235.95496762034196, 236.07163428700864, 236.1883009536753, 236.30496762034198, 236.5383009536753]	2021_Jan_27_1253	59.815404273767555	1	1
12	40	FALSE	NV	v	['J', 'R', 'P', 'N', 'A', 'K', 'Y', 'X', 'U', 'E', 'S', 'T', 'Z', 'B', 'G', 'C']	[1029, 1587, 1456, 1335, 697, 1122, 2670, 4000, 2059, 904, 1731, 1888, 2911, 760, 944, 829]	8	Present	NA	NA	PRESENT	0.40205907821655273	238.53638792037964	240.53510689735413	241.1186318397522	241.46844696998596	244.64216995239255	4.107063055038452	[238.5464518070221, 238.66314387321472, 239.63068890571594, 239.79749584197998, 240.56514286994934, 240.682030916214, 240.79883480072021, 240.91565585136414, 241.03233289718628, 241.14944195747375, 241.2659318447113, 241.3827908039093, 241.49937891960144, 241.59945583343506, 241.7163279056549, 241.84990978240967, 241.94989395141602, 242.06668281555176, 242.1834797859192, 242.30033493041992, 242.41721296310425, 242.6421709060669]	[238.5383009536753, 238.65496762034198, 239.63796762034198, 239.80466762034197, 240.55466762034197, 240.67133428700865, 240.78800095367532, 240.904667620342, 241.02133428700867, 241.13800095367534, 241.25466762034202, 241.3713342870087, 241.48800095367537, 241.60466762034204, 241.72133428700872, 241.8380009536754, 241.95466762034206, 242.07133428700874, 242.1880009536754, 242.3046676203421, 242.42133428700876, 242.65466762034208]	2021_Jan_27_1253	59.815404273767555	1	1
12	41	FALSE	NV	v	['J', 'C', 'V', 'Z', 'B', 'W', 'K', 'A', 'P', 'T', 'N', 'R', 'X', 'M', 'H', 'E']	[1029, 829, 2245, 2911, 760, 2448, 1122, 697, 1456, 1888, 1335, 1587, 4000, 1224, 986, 904]	13	Present	NA	NA	PRESENT	0.2306821346282959	244.6427719593048	246.6511459350586	247.81819987297055	248.1684958934784	250.7585368156433	4.107390880584717	[244.65283679962158, 244.76978087425232, 245.75417280197144, 245.9208288192749, 246.67159581184387, 246.7884349822998, 246.90536999702454, 247.02210783958435, 247.13869285583496, 247.25570583343506, 247.3724889755249, 247.48929500579834, 247.60602593421936, 247.7228229045868, 247.83962178230286, 247.95627689361572, 248.07316398620605, 248.1899437904358, 248.30663299560547, 248.4234778881073, 248.5404829978943, 248.758535861969]	[244.65466762034208, 244.77133428700876, 245.75433428700876, 245.92103428700875, 246.67103428700875, 246.78770095367543, 246.9043676203421, 247.02103428700877, 247.13770095367545, 247.25436762034212, 247.3710342870088, 247.48770095367547, 247.60436762034215, 247.72103428700882, 247.8377009536755, 247.95436762034217, 248.07103428700884, 248.18770095367552, 248.3043676203422, 248.42103428700887, 248.53770095367554, 248.77103428700886]	2021_Jan_27_1253	59.815404273767555	1	1
12	42	FALSE	NA	v	['V', 'E', 'C', 'B', 'P', 'U', 'W', 'R', 'M', 'Y', 'Z', 'A', 'X', 'S', 'N', 'H']	[2245, 904, 829, 760, 1456, 2059, 2448, 1587, 1224, 2670, 2911, 697, 4000, 1731, 1335, 986]	13	Present	NA	NA	PRESENT	0.11608099937438963	250.76604890823364	252.767285823822	253.9346559047699	254.28464579582217	256.8749029636383	4.107617139816284	[250.776113986969, 250.892963886261, 251.87740182876587, 252.04423999786377, 252.7948579788208, 252.9118127822876, 253.02829885482788, 253.14512395858765, 253.26191091537476, 253.37878584861755, 253.4957239627838, 253.61238384246826, 253.72927284240723, 253.84596395492554, 253.9626908302307, 254.07951378822327, 254.1962947845459, 254.3131959438324, 254.42978477478027, 254.54695987701416, 254.64668583869934, 254.8749029636383]	[250.77103428700886, 250.88770095367553, 251.87070095367554, 252.03740095367553, 252.78740095367553, 252.9040676203422, 253.02073428700888, 253.13740095367555, 253.25406762034223, 253.3707342870089, 253.48740095367558, 253.60406762034225, 253.72073428700892, 253.8374009536756, 253.95406762034227, 254.07073428700895, 254.18740095367562, 254.3040676203423, 254.42073428700897, 254.53740095367564, 254.65406762034232, 254.88740095367564]	2021_Jan_27_1253	59.815404273767555	1	1
12	43	FALSE	NN	v	['A', 'Y', 'C', 'N', 'U', 'Z', 'S', 'R', 'G', 'T', 'W', 'V', 'J', 'H', 'P', 'B']	[697, 2670, 829, 1335, 2059, 2911, 1731, 1587, 944, 1888, 2448, 2245, 1029, 986, 1456, 760]	8	Absent	NA	NA	ABSENT	0.3204221725463867	256.8723039627075	258.8837978839874	259.4675278663635	259.8179018497467	262.9912688732147	4.107470989227295	[256.8823688030243, 256.9994549751282, 257.9837238788605, 258.1504600048065, 258.9012508392334, 259.0181179046631, 259.1349229812622, 259.2514989376068, 259.36853289604187, 259.4851927757263, 259.6021008491516, 259.7187089920044, 259.8356919288635, 259.952595949173, 260.0693299770355, 260.1859769821167, 260.30292081832886, 260.4194939136505, 260.53655195236206, 260.6531548500061, 260.76995491981506, 260.9912688732147]	[256.88740095367564, 257.0040676203423, 257.9870676203423, 258.1537676203423, 258.9037676203423, 259.020434287009, 259.13710095367566, 259.25376762034233, 259.370434287009, 259.4871009536757, 259.60376762034235, 259.720434287009, 259.8371009536757, 259.9537676203424, 260.07043428700905, 260.1871009536757, 260.3037676203424, 260.4204342870091, 260.53710095367575, 260.6537676203424, 260.7704342870091, 261.00376762034244]	2021_Jan_27_1253	59.815404273767555	1	1
12	44	FALSE	NA	v	['E', 'B', 'N', 'V', 'J', 'S', 'M', 'X', 'Y', 'P', 'T', 'A', 'C', 'Z', 'K', 'U']	[904, 760, 1335, 2245, 1029, 1731, 1224, 4000, 2670, 1456, 1888, 697, 829, 2911, 1122, 2059]	8	Present	NA	NA	PRESENT	0.21314287185668945	262.99568581581116	265.00008487701416	265.58397579193115	265.9339098930359	269.10763692855835	4.1075520515441895	[263.0057508945465, 263.1224539279938, 264.10692977905273, 264.27385687828064, 265.02455592155457, 265.1414518356323, 265.2580599784851, 265.3748137950897, 265.4916498661041, 265.6084189414978, 265.7251889705658, 265.84193181991577, 265.9589548110962, 266.07550978660583, 266.19227385520935, 266.30935192108154, 266.4258768558502, 266.54277777671814, 266.6595048904419, 266.77644300460815, 266.8932628631592, 267.10763692855835]	[263.00376762034244, 263.1204342870091, 264.1034342870091, 264.2701342870091, 265.0201342870091, 265.1368009536758, 265.25346762034246, 265.37013428700914, 265.4868009536758, 265.6034676203425, 265.72013428700916, 265.83680095367583, 265.9534676203425, 266.0701342870092, 266.18680095367586, 266.30346762034253, 266.4201342870092, 266.5368009536759, 266.65346762034255, 266.7701342870092, 266.8868009536759, 267.12013428700925]	2021_Jan_27_1253	59.815404273767555	1	1
12	45	FALSE	NA	v	['B', 'U', 'A', 'P', 'R', 'M', 'H', 'T', 'G', 'J', 'Y', 'S', 'X', 'V', 'Z', 'E']	[760, 2059, 697, 1456, 1587, 1224, 986, 1888, 944, 1029, 2670, 1731, 4000, 2245, 2911, 904]	13	Present	NA	NA	PRESENT	0.3861989974975586	269.11888790130615	271.11671781539917	272.2835509777069	272.6336658000946	275.2240037918091	4.107285976409912	[269.12896490097046, 269.22889590263367, 270.2132058143616, 270.3801338672638, 271.147962808609, 271.264545917511, 271.3812279701233, 271.498153924942, 271.5979449748993, 271.71480083465576, 271.8315517902374, 271.9483799934387, 272.06518483161926, 272.18199586868286, 272.29873180389404, 272.41557478904724, 272.5323097705841, 272.6491148471832, 272.7661499977112, 272.88269996643066, 272.9997498989105, 273.2240037918091]	[269.12013428700925, 269.2368009536759, 270.21980095367593, 270.3865009536759, 271.1365009536759, 271.2531676203426, 271.36983428700927, 271.48650095367594, 271.6031676203426, 271.7198342870093, 271.83650095367597, 271.95316762034264, 272.0698342870093, 272.186500953676, 272.30316762034266, 272.41983428700934, 272.536500953676, 272.6531676203427, 272.76983428700936, 272.88650095367603, 273.0031676203427, 273.23650095367606]	2021_Jan_27_1253	59.815404273767555	1	1
12	46	FALSE	NV	v	['Y', 'V', 'U', 'M', 'Z', 'N', 'K', 'B', 'E', 'P', 'H', 'A', 'J', 'X', 'G', 'W']	[2670, 2245, 2059, 1224, 2911, 1335, 1122, 760, 904, 1456, 986, 697, 1029, 4000, 944, 2448]	14	Present	NA	NA	PRESENT	0.25501084327697754	275.225341796875	277.23285388946533	278.5166299343109	278.86793780326843	281.3403699398041	4.107516050338745	[275.23540592193604, 275.3522279262543, 276.33664894104004, 276.5033919811249, 277.25415086746216, 277.37093687057495, 277.4879620075226, 277.60455989837646, 277.7213909626007, 277.83799386024475, 277.9548988342285, 278.0714910030365, 278.18859100341797, 278.30521297454834, 278.42216777801514, 278.53883600234985, 278.6556007862091, 278.77245688438416, 278.88918590545654, 279.00611877441406, 279.1229238510132, 279.34036898612976]	[275.23650095367606, 275.35316762034273, 276.33616762034274, 276.5028676203427, 277.2528676203427, 277.3695342870094, 277.4862009536761, 277.60286762034275, 277.7195342870094, 277.8362009536761, 277.9528676203428, 278.06953428700945, 278.1862009536761, 278.3028676203428, 278.41953428700947, 278.53620095367614, 278.6528676203428, 278.7695342870095, 278.88620095367617, 279.00286762034284, 279.1195342870095, 279.35286762034286]	2021_Jan_27_1253	59.815404273767555	1	1
12	47	FALSE	NV	v	['R', 'J', 'S', 'Z', 'K', 'C', 'W', 'X', 'Y', 'T', 'P', 'B', 'U', 'V', 'H', 'E']	[1587, 1029, 1731, 2911, 1122, 829, 2448, 4000, 2670, 1888, 1456, 760, 2059, 2245, 986, 904]	8	Present	NA	NA	PRESENT	0.1883401870727539	281.348778963089	283.34930181503296	283.9331419467926	284.2831058502197	287.4567368030548	4.107434988021851	[281.35884284973145, 281.4753499031067, 282.4597659111023, 282.62650179862976, 283.37732195854187, 283.49418687820435, 283.6109879016876, 283.7276837825775, 283.84458780288696, 283.9612967967987, 284.0781338214874, 284.1949338912964, 284.31153178215027, 284.42858481407166, 284.5452198982239, 284.66226387023926, 284.7788519859314, 284.89563393592834, 285.0124888420105, 285.1293249130249, 285.2292129993439, 285.4567358493805]	[281.35286762034286, 281.46953428700954, 282.45253428700954, 282.61923428700953, 283.36923428700953, 283.4859009536762, 283.6025676203429, 283.71923428700956, 283.83590095367623, 283.9525676203429, 284.0692342870096, 284.18590095367625, 284.3025676203429, 284.4192342870096, 284.5359009536763, 284.65256762034295, 284.7692342870096, 284.8859009536763, 285.002567620343, 285.11923428700965, 285.2359009536763, 285.46923428700967]	2021_Jan_27_1253	59.815404273767555	1	1
12	48	FALSE	NN	v	['S', 'K', 'E', 'P', 'B', 'W', 'Z', 'Y', 'U', 'H', 'A', 'V', 'M', 'C', 'G', 'T']	[1731, 1122, 904, 1456, 760, 2448, 2911, 2670, 2059, 986, 697, 2245, 1224, 829, 944, 1888]	8	Absent	NA	NA	ABSENT	0.39259910583496094	287.45507287979126	289.4655659198761	290.0494158267975	290.39943981170654	293.5731039047241	4.1075379848480225	[287.4651370048523, 287.5818588733673, 288.56598687171936, 288.73316979408264, 289.48371982574463, 289.60062885284424, 289.7174279689789, 289.8342549800873, 289.95100498199463, 290.0675559043884, 290.18466877937317, 290.3012909889221, 290.4182097911835, 290.53486490249634, 290.6518359184265, 290.768501996994, 290.8852059841156, 291.0020868778229, 291.1189270019531, 291.23608589172363, 291.3524639606476, 291.5731039047241]	[287.46923428700967, 287.58590095367634, 288.56890095367635, 288.73560095367634, 289.48560095367634, 289.602267620343, 289.7189342870097, 289.83560095367636, 289.95226762034304, 290.0689342870097, 290.1856009536764, 290.30226762034306, 290.41893428700973, 290.5356009536764, 290.6522676203431, 290.76893428700976, 290.88560095367643, 291.0022676203431, 291.1189342870098, 291.23560095367645, 291.3522676203431, 291.5856009536765]	2021_Jan_27_1253	59.815404273767555	1	1
12	49	FALSE	NA	v	['Y', 'M', 'N', 'W', 'A', 'U', 'R', 'V', 'K', 'X', 'P', 'Z', 'B', 'J', 'H', 'E']	[2670, 1224, 1335, 2448, 697, 2059, 1587, 2245, 1122, 4000, 1456, 2911, 760, 1029, 986, 904]	10	Present	NA	NA	PRESENT	0.24541807174682617	293.57810282707214	295.58204984664917	296.3990828990936	296.749107837677	299.68946981430054	4.107419967651367	[293.5881669521332, 293.70486879348755, 294.6894459724426, 294.85633182525635, 295.6070029735565, 295.7238669395447, 295.8404588699341, 295.9573519229889, 296.074001789093, 296.19098591804504, 296.30782985687256, 296.424528837204, 296.54171895980835, 296.6581709384918, 296.77491188049316, 296.89176297187805, 297.00848388671875, 297.1253638267517, 297.2420427799225, 297.35890889167786, 297.4756369590759, 297.68946981430054]	[293.5856009536765, 293.70226762034315, 294.68526762034315, 294.85196762034315, 295.60196762034315, 295.7186342870098, 295.8353009536765, 295.95196762034317, 296.06863428700984, 296.1853009536765, 296.3019676203432, 296.41863428700987, 296.53530095367654, 296.6519676203432, 296.7686342870099, 296.88530095367656, 297.00196762034324, 297.1186342870099, 297.2353009536766, 297.35196762034326, 297.46863428700993, 297.7019676203433]	2021_Jan_27_1253	59.815404273767555	1	1
12	50	FALSE	VA	v	['N', 'J', 'V', 'G', 'C', 'surprise', 'Y', 'H', 'X', 'K', 'B', 'U', 'M', 'E', 'W', 'S']	[1335, 1029, 2245, 944, 829, 'stimAuditory/all_stimAuditory/202.wav', 2670, 986, 4000, 1122, 760, 2059, 1224, 904, 2448, 1731]	9	Present	NA	stimVisual/all_stimVisual/223.jpg	PRESENT	0.290647029876709	299.7012069225311	301.6982898712158	302.3987398147583	302.74878692626953	305.80583691596985	4.107547044754028	[299.7112708091736, 299.8113558292389, 300.7957799434662, 300.9626507759094, 301.73030185699463, 301.8301558494568, 301.9469277858734, 302.0637049674988, 302.1805567741394, 302.3141098022461, 302.4140999317169, 302.5308208465576, 302.647677898407, 302.7644670009613, 302.8812589645386, 302.99806094169617, 303.1148657798767, 303.23175597190857, 303.3486638069153, 303.46536779403687, 303.58214378356934, 303.80583596229553]	[299.7019676203433, 299.81863428700996, 300.80163428700996, 300.96833428700995, 301.71833428700995, 301.8350009536766, 301.9516676203433, 302.06833428701, 302.18500095367665, 302.3016676203433, 302.41833428701, 302.5350009536767, 302.65166762034335, 302.76833428701, 302.8850009536767, 303.00166762034337, 303.11833428701004, 303.2350009536767, 303.3516676203434, 303.46833428701007, 303.58500095367674, 303.8183342870101]	2021_Jan_27_1253	59.815404273767555	1	1
12	51	FALSE	NA	v	['P', 'K', 'B', 'S', 'C', 'G', 'M', 'W', 'V', 'R', 'Z', 'J', 'H', 'X', 'E', 'N']	[1456, 1122, 760, 1731, 829, 944, 1224, 2448, 2245, 1587, 2911, 1029, 986, 4000, 904, 1335]	14	Present	NA	NA	PRESENT	0.2553069591522217	305.8077178001404	307.8148980140686	309.09862995147705	309.4483289718628	311.9222037792206	4.1073057651519775	[305.81778287887573, 305.93451285362244, 306.91903281211853, 307.0857799053192, 307.83652782440186, 307.9533679485321, 308.07022500038147, 308.18717980384827, 308.30390095710754, 308.4206099510193, 308.5373558998108, 308.65414690971375, 308.77094292640686, 308.88780093193054, 309.004665851593, 309.12139081954956, 309.23831582069397, 309.35499691963196, 309.4717879295349, 309.5886449813843, 309.7053039073944, 309.92220282554626]	[305.8183342870101, 305.93500095367676, 306.91800095367677, 307.08470095367676, 307.83470095367676, 307.95136762034343, 308.0680342870101, 308.1847009536768, 308.30136762034346, 308.41803428701013, 308.5347009536768, 308.6513676203435, 308.76803428701015, 308.8847009536768, 309.0013676203435, 309.1180342870102, 309.23470095367685, 309.3513676203435, 309.4680342870102, 309.5847009536769, 309.70136762034355, 309.9347009536769]	2021_Jan_27_1253	59.815404273767555	1	1
12	52	FALSE	NV	v	['U', 'H', 'Z', 'R', 'E', 'T', 'M', 'K', 'Y', 'N', 'P', 'X', 'B', 'C', 'J', 'W']	[2059, 986, 2911, 1587, 904, 1888, 1224, 1122, 2670, 1335, 1456, 4000, 760, 829, 1029, 2448]	12	Present	NA	NA	PRESENT	0.17268800735473633	311.93131494522095	313.93096590042114	314.9819858074188	315.33152079582214	318.0385699272156	4.107604026794434	[311.9413797855377, 312.058002948761, 313.04227900505066, 313.20922589302063, 313.9597189426422, 314.07658886909485, 314.1935648918152, 314.3102607727051, 314.42702198028564, 314.5438678264618, 314.660523891449, 314.7774119377136, 314.8940758705139, 315.01103377342224, 315.1277768611908, 315.2446057796478, 315.36141991615295, 315.47820496559143, 315.59501099586487, 315.7117509841919, 315.81165885925293, 316.03856897354126]	[311.9347009536769, 312.05136762034357, 313.0343676203436, 313.20106762034357, 313.95106762034357, 314.06773428701024, 314.1844009536769, 314.3010676203436, 314.41773428701026, 314.53440095367694, 314.6510676203436, 314.7677342870103, 314.88440095367696, 315.00106762034363, 315.1177342870103, 315.234400953677, 315.35106762034366, 315.46773428701033, 315.584400953677, 315.7010676203437, 315.81773428701035, 316.0510676203437]	2021_Jan_27_1253	59.815404273767555	1	1
12	53	FALSE	NV	v	['Y', 'Z', 'P', 'W', 'G', 'A', 'H', 'K', 'M', 'N', 'J', 'R', 'U', 'X', 'C', 'T']	[2670, 2911, 1456, 2448, 944, 697, 986, 1122, 1224, 1335, 1029, 1587, 2059, 4000, 829, 1888]	14	Present	NA	NA	PRESENT	0.185046911239624	318.0374279022217	320.0474808216095	321.33244585990906	321.68120980262756	324.1549367904663	4.1074559688568115	[318.04749298095703, 318.16436982154846, 319.14884877204895, 319.3155608177185, 320.066202878952, 320.18300795555115, 320.29988384246826, 320.4166100025177, 320.5335969924927, 320.6501729488373, 320.7671799659729, 320.8839738368988, 321.0006308555603, 321.11744499206543, 321.23437094688416, 321.35104298591614, 321.46787691116333, 321.5845627784729, 321.7015128135681, 321.8182318210602, 321.9348659515381, 322.1549367904663]	[318.0510676203437, 318.1677342870104, 319.1507342870104, 319.31743428701037, 320.06743428701037, 320.18410095367705, 320.3007676203437, 320.4174342870104, 320.53410095367707, 320.65076762034374, 320.7674342870104, 320.8841009536771, 321.00076762034377, 321.11743428701044, 321.2341009536771, 321.3507676203438, 321.46743428701046, 321.58410095367714, 321.7007676203438, 321.8174342870105, 321.93410095367716, 322.1674342870105]	2021_Jan_27_1253	59.815404273767555	1	1
12	54	FALSE	NA	v	['P', 'A', 'Z', 'J', 'W', 'T', 'Y', 'M', 'R', 'C', 'H', 'E', 'K', 'X', 'U', 'V']	[1456, 697, 2911, 1029, 2448, 1888, 2670, 1224, 1587, 829, 986, 904, 1122, 4000, 2059, 2245]	14	Present	NA	NA	PRESENT	0.24573087692260745	324.16064500808716	326.16373801231384	327.4477159976959	327.79752683639526	330.2713038921356	4.107565879821777	[324.1707088947296, 324.28743982315063, 325.27183079719543, 325.438756942749, 326.189279794693, 326.3061628341675, 326.423033952713, 326.5403039455414, 326.6565239429474, 326.7734808921814, 326.8900668621063, 327.00712990760803, 327.1236979961395, 327.2406129837036, 327.3574888706207, 327.47428488731384, 327.5911319255829, 327.7077169418335, 327.82467699050903, 327.94136691093445, 328.05801486968994, 328.2713038921356]	[324.1674342870105, 324.2841009536772, 325.2671009536772, 325.4338009536772, 326.1838009536772, 326.30046762034385, 326.4171342870105, 326.5338009536772, 326.6504676203439, 326.76713428701055, 326.8838009536772, 327.0004676203439, 327.1171342870106, 327.23380095367725, 327.3504676203439, 327.4671342870106, 327.58380095367727, 327.70046762034394, 327.8171342870106, 327.9338009536773, 328.05046762034397, 328.2838009536773]	2021_Jan_27_1253	59.815404273767555	1	1
12	55	FALSE	NV	v	['G', 'A', 'Z', 'J', 'N', 'U', 'T', 'W', 'M', 'X', 'V', 'B', 'S', 'H', 'Y', 'C']	[944, 697, 2911, 1029, 1335, 2059, 1888, 2448, 1224, 4000, 2245, 760, 1731, 986, 2670, 829]	10	Present	NA	NA	ABSENT	0.3150370121002197	330.2669439315796	332.28021693229675	333.0973389148712	333.4474458694458	336.38766980171204	4.107452869415283	[330.27700781822205, 330.3937277793884, 331.3784828186035, 331.54507994651794, 332.3125629425049, 332.4125978946686, 332.5293998718262, 332.6461658477783, 332.76302194595337, 332.8799560070038, 332.99657797813416, 333.11334896087646, 333.2303400039673, 333.3470618724823, 333.46378684043884, 333.5806608200073, 333.6973578929901, 333.81422686576843, 333.93092584609985, 334.0478219985962, 334.1645188331604, 334.3876688480377]	[330.2838009536773, 330.400467620344, 331.383467620344, 331.550167620344, 332.300167620344, 332.41683428701066, 332.53350095367733, 332.650167620344, 332.7668342870107, 332.88350095367736, 333.00016762034403, 333.1168342870107, 333.2335009536774, 333.35016762034405, 333.4668342870107, 333.5835009536774, 333.7001676203441, 333.81683428701075, 333.9335009536774, 334.0501676203441, 334.1668342870108, 334.4001676203441]	2021_Jan_27_1253	59.815404273767555	1	1
12	56	FALSE	NA	v	['T', 'Y', 'M', 'U', 'P', 'H', 'R', 'B', 'C', 'N', 'V', 'A', 'X', 'K', 'Z', 'S']	[1888, 2670, 1224, 2059, 1456, 986, 1587, 760, 829, 1335, 2245, 697, 4000, 1122, 2911, 1731]	13	Present	NA	NA	PRESENT	0.1916298866271973	336.3904027938843	338.39649081230164	339.56371092796326	339.9136538505554	342.50403690338135	4.107546091079712	[336.40046787261963, 336.51707792282104, 337.5014019012451, 337.66845297813416, 338.4189648628235, 338.53581285476685, 338.65275382995605, 338.7694659233093, 338.8863859176636, 339.0030689239502, 339.1199769973755, 339.2367308139801, 339.3533499240875, 339.4702899456024, 339.5871829986572, 339.7039659023285, 339.82052779197693, 339.93730878829956, 340.0540859699249, 340.1710147857666, 340.2877109050751, 340.50403594970703]	[336.4001676203441, 336.5168342870108, 337.4998342870108, 337.6665342870108, 338.4165342870108, 338.53320095367746, 338.64986762034414, 338.7665342870108, 338.8832009536775, 338.99986762034416, 339.11653428701084, 339.2332009536775, 339.3498676203442, 339.46653428701086, 339.58320095367753, 339.6998676203442, 339.8165342870109, 339.93320095367756, 340.04986762034423, 340.1665342870109, 340.2832009536776, 340.5165342870109]	2021_Jan_27_1253	59.815404273767555	1	1
12	57	FALSE	NN	v	['N', 'U', 'A', 'P', 'Y', 'T', 'B', 'Z', 'M', 'H', 'K', 'E', 'V', 'J', 'G', 'S']	[1335, 2059, 697, 1456, 2670, 1888, 760, 2911, 1224, 986, 1122, 904, 2245, 1029, 944, 1731]	13	Absent	NA	NA	ABSENT	0.6847870349884033	342.5137028694153	344.51304483413696	345.6803689002991	346.03055787086487	348.62040400505066	4.107359170913696	[342.5237669944763, 342.64023780822754, 343.6247978210449, 343.7916669845581, 344.5424029827118, 344.6591749191284, 344.77582478523254, 344.8927137851715, 345.00946593284607, 345.12612986564636, 345.2429609298706, 345.3598508834839, 345.476539850235, 345.59341979026794, 345.71040391921997, 345.82715582847595, 345.94377088546753, 346.06040382385254, 346.1773829460144, 346.29429292678833, 346.3943009376526, 346.62040281295776]	[342.5165342870109, 342.6332009536776, 343.6162009536776, 343.7829009536776, 344.5329009536776, 344.64956762034427, 344.76623428701095, 344.8829009536776, 344.9995676203443, 345.11623428701097, 345.23290095367764, 345.3495676203443, 345.466234287011, 345.58290095367767, 345.69956762034434, 345.816234287011, 345.9329009536777, 346.04956762034436, 346.16623428701104, 346.2829009536777, 346.3995676203444, 346.63290095367773]	2021_Jan_27_1253	59.815404273767555	1	1
12	58	FALSE	NN	v	['J', 'W', 'Z', 'U', 'A', 'C', 'S', 'V', 'G', 'K', 'R', 'H', 'N', 'B', 'T', 'M']	[1029, 2448, 2911, 2059, 697, 829, 1731, 2245, 944, 1122, 1587, 986, 1335, 760, 1888, 1224]	11	Absent	NA	NA	ABSENT	0.5372641086578369	348.62000489234924	350.6293239593506	351.56308484077454	351.9130549430847	354.7367699146271	4.107445955276489	[348.6300699710846, 348.7466969490051, 349.73112392425537, 349.8981349468231, 350.64873695373535, 350.7655248641968, 350.8824517726898, 350.99908089637756, 351.1159279346466, 351.232745885849, 351.3496289253235, 351.46630477905273, 351.5829858779907, 351.7000238895416, 351.81666898727417, 351.93358397483826, 352.0503668785095, 352.16744780540466, 352.28377985954285, 352.4007658958435, 352.51730489730835, 352.7367699146271]	[348.63290095367773, 348.7495676203444, 349.7325676203444, 349.8992676203444, 350.6492676203444, 350.7659342870111, 350.88260095367775, 350.9992676203444, 351.1159342870111, 351.2326009536778, 351.34926762034445, 351.4659342870111, 351.5826009536778, 351.6992676203445, 351.81593428701115, 351.9326009536778, 352.0492676203445, 352.16593428701117, 352.28260095367784, 352.3992676203445, 352.5159342870112, 352.74926762034454]	2021_Jan_27_1253	59.815404273767555	1	1
12	59	FALSE	AA	v	['E', 'B', 'W', 'Y', 'S', 'N', 'M', 'V', 'surprise', 'R', 'G', 'X', 'K', 'T', 'H', 'C']	[904, 760, 2448, 2670, 1731, 1335, 1224, 2245, 'stimAuditory/all_stimAuditory/115.wav', 1587, 944, 4000, 1122, 1888, 986, 829]	12	Present	stimAuditory/all_stimAuditory/215.wav	stimVisual/all_stimVisual/120.jpg	PRESENT	0.949916124343872	354.7430658340454	356.7456088066101	357.7961359024048	358.14612793922424	360.8531367778778	4.1075279712677	[354.75312995910645, 354.86986088752747, 355.8543288707733, 356.02133679389954, 356.7719359397888, 356.8887288570404, 357.0056278705597, 357.1224009990692, 357.2392427921295, 357.3558259010315, 357.4728298187256, 357.5896489620209, 357.70626282691956, 357.8232579231262, 357.9398579597473, 358.05701899528503, 358.1734240055084, 358.29006481170654, 358.40689992904663, 358.52372097969055, 358.6407117843628, 358.8531358242035]	[354.74926762034454, 354.8659342870112, 355.8489342870112, 356.0156342870112, 356.7656342870112, 356.8823009536779, 356.99896762034456, 357.11563428701123, 357.2323009536779, 357.3489676203446, 357.46563428701126, 357.58230095367793, 357.6989676203446, 357.8156342870113, 357.93230095367795, 358.0489676203446, 358.1656342870113, 358.282300953678, 358.39896762034465, 358.5156342870113, 358.632300953678, 358.86563428701135]	2021_Jan_27_1253	59.815404273767555	1	1
12	60	FALSE	NA	v	['P', 'R', 'K', 'T', 'M', 'G', 'C', 'X', 'S', 'W', 'V', 'U', 'Y', 'H', 'Z', 'A']	[1456, 1587, 1122, 1888, 1224, 944, 829, 4000, 1731, 2448, 2245, 2059, 2670, 986, 2911, 697]	8	Present	NA	NA	ABSENT	0.3794591426849365	360.8494219779968	362.8619649410248	363.4458689689636	363.7971889972687	366.9695038795471	4.107538938522339	[360.8594858646393, 360.9762849807739, 361.96070194244385, 362.1280288696289, 362.89499592781067, 362.99527883529663, 363.1120707988739, 363.2287199497223, 363.34572982788086, 363.46234488487244, 363.579304933548, 363.6959388256073, 363.81265091896057, 363.92949986457825, 364.04652881622314, 364.16317892074585, 364.2799618244171, 364.3968029022217, 364.5135259628296, 364.63031578063965, 364.74715185165405, 364.9695029258728]	[360.86563428701135, 360.982300953678, 361.965300953678, 362.132000953678, 362.882000953678, 362.9986676203447, 363.11533428701136, 363.23200095367804, 363.3486676203447, 363.4653342870114, 363.58200095367806, 363.69866762034474, 363.8153342870114, 363.9320009536781, 364.04866762034476, 364.16533428701143, 364.2820009536781, 364.3986676203448, 364.51533428701146, 364.63200095367813, 364.7486676203448, 364.98200095367815]	2021_Jan_27_1253	59.815404273767555	1	1
12	61	FALSE	NV	v	['E', 'Z', 'R', 'U', 'C', 'P', 'T', 'S', 'G', 'W', 'K', 'X', 'J', 'B', 'H', 'A']	[904, 2911, 1587, 2059, 829, 1456, 1888, 1731, 944, 2448, 1122, 4000, 1029, 760, 986, 697]	12	Present	NA	NA	PRESENT	1.0397450923919678	366.9727408885956	368.97847294807434	370.02918100357056	370.37893199920654	373.0858688354492	4.107395887374878	[366.98280477523804, 367.0994818210602, 368.0840308666229, 368.2508099079132, 369.0016379356384, 369.1184878349304, 369.2353630065918, 369.35204577445984, 369.46892189979553, 369.5855758190155, 369.70221877098083, 369.8192548751831, 369.9358289241791, 370.05282187461853, 370.16945791244507, 370.2863509654999, 370.4029939174652, 370.5199558734894, 370.63681983947754, 370.75346398353577, 370.87036991119385, 371.08587098121643]	[366.98200095367815, 367.0986676203448, 368.08166762034483, 368.2483676203448, 368.9983676203448, 369.1150342870115, 369.23170095367817, 369.34836762034485, 369.4650342870115, 369.5817009536782, 369.69836762034487, 369.81503428701154, 369.9317009536782, 370.0483676203449, 370.16503428701157, 370.28170095367824, 370.3983676203449, 370.5150342870116, 370.63170095367826, 370.74836762034494, 370.8650342870116, 371.09836762034496]	2021_Jan_27_1253	59.815404273767555	1	1
12	62	FALSE	AA	v	['R', 'B', 'Z', 'G', 'H', 'T', 'surprise', 'S', 'E', 'X', 'N', 'A', 'P', 'M', 'C', 'U']	[1587, 760, 2911, 944, 986, 1888, 'stimAuditory/all_stimAuditory/117.wav', 1731, 904, 4000, 1335, 697, 1456, 1224, 829, 2059]	10	Present	stimAuditory/all_stimAuditory/109.wav	stimVisual/all_stimVisual/200.jpg	PRESENT	0.99701690673828125	373.09605979919434	375.0947148799896	375.9118618965149	376.2618899345398	379.2022368907929	4.107522010803223	[373.10612392425537, 373.2226347923279, 374.190397977829, 374.3572289943695, 375.1246528625488, 375.2415039539337, 375.3583929538727, 375.47523379325867, 375.591983795166, 375.7088317871094, 375.82546377182007, 375.94253492355347, 376.05909180641174, 376.1758449077606, 376.2928478717804, 376.40957498550415, 376.5263497829437, 376.64291191101074, 376.7429828643799, 376.8597638607025, 376.9767699241638, 377.20223689079285]	[373.09836762034496, 373.21503428701163, 374.19803428701164, 374.36473428701163, 375.11473428701163, 375.2314009536783, 375.348067620345, 375.46473428701165, 375.5814009536783, 375.698067620345, 375.8147342870117, 375.93140095367835, 376.048067620345, 376.1647342870117, 376.28140095367837, 376.39806762034505, 376.5147342870117, 376.6314009536784, 376.74806762034507, 376.86473428701174, 376.9814009536784, 377.21473428701177]	2021_Jan_27_1253	59.815404273767555	1	1
12	63	FALSE	NV	v	['A', 'E', 'T', 'G', 'K', 'H', 'B', 'Y', 'J', 'X', 'C', 'Z', 'R', 'S', 'P', 'W']	[697, 904, 1888, 944, 1122, 986, 760, 2670, 1029, 4000, 829, 2911, 1587, 1731, 1456, 2448]	10	Present	NA	NA	ABSENT	0.5854690074920654	379.20247292518616	381.21123480796814	382.0285758972168	382.3782448768616	385.31860399246216	4.1073691844940186	[379.2125368118286, 379.32939100265503, 380.31361389160156, 380.4805099964142, 381.23114585876465, 381.3479290008545, 381.4648838043213, 381.58164286613464, 381.6984667778015, 381.81520199775696, 381.9319338798523, 382.04880595207214, 382.1659119129181, 382.28251695632935, 382.3990578651428, 382.5160138607025, 382.6326758861542, 382.7495939731598, 382.86627078056335, 382.9832398891449, 383.0998499393463, 383.31860399246216]	[379.21473428701177, 379.33140095367844, 380.31440095367844, 380.48110095367844, 381.23110095367844, 381.3477676203451, 381.4644342870118, 381.58110095367846, 381.69776762034513, 381.8144342870118, 381.9311009536785, 382.04776762034516, 382.16443428701183, 382.2811009536785, 382.3977676203452, 382.51443428701185, 382.6311009536785, 382.7477676203452, 382.8644342870119, 382.98110095367855, 383.0977676203452, 383.3311009536786]	2021_Jan_27_1253	59.815404273767555	1	1
12	64	FALSE	NN	v	['U', 'T', 'B', 'N', 'A', 'P', 'C', 'Y', 'E', 'S', 'Z', 'V', 'K', 'G', 'R', 'M']	[2059, 1888, 760, 1335, 697, 1456, 829, 2670, 904, 1731, 2911, 2245, 1122, 944, 1587, 1224]	8	Absent	NA	NA	ABSENT	0.32709288597106934	385.3255088329315	387.32752299308777	387.9112470149994	388.2616288661957	391.4349699020386	4.107446908950806	[385.33557391166687, 385.452360868454, 386.43679094314575, 386.60353899002075, 387.3545069694519, 387.47137999534607, 387.58797883987427, 387.70489597320557, 387.8215548992157, 387.9384698867798, 388.0552568435669, 388.17196393013, 388.28874588012695, 388.40543699264526, 388.5224437713623, 388.6390428543091, 388.7560648918152, 388.872633934021, 388.9895009994507, 389.1063539981842, 389.20629382133484, 389.4349699020386]	[385.3311009536786, 385.44776762034525, 386.43076762034525, 386.59746762034524, 387.34746762034524, 387.4641342870119, 387.5808009536786, 387.69746762034526, 387.81413428701194, 387.9308009536786, 388.0474676203453, 388.16413428701196, 388.28080095367864, 388.3974676203453, 388.514134287012, 388.63080095367866, 388.74746762034533, 388.864134287012, 388.9808009536787, 389.09746762034536, 389.21413428701203, 389.4474676203454]	2021_Jan_27_1253	59.815404273767555	1	1
12	65	FALSE	NN	v	['Y', 'J', 'Z', 'A', 'U', 'H', 'S', 'C', 'T', 'K', 'V', 'M', 'W', 'N', 'B', 'R']	[2670, 1029, 2911, 697, 2059, 986, 1731, 829, 1888, 1122, 2245, 1224, 2448, 1335, 760, 1587]	10	Absent	NA	NA	ABSENT	0.2275688648223877	391.4320390224457	393.44394183158875	394.2610239982605	394.6113669872284	397.5513370037079	4.107395172119141	[391.44210290908813, 391.5588209629059, 392.54341983795166, 392.7101948261261, 393.4775857925415, 393.5776619911194, 393.69462990760803, 393.8113169670105, 393.928249835968, 394.04477190971375, 394.1617980003357, 394.2785849571228, 394.39540696144104, 394.5120139122009, 394.6286919116974, 394.7455949783325, 394.8625099658966, 394.9791958332062, 395.09607100486755, 395.2128438949585, 395.32947993278503, 395.5513370037079]	[391.4474676203454, 391.56413428701205, 392.54713428701206, 392.71383428701205, 393.46383428701205, 393.5805009536787, 393.6971676203454, 393.81383428701207, 393.93050095367875, 394.0471676203454, 394.1638342870121, 394.28050095367877, 394.39716762034544, 394.5138342870121, 394.6305009536788, 394.74716762034546, 394.86383428701214, 394.9805009536788, 395.0971676203455, 395.21383428701216, 395.33050095367884, 395.5638342870122]	2021_Jan_27_1253	59.815404273767555	1	1
12	66	FALSE	NV	v	['N', 'S', 'W', 'V', 'A', 'R', 'Y', 'T', 'G', 'X', 'C', 'H', 'U', 'B', 'Z', 'M']	[1335, 1731, 2448, 2245, 697, 1587, 2670, 1888, 944, 4000, 829, 986, 2059, 760, 2911, 1224]	10	Present	NA	NA	PRESENT	0.7920050621032715	397.55531787872314	399.5601170063019	400.3774139881134	400.72741198539734	403.6677029132843	4.107585906982422	[397.5653829574585, 397.6820068359375, 398.6663348674774, 398.83328580856323, 399.583970785141, 399.7009928226471, 399.81760597229004, 399.9344480037689, 400.0514597892761, 400.16795682907104, 400.28480982780457, 400.4017159938812, 400.5183598995209, 400.6352279186249, 400.7521119117737, 400.86890983581543, 400.9855577945709, 401.10250782966614, 401.21917486190796, 401.3360559940338, 401.45285081863403, 401.6677029132843]	[397.5638342870122, 397.68050095367886, 398.66350095367886, 398.83020095367885, 399.58020095367885, 399.69686762034553, 399.8135342870122, 399.9302009536789, 400.04686762034555, 400.1635342870122, 400.2802009536789, 400.3968676203456, 400.51353428701225, 400.6302009536789, 400.7468676203456, 400.86353428701227, 400.98020095367895, 401.0968676203456, 401.2135342870123, 401.33020095367897, 401.44686762034564, 401.680200953679]	2021_Jan_27_1253	59.815404273767555	1	1
12	67	FALSE	NV	v	['V', 'Y', 'H', 'C', 'M', 'U', 'R', 'K', 'N', 'X', 'S', 'B', 'P', 'A', 'W', 'J']	[2245, 2670, 986, 829, 1224, 2059, 1587, 1122, 1335, 4000, 1731, 760, 1456, 697, 2448, 1029]	10	Present	NA	NA	PRESENT	0.3092007637023926	403.6783709526062	405.67677092552185	406.49370098114014	406.84379482269287	409.78406977653503	4.107298851013184	[403.68843483924866, 403.80540680885315, 404.7728428840637, 404.93968892097473, 405.70734691619873, 405.82420587539673, 405.94080781936646, 406.05783891677856, 406.1745879650116, 406.2911927700043, 406.408127784729, 406.52489280700684, 406.6415967941284, 406.7415030002594, 406.8582978248596, 406.9751079082489, 407.091915845871, 407.2087309360504, 407.3255178928375, 407.4423158168793, 407.55911779403687, 407.7840688228607]	[403.680200953679, 403.79686762034567, 404.77986762034567, 404.94656762034566, 405.69656762034566, 405.81323428701234, 405.929900953679, 406.0465676203457, 406.16323428701236, 406.27990095367903, 406.3965676203457, 406.5132342870124, 406.62990095367905, 406.74656762034573, 406.8632342870124, 406.9799009536791, 407.09656762034575, 407.2132342870124, 407.3299009536791, 407.4465676203458, 407.56323428701245, 407.7965676203458]	2021_Jan_27_1253	59.815404273767555	1	1
12	68	FALSE	NA	v	['G', 'B', 'E', 'Z', 'P', 'A', 'K', 'R', 'V', 'W', 'X', 'S', 'H', 'N', 'M', 'T']	[944, 760, 904, 2911, 1456, 697, 1122, 1587, 2245, 2448, 4000, 1731, 986, 1335, 1224, 1888]	11	Present	NA	NA	PRESENT	0.3618199825286865	409.78496980667114	411.7929630279541	412.7266700267792	413.07681488990784	415.90043687820435	4.107473850250244	[409.7950339317322, 409.9116508960724, 410.8960049152374, 411.0629599094391, 411.8136169910431, 411.9305839538574, 412.0473117828369, 412.16459798812866, 412.2810459136963, 412.3978078365326, 412.5144188404083, 412.631472826004, 412.7482109069824, 412.86493277549744, 412.98159289360046, 413.09862995147705, 413.2151219844818, 413.332093000412, 413.44885182380676, 413.56570386886597, 413.68240094184875, 413.90043687820435]	[409.7965676203458, 409.9132342870125, 410.8962342870125, 411.06293428701247, 411.81293428701247, 411.92960095367914, 412.0462676203458, 412.1629342870125, 412.27960095367916, 412.39626762034584, 412.5129342870125, 412.6296009536792, 412.74626762034586, 412.86293428701254, 412.9796009536792, 413.0962676203459, 413.21293428701256, 413.32960095367923, 413.4462676203459, 413.5629342870126, 413.67960095367926, 413.9129342870126]	2021_Jan_27_1253	59.815404273767555	1	1
12	69	FALSE	NV	v	['Z', 'U', 'V', 'K', 'Y', 'C', 'H', 'R', 'A', 'X', 'E', 'M', 'B', 'T', 'N', 'W']	[2911, 2059, 2245, 1122, 2670, 829, 986, 1587, 697, 4000, 904, 1224, 760, 1888, 1335, 2448]	10	Present	NA	NA	PRESENT	1.2070560455322266	415.9079577922821	417.9093029499054	418.7264518737793	419.0764579772949	422.01680397987366	4.107501029968262	[415.91802287101746, 416.03494596481323, 417.01933693885803, 417.186155796051, 417.93692994117737, 418.0538330078125, 418.1705038547516, 418.28723192214966, 418.4039788246155, 418.5208230018616, 418.63776993751526, 418.7546010017395, 418.87117290496826, 418.98811888694763, 419.10486578941345, 419.22163796424866, 419.3385097980499, 419.45527696609497, 419.57224798202515, 419.68888878822327, 419.7887978553772, 420.01680397987366]	[415.9129342870126, 416.0296009536793, 417.0126009536793, 417.1793009536793, 417.9293009536793, 418.04596762034595, 418.1626342870126, 418.2793009536793, 418.39596762034597, 418.51263428701265, 418.6293009536793, 418.745967620346, 418.86263428701267, 418.97930095367934, 419.095967620346, 419.2126342870127, 419.32930095367936, 419.44596762034604, 419.5626342870127, 419.6793009536794, 419.79596762034606, 420.0293009536794]	2021_Jan_27_1253	59.815404273767555	1	1
12	70	FALSE	NA	v	['C', 'G', 'V', 'W', 'B', 'J', 'Z', 'H', 'M', 'A', 'T', 'K', 'X', 'N', 'E', 'R']	[829, 944, 2245, 2448, 760, 1029, 2911, 986, 1224, 697, 1888, 1122, 4000, 1335, 904, 1587]	13	Present	NA	NA	PRESENT	0.4276859760284424	422.0146369934082	424.02585887908936	425.1927878856659	425.5428349971771	428.1331698894501	4.107311010360718	[422.02470088005066, 422.14168190956116, 423.1256539821625, 423.29267382621765, 424.0432848930359, 424.16025280952454, 424.27713084220886, 424.3938238620758, 424.5105447769165, 424.62740993499756, 424.74417185783386, 424.8609068393707, 424.9777948856354, 425.0945007801056, 425.21126794815063, 425.32806181907654, 425.4448449611664, 425.561714887619, 425.6784598827362, 425.7953758239746, 425.91208386421204, 426.1331698894501]	[422.0293009536794, 422.1459676203461, 423.1289676203461, 423.2956676203461, 424.0456676203461, 424.16233428701275, 424.27900095367943, 424.3956676203461, 424.5123342870128, 424.62900095367945, 424.7456676203461, 424.8623342870128, 424.9790009536795, 425.09566762034615, 425.2123342870128, 425.3290009536795, 425.44566762034617, 425.56233428701285, 425.6790009536795, 425.7956676203462, 425.91233428701287, 426.1456676203462]	2021_Jan_27_1253	59.815404273767555	1	1
12	71	FALSE	VN	v	['C', 'A', 'W', 'N', 'T', 'V', 'G', 'B', 'surprise', 'P', 'U', 'H', 'Y', 'M', 'R', 'K']	[829, 697, 2448, 1335, 1888, 2245, 944, 760, 'stimAuditory/all_stimAuditory/224.wav', 1456, 2059, 986, 2670, 1224, 1587, 1122]	12	Absent	NA	stimVisual/all_stimVisual/208.jpg	ABSENT	0.4477579593658447	428.13778591156006	430.14215898513794	431.1925179958343	431.5425789356232	434.2495369911194	4.107378005981445	[428.1478588581085, 428.26470589637756, 429.2490258216858, 429.41591000556946, 430.1664719581604, 430.2834379673004, 430.40021896362305, 430.5170428752899, 430.63385486602783, 430.75045895576477, 430.8672568798065, 430.984258890152, 431.10087490081787, 431.21783089637756, 431.3345057964325, 431.45132398605347, 431.5679738521576, 431.68503189086914, 431.8016757965088, 431.918536901474, 432.03563690185547, 432.2495369911194]	[428.1456676203462, 428.2623342870129, 429.2453342870129, 429.4120342870129, 430.1620342870129, 430.27870095367956, 430.39536762034624, 430.5120342870129, 430.6287009536796, 430.74536762034626, 430.86203428701293, 430.9787009536796, 431.0953676203463, 431.21203428701295, 431.32870095367963, 431.4453676203463, 431.562034287013, 431.67870095367965, 431.7953676203463, 431.912034287013, 432.0287009536797, 432.262034287013]	2021_Jan_27_1253	59.815404273767555	1	1
12	72	FALSE	NV	v	['G', 'J', 'P', 'B', 'C', 'Z', 'U', 'S', 'T', 'E', 'V', 'X', 'R', 'W', 'H', 'K']	[944, 1029, 1456, 760, 829, 2911, 2059, 1731, 1888, 904, 2245, 4000, 1587, 2448, 986, 1122]	12	Present	NA	NA	PRESENT	0.5334339141845703	434.2608540058136	436.2583909034729	437.30895495414734	437.65891289711	440.3659029006958	4.1075119972229	[434.2709197998047, 434.3709788322449, 435.35526394844055, 435.5223608016968, 436.2898278236389, 436.389723777771, 436.5064778327942, 436.62330389022827, 436.74008893966675, 436.856910943985, 436.97361993789673, 437.09040880203247, 437.2071487903595, 437.3240168094635, 437.44082593917847, 437.55764389038086, 437.6744349002838, 437.79123187065125, 437.90806698799133, 438.0250289440155, 438.1416449546814, 438.3659019470215]	[434.262034287013, 434.3787009536797, 435.3617009536797, 435.5284009536797, 436.2784009536797, 436.39506762034637, 436.51173428701304, 436.6284009536797, 436.7450676203464, 436.86173428701306, 436.97840095367974, 437.0950676203464, 437.2117342870131, 437.32840095367976, 437.44506762034644, 437.5617342870131, 437.6784009536798, 437.79506762034646, 437.91173428701313, 438.0284009536798, 438.1450676203465, 438.37840095367983]	2021_Jan_27_1253	59.815404273767555	1	1
12	73	FALSE	NA	v	['V', 'A', 'B', 'U', 'G', 'C', 'Y', 'H', 'E', 'R', 'M', 'X', 'N', 'W', 'P', 'J']	[2245, 697, 760, 2059, 944, 829, 2670, 986, 904, 1587, 1224, 4000, 1335, 2448, 1456, 1029]	12	Present	NA	NA	PRESENT	1.0019631385803225	440.3675148487091	442.3748459815979	443.4257378578186	443.77534580230713	446.4822688102722	4.107422828674316	[440.37757992744446, 440.49427795410156, 441.4786608219147, 441.64537286758423, 442.3965139389038, 442.51308488845825, 442.6298038959503, 442.74676179885864, 442.8633568286896, 442.980251789093, 443.0968849658966, 443.21385192871094, 443.3306128978729, 443.4473488330841, 443.56413984298706, 443.68098878860474, 443.797691822052, 443.9144477844238, 444.03148579597473, 444.14805698394775, 444.26478695869446, 444.4822688102722]	[440.37840095367983, 440.4950676203465, 441.4780676203465, 441.6447676203465, 442.3947676203465, 442.5114342870132, 442.62810095367985, 442.7447676203465, 442.8614342870132, 442.97810095367987, 443.09476762034654, 443.2114342870132, 443.3281009536799, 443.44476762034657, 443.56143428701324, 443.6781009536799, 443.7947676203466, 443.91143428701326, 444.02810095367994, 444.1447676203466, 444.2614342870133, 444.49476762034664]	2021_Jan_27_1253	59.815404273767555	1	1
12	74	FALSE	AV	v	['C', 'W', 'R', 'M', 'E', 'T', 'P', 'G', 'Z', 'V', 'surprise', 'Y', 'N', 'X', 'S', 'J']	[829, 2448, 1587, 1224, 904, 1888, 1456, 944, 2911, 2245, 'stimAuditory/all_stimAuditory/212.wav', 2670, 1335, 4000, 1731, 1029]	14	Present	stimAuditory/all_stimAuditory/222.wav	stimVisual/all_stimVisual/203.jpg	ABSENT	0.8154699802398682	446.49050188064575	448.49105191230774	449.7750029563904	450.1251118183136	452.59863686561584	4.1075849533081055	[446.5005669593811, 446.61761689186096, 447.6017289161682, 447.76862478256226, 448.5193569660187, 448.6364119052887, 448.7531108856201, 448.86982893943787, 448.9866979122162, 449.10342597961426, 449.2203109264374, 449.336797952652, 449.45367980003357, 449.57037591934204, 449.68733191490173, 449.8040609359741, 449.9210548400879, 450.03825092315674, 450.1546139717102, 450.27123498916626, 450.371337890625, 450.59863781929016]	[446.49476762034664, 446.6114342870133, 447.5944342870133, 447.7611342870133, 448.5111342870133, 448.62780095368, 448.74446762034665, 448.86113428701333, 448.97780095368, 449.0944676203467, 449.21113428701335, 449.32780095368, 449.4444676203467, 449.5611342870134, 449.67780095368005, 449.7944676203467, 449.9111342870134, 450.02780095368007, 450.14446762034675, 450.2611342870134, 450.3778009536801, 450.61113428701344]	2021_Jan_27_1253	59.815404273767555	1	1
12	75	FALSE	NV	v	['W', 'B', 'K', 'P', 'T', 'U', 'G', 'M', 'J', 'H', 'X', 'Z', 'A', 'S', 'R', 'N']	[2448, 760, 1122, 1456, 1888, 2059, 944, 1224, 1029, 986, 4000, 2911, 697, 1731, 1587, 1335]	11	Present	NA	NA	PRESENT	0.29190707206726074	452.5974078178406	454.60762786865234	455.5413498878479	455.8913788795471	458.7150039672851	4.1073760986328125	[452.6074719429016, 452.72403383255005, 453.7083008289337, 453.8751678466797, 454.62581300735474, 454.7427589893341, 454.859356880188, 454.9763948917389, 455.09308791160583, 455.2097899913788, 455.3264718055725, 455.4434747695923, 455.5601079463959, 455.6770498752594, 455.79377698898315, 455.9107129573822, 456.0273118019104, 456.1442859172821, 456.26088285446167, 456.3778748512268, 456.49460792541504, 456.71500277519226]	[452.61113428701344, 452.7278009536801, 453.7108009536801, 453.8775009536801, 454.6275009536801, 454.7441676203468, 454.86083428701346, 454.97750095368013, 455.0941676203468, 455.2108342870135, 455.32750095368016, 455.44416762034683, 455.5608342870135, 455.6775009536802, 455.79416762034685, 455.91083428701353, 456.0275009536802, 456.1441676203469, 456.26083428701355, 456.3775009536802, 456.4941676203469, 456.72750095368025]	2021_Jan_27_1253	59.815404273767555	1	1
12	76	FALSE	NA	v	['M', 'E', 'S', 'N', 'Z', 'W', 'A', 'G', 'B', 'U', 'V', 'X', 'C', 'Y', 'T', 'P']	[1224, 904, 1731, 1335, 2911, 2448, 697, 944, 760, 2059, 2245, 4000, 829, 2670, 1888, 1456]	12	Present	NA	NA	PRESENT	0.36837100982666016	458.72034883499146	460.72399401664734	461.77439880371094	462.1243917942047	464.8313698768616	4.107375860214233	[458.7304139137268, 458.8469879627228, 459.83146595954895, 459.9981768131256, 460.74906396865845, 460.8658289909363, 460.9826920032501, 461.0995879173279, 461.21621799468994, 461.33308482170105, 461.4498379230499, 461.5664529800415, 461.6834809780121, 461.80002093315125, 461.91692781448364, 462.0338878631592, 462.15088391304016, 462.2674160003662, 462.38423681259155, 462.50083899497986, 462.6178410053253, 462.83136892318726]	[458.72750095368025, 458.8441676203469, 459.8271676203469, 459.9938676203469, 460.7438676203469, 460.8605342870136, 460.97720095368027, 461.09386762034694, 461.2105342870136, 461.3272009536803, 461.44386762034696, 461.56053428701364, 461.6772009536803, 461.793867620347, 461.91053428701366, 462.02720095368034, 462.143867620347, 462.2605342870137, 462.37720095368036, 462.49386762034703, 462.6105342870137, 462.84386762034705]	2021_Jan_27_1253	59.815404273767555	1	1
12	77	FALSE	NN	v	['V', 'T', 'A', 'R', 'M', 'H', 'W', 'B', 'J', 'K', 'N', 'C', 'P', 'S', 'Z', 'E']	[2245, 1888, 697, 1587, 1224, 986, 2448, 760, 1029, 1122, 1335, 829, 1456, 1731, 2911, 904]	8	Absent	NA	NA	ABSENT	0.39769482612609863	464.8266348838806	466.840402841568	467.42410588264465	467.7739930152893	470.9477369785309	4.107334136962891	[464.83669996261597, 464.95339798927307, 465.93798089027405, 466.10482692718506, 466.8723108768463, 466.972247838974, 467.0890328884125, 467.2057728767395, 467.32256984710693, 467.4393548965454, 467.5561969280243, 467.6729588508606, 467.7897398471832, 467.9065728187561, 468.02335596084595, 468.14007687568665, 468.25701689720154, 468.37385988235474, 468.49056482315063, 468.6075439453125, 468.7241289615631, 468.9477369785309]	[464.84386762034705, 464.96053428701373, 465.94353428701373, 466.1102342870137, 466.8602342870137, 466.9769009536804, 467.0935676203471, 467.21023428701375, 467.3269009536804, 467.4435676203471, 467.56023428701377, 467.67690095368044, 467.7935676203471, 467.9102342870138, 468.02690095368047, 468.14356762034714, 468.2602342870138, 468.3769009536805, 468.49356762034716, 468.61023428701384, 468.7269009536805, 468.96023428701386]	2021_Jan_27_1253	59.815404273767555	1	1
12	78	FALSE	VV	v	['H', 'N', 'T', 'E', 'surprise', 'S', 'A', 'X', 'R', 'J', 'M', 'K', 'C', 'W', 'V', 'Z']	[986, 1335, 1888, 904, 'stimAuditory/all_stimAuditory/219.wav', 1731, 697, 4000, 1587, 1029, 1224, 1122, 829, 2448, 2245, 2911]	8	Present	NA	stimVisual/all_stimVisual/202.jpg	PRESENT	0.18625497817993164	470.9500160217285	472.95667481422424	473.5406048297882	473.8904469013214	477.0641028881073	4.107428073883057	[470.960079908371, 471.0767378807068, 472.06106877326965, 472.2280969619751, 472.9787538051605, 473.0957179069519, 473.2123739719391, 473.32897186279297, 473.4624969959259, 473.56271290779114, 473.6793568134308, 473.7962839603424, 473.9129798412323, 474.02992486953735, 474.1466898918152, 474.2633237838745, 474.3803069591522, 474.49695897102356, 474.61392998695374, 474.730712890625, 474.8474907875061, 475.0641028881073]	[470.96023428701386, 471.07690095368054, 472.05990095368054, 472.22660095368053, 472.97660095368053, 473.0932676203472, 473.2099342870139, 473.32660095368055, 473.4432676203472, 473.5599342870139, 473.6766009536806, 473.79326762034725, 473.9099342870139, 474.0266009536806, 474.1432676203473, 474.25993428701395, 474.3766009536806, 474.4932676203473, 474.60993428701397, 474.72660095368065, 474.8432676203473, 475.07660095368067]	2021_Jan_27_1253	59.815404273767555	1	1
12	79	FALSE	NN	v	['Y', 'K', 'T', 'V', 'E', 'W', 'N', 'A', 'C', 'J', 'R', 'Z', 'M', 'P', 'H', 'U']	[2670, 1122, 1888, 2245, 904, 2448, 1335, 697, 829, 1029, 1587, 2911, 1224, 1456, 986, 2059]	12	Absent	NA	NA	ABSENT	0.3916780948638916	477.0731039047241	479.0729339122772	480.12364292144775	480.47362089157104	483.1804699897766	4.10753607749939	[477.0831689834595, 477.19998598098755, 478.18431186676025, 478.3512489795685, 479.1018419265747, 479.2188708782196, 479.3353319168091, 479.4521508216858, 479.5691030025482, 479.6858298778534, 479.80249190330505, 479.919282913208, 480.0365719795227, 480.15290999412537, 480.2697608470917, 480.38666677474976, 480.50339579582214, 480.62004590034485, 480.7371048927307, 480.8539559841156, 480.95380783081055, 481.1804687976837]	[477.07660095368067, 477.19326762034734, 478.17626762034735, 478.34296762034734, 479.09296762034734, 479.209634287014, 479.3263009536807, 479.44296762034736, 479.55963428701403, 479.6763009536807, 479.7929676203474, 479.90963428701406, 480.02630095368073, 480.1429676203474, 480.2596342870141, 480.37630095368075, 480.49296762034743, 480.6096342870141, 480.7263009536808, 480.84296762034745, 480.9596342870141, 481.1929676203475]	2021_Jan_27_1253	59.815404273767555	1	1
