participant	trial_num	practice	task	condition	RSVP	RAP	probePos	probe_presence	surprise_sound	surprise_img	probe_response	probe_resp_time	first_fixation_time	trial_start_time	surprise_start_time	probe_start_time	trial_end_time	trial_duration	actualEventTimes	plannedEventTimes	date	framerate	marker_vol	RAP_vol
12	1	FALSE	NN	a	['G', 'E', 'M', 'P', 'V', 'C', 'T', 'J', 'W', 'B', 'K', 'U', 'Y', 'A', 'H', 'R']	[944, 904, 1224, 1456, 2245, 829, 1888, 1029, 2448, 760, 1122, 2059, 2670, 697, 986, 1587]	9	Absent	NA	NA	ABSENT	0.8420240879058838	1.9073486328125e-6	1.987144947052002	2.6871549605923244	3.037156867920957	6.103869915008545	4.116724967956543	[0.022244930267333984, 0.12207412719726562, 1.0871939659118652, 1.2731220722198486, 2.023853063583374, 2.140850067138672, 2.2576210498809814, 2.37438702583313, 2.4911000728607178, 2.608031988143921, 2.7249200344085693, 2.841541051864624, 2.958254098892212, 3.075221061706543, 3.1750991344451904, 3.2917819023132324, 3.408653974533081, 3.5254950523376465, 3.6422951221466064, 3.7590980529785156, 3.8928120136260986, 4.103869915008545]	[1.9073486328125e-06, 0.11666857400863281, 1.0996685740086327, 1.2663685740086328, 2.0163685740086326, 2.1330352406686326, 2.2497019073286326, 2.3663685739886327, 2.4830352406486327, 2.5997019073086327, 2.7163685739686327, 2.8330352406286328, 2.949701907288633, 3.066368573948633, 3.183035240608633, 3.299701907268633, 3.416368573928633, 3.533035240588633, 3.649701907248633, 3.766368573908633, 3.883035240568633, 4.116368573901966]	2021_Jan_27_1232	59.93155666436618	1	0.375
12	2	FALSE	NN	a	['T', 'R', 'H', 'K', 'M', 'A', 'N', 'V', 'E', 'Z', 'Y', 'G', 'U', 'C', 'S', 'B']	[1888, 1587, 986, 1122, 1224, 697, 1335, 2245, 904, 2911, 2670, 944, 2059, 829, 1731, 760]	12	Absent	NA	NA	ABSENT	0.8704180717468262	6.089300870895386	8.100538969039917	9.150545883118712	9.500547790447344	12.220237970352173	4.119699001312256	[6.1115429401397705, 6.228513956069946, 7.203558921813965, 7.379756927490234, 8.130515098571777, 8.24742603302002, 8.36397910118103, 8.480777025222778, 8.597718954086304, 8.71443510055542, 8.830994129180908, 8.947942972183228, 9.064894914627075, 9.181627988815308, 9.298434019088745, 9.41543197631836, 9.532074928283691, 9.648858070373535, 9.765605926513672, 9.88243293762207, 9.999231100082397, 10.22023606300354]	[6.116368573901966, 6.233035240561966, 7.216035240561966, 7.382735240561965, 8.132735240561965, 8.249401907221966, 8.366068573881966, 8.482735240541967, 8.599401907201967, 8.716068573861968, 8.832735240521968, 8.949401907181969, 9.066068573841969, 9.18273524050197, 9.29940190716197, 9.41606857382197, 9.532735240481971, 9.649401907141971, 9.766068573801972, 9.882735240461972, 9.999401907121973, 10.232735240455305]	2021_Jan_27_1232	59.93155666436618	1	0.375
12	3	FALSE	NA	a	['B', 'A', 'P', 'G', 'K', 'H', 'S', 'E', 'U', 'W', 'X', 'C', 'N', 'V', 'T', 'R']	[760, 697, 1456, 944, 1122, 986, 1731, 904, 2059, 2448, 4000, 829, 1335, 2245, 1888, 1587]	11	Present	NA	NA	PRESENT	0.7387640476226807	12.21275281906128	14.216818809509276	15.150160249020969	15.5001621563496	18.336604118347168	4.119785308837891	[12.235008001327515, 12.351706981658936, 13.319930076599121, 13.502753019332886, 14.253586053848267, 14.370520114898682, 14.487154960632324, 14.603941917419434, 14.720995903015137, 14.837598085403442, 14.95433497428894, 15.071043968200684, 15.18801212310791, 15.304959058761597, 15.421662092208862, 15.538396120071411, 15.655002117156982, 15.771941900253296, 15.88867712020874, 16.005435943603516, 16.12238097190857, 16.336605072021484]	[12.232735240455305, 12.349401907115306, 13.332401907115306, 13.499101907115307, 14.249101907115307, 14.365768573775307, 14.482435240435308, 14.599101907095308, 14.715768573755309, 14.83243524041531, 14.94910190707531, 15.06576857373531, 15.18243524039531, 15.299101907055311, 15.415768573715312, 15.532435240375312, 15.649101907035313, 15.765768573695313, 15.882435240355314, 15.999101907015314, 16.115768573675314, 16.34910190700865]	2021_Jan_27_1232	59.93155666436618	1	0.375
12	4	FALSE	AA	a	['V', 'J', 'G', 'B', 'Z', 'E', 'T', 'surprise', 'U', 'W', 'X', 'M', 'A', 'P', 'R', 'N']	[2245, 1029, 944, 760, 2911, 904, 1888, 'stimAuditory/all_stimAuditory/112.wav', 2059, 2448, 4000, 1224, 697, 1456, 1587, 1335]	11	Present	stimAuditory/all_stimAuditory/112.wav	NA	ABSENT	1.4722919464111328	18.33600497245789	20.333314895629883	21.266656335141572	21.616658242470205	24.4529709815979	4.119656085968018	[18.358247995376587, 18.45805311203003, 19.436295986175537, 19.6095929145813, 20.3599910736084, 20.476882934570312, 20.593761920928955, 20.71047306060791, 20.82721996307373, 20.943958044052124, 21.0609610080719, 21.17754101753235, 21.294475078582764, 21.411107063293457, 21.52815294265747, 21.644894123077393, 21.761500120162964, 21.8784339427948, 21.995075941085815, 22.11203098297119, 22.228706121444702, 22.4529709815979]	[18.34910190700865, 18.465768573668647, 19.448768573668648, 19.615468573668647, 20.365468573668647, 20.482135240328645, 20.598801906988644, 20.715468573648643, 20.83213524030864, 20.94880190696864, 21.06546857362864, 21.182135240288638, 21.298801906948636, 21.415468573608635, 21.532135240268634, 21.648801906928632, 21.76546857358863, 21.88213524024863, 21.99880190690863, 22.115468573568627, 22.232135240228626, 22.46546857356196]	2021_Jan_27_1232	59.93155666436618	1	0.375
12	5	FALSE	NN	a	['U', 'W', 'P', 'R', 'V', 'B', 'Z', 'J', 'K', 'Y', 'A', 'M', 'H', 'G', 'C', 'E']	[2059, 2448, 1456, 1587, 2245, 760, 2911, 1029, 1122, 2670, 697, 1224, 986, 944, 829, 904]	8	Absent	NA	NA	ABSENT	0.9089109897613524	24.442314863204956	26.44968295097351	27.033025344179517	27.38302725150815	30.569338083267212	4.119655132293701	[24.464558124542236, 24.581207990646362, 25.552662134170532, 25.732528924942017, 26.48329210281372, 26.600045919418335, 26.7167809009552, 26.8336079120636, 26.950298070907593, 27.06725001335144, 27.183865070343018, 27.30086898803711, 27.41774606704712, 27.53453493118286, 27.651160955429077, 27.76809000968933, 27.88477396965027, 28.001629114151, 28.11833691596985, 28.23526906967163, 28.351855039596558, 28.569337129592896]	[24.46546857356196, 24.58213524022196, 25.56513524022196, 25.731835240221958, 26.481835240221958, 26.598501906881957, 26.715168573541956, 26.831835240201954, 26.948501906861953, 27.06516857352195, 27.18183524018195, 27.29850190684195, 27.415168573501948, 27.531835240161946, 27.648501906821945, 27.765168573481944, 27.881835240141942, 27.99850190680194, 28.11516857346194, 28.23183524012194, 28.348501906781937, 28.58183524011527]	2021_Jan_27_1232	59.93155666436618	1	0.375
12	6	FALSE	NV	a	['P', 'W', 'J', 'G', 'R', 'C', 'S', 'A', 'U', 'H', 'E', 'M', 'Z', 'X', 'N', 'K']	[1456, 2448, 1029, 944, 1587, 829, 1731, 697, 2059, 986, 904, 1224, 2911, 4000, 1335, 1122]	14	Present	NA	NA	PRESENT	0.4740571975708008	30.565544843673703	32.56592583656311	33.84926632238049	34.19926822970912	36.68570303916931	4.119777202606201	[30.587788105010986, 30.704576015472412, 31.66902804374695, 31.855642080307007, 32.60643792152405, 32.72346591949463, 32.83996391296387, 32.95699596405029, 33.07359004020691, 33.17355489730835, 33.29042911529541, 33.4071319103241, 33.523967027664185, 33.64075994491577, 33.757548093795776, 33.87434697151184, 33.99114799499512, 34.10790395736694, 34.224738121032715, 34.3414740562439, 34.458357095718384, 34.68570303916931]	[30.58183524011527, 30.69850190677527, 31.68150190677527, 31.84820190677527, 32.59820190677527, 32.714868573435275, 32.83153524009528, 32.94820190675528, 33.06486857341528, 33.181535240075284, 33.29820190673529, 33.41486857339529, 33.53153524005529, 33.64820190671529, 33.764868573375296, 33.8815352400353, 33.9982019066953, 34.1148685733553, 34.231535240015305, 34.34820190667531, 34.46486857333531, 34.69820190666864]	2021_Jan_27_1232	59.93155666436618	1	0.375
12	7	FALSE	NA	a	['A', 'E', 'P', 'U', 'B', 'N', 'C', 'X', 'W', 'T', 'Z', 'R', 'H', 'M', 'V', 'S']	[697, 904, 1456, 2059, 760, 1335, 829, 4000, 2448, 1888, 2911, 1587, 986, 1224, 2245, 1731]	8	Present	NA	NA	PRESENT	0.5584990978240967	36.67201280593872	38.68219590187073	39.265537341402414	39.61553829505673	42.80207109451294	4.119875192642212	[36.694256067276, 36.810949087142944, 37.78539490699768, 37.96225690841675, 38.71281599998474, 38.82969093322754, 38.94673299789429, 39.063292026519775, 39.18000292778015, 39.296924114227295, 39.41405701637268, 39.53057599067688, 39.64721393585205, 39.76406192779541, 39.88092803955078, 39.997658014297485, 40.1143319606781, 40.23123598098755, 40.3480589389801, 40.464903116226196, 40.581587076187134, 40.802069902420044]	[36.69820190666864, 36.814868573328646, 37.79786857332864, 37.96456857332864, 38.71456857332864, 38.831235239988644, 38.947901906648646, 39.06456857330865, 39.18123523996865, 39.29790190662865, 39.414568573288655, 39.53123523994866, 39.64790190660866, 39.76456857326866, 39.881235239928664, 39.997901906588666, 40.11456857324867, 40.23123523990867, 40.34790190656867, 40.464568573228675, 40.58123523988868, 40.81456857322201]	2021_Jan_27_1232	59.93155666436618	1	0.375
12	8	FALSE	NV	a	['W', 'P', 'H', 'G', 'J', 'Z', 'T', 'E', 'Y', 'R', 'C', 'K', 'S', 'X', 'V', 'M']	[2448, 1456, 986, 944, 1029, 2911, 1888, 904, 2670, 1587, 829, 1122, 1731, 4000, 2245, 1224]	14	Present	NA	NA	PRESENT	0.3310408592224121	42.79503798484802	44.79891085624695	46.082251342064325	46.432254203067274	48.91843795776367	4.119527101516724	[42.817281007766724, 42.93415307998657, 43.90176200866699, 44.08537197113037, 44.836018085479736, 44.95314311981201, 45.069741010665894, 45.18652892112732, 45.30359411239624, 45.41999101638794, 45.53693389892578, 45.653696060180664, 45.770358085632324, 45.887346029281616, 46.00397205352783, 46.12089991569519, 46.237653970718384, 46.35431909561157, 46.47123312950134, 46.58795404434204, 46.70480489730835, 46.91843795776367]	[42.81456857322201, 42.931235239882014, 43.91423523988201, 44.08093523988201, 44.83093523988201, 44.94760190654201, 45.064268573202014, 45.180935239862016, 45.29760190652202, 45.41426857318202, 45.53093523984202, 45.647601906502025, 45.76426857316203, 45.88093523982203, 45.99760190648203, 46.114268573142034, 46.23093523980204, 46.34760190646204, 46.46426857312204, 46.58093523978204, 46.697601906442046, 46.93093523977538]	2021_Jan_27_1232	59.93155666436618	1	0.375
12	9	FALSE	NV	a	['C', 'A', 'E', 'B', 'U', 'M', 'K', 'P', 'T', 'S', 'X', 'G', 'N', 'H', 'W', 'V']	[829, 697, 904, 760, 2059, 1224, 1122, 1456, 1888, 1731, 4000, 944, 1335, 986, 2448, 2245]	11	Present	NA	NA	PRESENT	0.424454927444458	48.90148496627808	50.91493797302246	51.84827822044125	52.19828012776989	55.03480410575867	4.119866132736206	[48.92372703552246, 49.040507078170776, 50.01812791824341, 50.19225811958313, 50.94254207611084, 51.059333086013794, 51.17629289627075, 51.29296803474426, 51.409868001937866, 51.526484966278076, 51.64343500137329, 51.76011300086975, 51.87681293487549, 51.993638038635254, 52.11057806015015, 52.2273530960083, 52.34404897689819, 52.46088004112244, 52.577646017074585, 52.69459509849548, 52.811290979385376, 53.03480291366577]	[48.93093523977538, 49.04760190643538, 50.03060190643538, 50.19730190643538, 50.94730190643538, 51.06396857309538, 51.18063523975538, 51.297301906415385, 51.41396857307539, 51.53063523973539, 51.64730190639539, 51.763968573055394, 51.880635239715396, 51.9973019063754, 52.1139685730354, 52.2306352396954, 52.347301906355405, 52.46396857301541, 52.58063523967541, 52.69730190633541, 52.813968572995414, 53.04730190632875]	2021_Jan_27_1232	59.93155666436618	1	0.375
12	10	FALSE	VV	a	['K', 'R', 'U', 'G', 'B', 'surprise', 'J', 'W', 'X', 'S', 'Y', 'C', 'E', 'N', 'M', 'Z']	[1122, 1587, 2059, 944, 760, 'stimAuditory/all_stimAuditory/213.wav', 1029, 2448, 4000, 1731, 2670, 829, 904, 1335, 1224, 2911]	9	Present	NA	NA	ABSENT	1.517030954360962	55.02463579177856	57.03143787384033	57.73144598003202	58.08144788736065	61.1511709690094	4.119733095169067	[55.04688000679016, 55.16378593444824, 56.1344940662384, 56.314945936203, 57.06581497192383, 57.18267202377319, 57.299362897872925, 57.41626000404358, 57.53283905982971, 57.64974308013916, 57.7666220664978, 57.88341307640076, 57.99995803833008, 58.116945028305054, 58.233640909194946, 58.35032391548157, 58.46712398529053, 58.584208965301514, 58.700921058654785, 58.81757593154907, 58.93449091911316, 59.15117001533508]	[55.04730190632875, 55.16396857298875, 56.14696857298875, 56.313668572988746, 57.063668572988746, 57.18033523964875, 57.29700190630875, 57.41366857296875, 57.530335239628755, 57.64700190628876, 57.76366857294876, 57.88033523960876, 57.997001906268764, 58.113668572928766, 58.23033523958877, 58.34700190624877, 58.46366857290877, 58.580335239568775, 58.69700190622878, 58.81366857288878, 58.93033523954878, 59.163668572882116]	2021_Jan_27_1232	59.93155666436618	1	0.375
12	11	FALSE	NV	a	['Y', 'V', 'P', 'H', 'T', 'U', 'N', 'G', 'J', 'X', 'S', 'K', 'A', 'Z', 'W', 'M']	[2670, 2245, 1456, 986, 1888, 2059, 1335, 944, 1029, 4000, 1731, 1122, 697, 2911, 2448, 1224]	10	Present	NA	NA	PRESENT	0.5623810291290283	61.14785599708557	63.14796590805054	63.96464068090223	64.31464258823085	67.26753807067871	4.119572162628174	[61.17010998725891, 61.286914110183716, 62.2508590221405, 62.43829011917114, 63.1888530254364, 63.28892397880554, 63.40564799308777, 63.52248001098633, 63.63923692703247, 63.75610399246216, 63.8729031085968, 63.98969006538391, 64.10648608207703, 64.22326993942261, 64.34009194374084, 64.45690202713013, 64.57358813285828, 64.69056391716003, 64.80725598335266, 64.92418193817139, 65.04098892211914, 65.2675371170044]	[61.163668572882116, 61.28033523954212, 62.263335239542116, 62.430035239542114, 63.180035239542114, 63.29670190620212, 63.41336857286212, 63.53003523952212, 63.64670190618212, 63.763368572842126, 63.88003523950213, 63.99670190616213, 64.11336857282213, 64.23003523948212, 64.34670190614212, 64.46336857280211, 64.5800352394621, 64.6967019061221, 64.8133685727821, 64.93003523944209, 65.04670190610209, 65.28003523943542]	2021_Jan_27_1232	59.93155666436618	1	0.375
12	12	FALSE	NA	a	['P', 'K', 'J', 'A', 'G', 'T', 'M', 'H', 'U', 'Y', 'X', 'Z', 'S', 'C', 'B', 'N']	[1456, 1122, 1029, 697, 944, 1888, 1224, 986, 2059, 2670, 4000, 2911, 1731, 829, 760, 1335]	11	Present	NA	NA	PRESENT	0.8068420886993408	67.25446200370789	69.26413798332214	70.19747918441526	70.54748133016247	73.38390398025513	4.119765996932983	[67.27670502662659, 67.39332890510559, 68.36722707748413, 68.54471397399902, 69.29523992538452, 69.41221594810486, 69.52888011932373, 69.64575409889221, 69.76267910003662, 69.87944793701172, 69.99603295326233, 70.11289691925049, 70.22963500022888, 70.34689807891846, 70.46324610710144, 70.58020091056824, 70.69682908058167, 70.81371903419495, 70.93056392669678, 71.04733109474182, 71.16409707069397, 71.38390493392944]	[67.28003523943542, 67.39670190609542, 68.37970190609542, 68.54640190609543, 69.29640190609543, 69.41306857275542, 69.52973523941542, 69.64640190607541, 69.7630685727354, 69.8797352393954, 69.9964019060554, 70.11306857271539, 70.22973523937539, 70.34640190603538, 70.46306857269538, 70.57973523935537, 70.69640190601537, 70.81306857267536, 70.92973523933536, 71.04640190599535, 71.16306857265535, 71.39640190598868]	2021_Jan_27_1232	59.93155666436618	1	0.375
12	13	FALSE	AV	a	['T', 'M', 'S', 'W', 'N', 'surprise', 'Y', 'C', 'X', 'A', 'Z', 'R', 'K', 'H', 'U', 'V']	[1888, 1224, 1731, 2448, 1335, 'stimAuditory/all_stimAuditory/218.wav', 2670, 829, 4000, 697, 2911, 1587, 1122, 986, 2059, 2245]	9	Present	stimAuditory/all_stimAuditory/213.wav	NA	ABSENT	0.619455099105835	73.37740087509155	75.38042998313904	76.08043785091215	76.43043999665936	79.50027012825012	4.119840145111084	[73.39964389801025, 73.51650190353394, 74.48359394073486, 74.66770505905151, 75.41850209236145, 75.53533601760864, 75.65224194526672, 75.769033908844, 75.8858859539032, 76.00239992141724, 76.1192889213562, 76.23606300354004, 76.35291504859924, 76.46966505050659, 76.586599111557, 76.70340991020203, 76.8200900554657, 76.93691611289978, 77.05382299423218, 77.17046213150024, 77.28720307350159, 77.50027108192444]	[73.39640190598868, 73.51306857264868, 74.49606857264868, 74.66276857264869, 75.41276857264869, 75.52943523930868, 75.64610190596868, 75.76276857262867, 75.87943523928867, 75.99610190594866, 76.11276857260866, 76.22943523926865, 76.34610190592865, 76.46276857258864, 76.57943523924864, 76.69610190590863, 76.81276857256863, 76.92943523922862, 77.04610190588862, 77.16276857254861, 77.27943523920861, 77.51276857254194]	2021_Jan_27_1232	59.93155666436618	1	0.375
12	14	FALSE	NV	a	['U', 'N', 'P', 'C', 'V', 'Y', 'K', 'X', 'Z', 'J', 'G', 'R', 'S', 'E', 'W', 'M']	[2059, 1335, 1456, 829, 2245, 2670, 1122, 4000, 2911, 1029, 944, 1587, 1731, 904, 2448, 1224]	8	Present	NA	NA	PRESENT	0.32086896896362305	79.48391199111938	81.49697279930115	82.08031423883284	82.43031614616147	85.61663794517517	4.119665145874023	[79.50616812705994, 79.62291598320007, 80.59996008872986, 80.77463412284851, 81.52487993240356, 81.64197897911072, 81.75869297981262, 81.87544393539429, 81.99205899238586, 82.10905909538269, 82.22595310211182, 82.34264898300171, 82.45936012268066, 82.57626605033875, 82.69296097755432, 82.80996203422546, 82.92670893669128, 83.04351091384888, 83.1601231098175, 83.27710795402527, 83.39364004135132, 83.61663699150085]	[79.51276857254194, 79.62943523920194, 80.61243523920194, 80.77913523920195, 81.52913523920195, 81.64580190586194, 81.76246857252194, 81.87913523918193, 81.99580190584193, 82.11246857250192, 82.22913523916192, 82.34580190582192, 82.46246857248191, 82.5791352391419, 82.6958019058019, 82.8124685724619, 82.92913523912189, 83.04580190578189, 83.16246857244188, 83.27913523910188, 83.39580190576187, 83.6291352390952]	2021_Jan_27_1232	59.93155666436618	1	0.375
12	15	FALSE	NV	a	['P', 'S', 'W', 'E', 'Y', 'C', 'T', 'H', 'N', 'U', 'R', 'X', 'M', 'A', 'G', 'Z']	[1456, 1731, 2448, 904, 2670, 829, 1888, 986, 1335, 2059, 1587, 4000, 1224, 697, 944, 2911]	12	Present	NA	NA	PRESENT	0.301332950592041	85.60719084739685	87.61311793327332	88.66312580102642	89.01312794677364	91.73300409317017	4.119886159896851	[85.62943410873413, 85.74618601799011, 86.71632790565491, 86.89765095710754, 87.64818000793457, 87.76512598991394, 87.88198900222778, 87.9986960887909, 88.11537504196167, 88.23233199119568, 88.34892106056213, 88.46576309204102, 88.58256912231445, 88.6992359161377, 88.81614303588867, 88.93303489685059, 89.04986000061035, 89.16643691062927, 89.28324794769287, 89.3999650478363, 89.51681590080261, 89.73300290107727]	[85.6291352390952, 85.7458019057552, 86.7288019057552, 86.89550190575521, 87.64550190575521, 87.7621685724152, 87.8788352390752, 87.9955019057352, 88.11216857239519, 88.22883523905519, 88.34550190571518, 88.46216857237518, 88.57883523903517, 88.69550190569517, 88.81216857235516, 88.92883523901516, 89.04550190567515, 89.16216857233515, 89.27883523899514, 89.39550190565514, 89.51216857231513, 89.74550190564847]	2021_Jan_27_1232	59.93155666436618	1	0.375
12	16	FALSE	NV	a	['E', 'S', 'J', 'C', 'H', 'Z', 'U', 'N', 'B', 'T', 'M', 'V', 'X', 'R', 'W', 'A']	[904, 1731, 1029, 829, 986, 2911, 2059, 1335, 760, 1888, 1224, 2245, 4000, 1587, 2448, 697]	13	Present	NA	NA	PRESENT	0.5306689739227295	91.730712890625	93.72960495948792	94.89628044757534	95.24628259332256	97.8493709564209	4.119765996932983	[91.75295805931091, 91.86942601203918, 92.83269596099854, 93.02062106132507, 93.77140998840332, 93.8714509010315, 93.98814010620117, 94.10502290725708, 94.22182202339172, 94.33857893943787, 94.45542907714844, 94.57237911224365, 94.68917393684387, 94.80588293075562, 94.92249298095703, 95.03954696655273, 95.15614295005798, 95.27320408821106, 95.3899199962616, 95.50661110877991, 95.62341809272766, 95.84937191009521]	[91.74550190564847, 91.86216857230846, 92.84516857230847, 93.01186857230847, 93.76186857230847, 93.87853523896847, 93.99520190562846, 94.11186857228846, 94.22853523894845, 94.34520190560845, 94.46186857226844, 94.57853523892844, 94.69520190558843, 94.81186857224843, 94.92853523890842, 95.04520190556842, 95.16186857222841, 95.27853523888841, 95.3952019055484, 95.5118685722084, 95.6285352388684, 95.86186857220173]	2021_Jan_27_1232	59.93155666436618	1	0.375
12	17	FALSE	NA	a	['C', 'W', 'U', 'H', 'B', 'G', 'N', 'M', 'V', 'X', 'R', 'P', 'Y', 'E', 'Z', 'J']	[829, 2448, 2059, 986, 760, 944, 1335, 1224, 2245, 4000, 1587, 1456, 2670, 904, 2911, 1029]	10	Present	NA	NA	PRESENT	0.8552820682525635	97.83669090270996	99.84600400924684	100.6626775900056	101.01268045100856	103.9657371044159	4.119733095169067	[97.85893392562866, 97.97571301460266, 98.94906210899353, 99.12707805633545, 99.87779903411865, 99.99472308158875, 100.11157608032227, 100.22828102111816, 100.34515595436096, 100.46173691749573, 100.57868599891663, 100.69551110267639, 100.81222200393677, 100.92915892601013, 101.04595494270325, 101.16257500648499, 101.27943396568298, 101.39662003517151, 101.51293611526489, 101.62983298301697, 101.74658012390137, 101.96573901176453]	[97.86186857220173, 97.97853523886172, 98.96153523886173, 99.12823523886173, 99.87823523886173, 99.99490190552173, 100.11156857218172, 100.22823523884172, 100.34490190550171, 100.46156857216171, 100.5782352388217, 100.6949019054817, 100.8115685721417, 100.92823523880169, 101.04490190546169, 101.16156857212168, 101.27823523878168, 101.39490190544167, 101.51156857210167, 101.62823523876166, 101.74490190542166, 101.97823523875499]	2021_Jan_27_1232	59.93155666436618	1	0.375
12	18	FALSE	NV	a	['J', 'K', 'H', 'Z', 'Y', 'B', 'S', 'C', 'E', 'X', 'G', 'R', 'T', 'P', 'M', 'V']	[1029, 1122, 986, 2911, 2670, 760, 1731, 829, 904, 4000, 944, 1587, 1888, 1456, 1224, 2245]	10	Present	NA	NA	PRESENT	0.47564196586608887	103.9602029323578	105.9623999595642	106.77907544767164	107.12907759341884	110.08210301399232	4.119703054428101	[103.98244595527649, 104.09910607337952, 105.06542706489563, 105.25031208992004, 106.00099110603333, 106.11777091026306, 106.23475098609924, 106.3515031337738, 106.46828889846802, 106.58489203453064, 106.70185589790344, 106.8189709186554, 106.9353199005127, 107.05229711532593, 107.16903901100159, 107.28565001487732, 107.40255999565125, 107.51955008506775, 107.63607811927795, 107.75280499458313, 107.86977005004883, 108.08210396766663]	[103.97823523875499, 104.09490190541499, 105.07790190541499, 105.244601905415, 105.994601905415, 106.11126857207499, 106.22793523873499, 106.34460190539498, 106.46126857205498, 106.57793523871497, 106.69460190537497, 106.81126857203496, 106.92793523869496, 107.04460190535495, 107.16126857201495, 107.27793523867494, 107.39460190533494, 107.51126857199493, 107.62793523865493, 107.74460190531492, 107.86126857197492, 108.09460190530825]	2021_Jan_27_1232	59.93155666436618	1	0.375
12	19	FALSE	NV	a	['J', 'V', 'N', 'B', 'E', 'T', 'W', 'K', 'U', 'X', 'A', 'G', 'S', 'M', 'C', 'R']	[1029, 2245, 1335, 760, 904, 1888, 2448, 1122, 2059, 4000, 697, 944, 1731, 1224, 829, 1587]	10	Present	NA	NA	ABSENT	1.632899045944214	110.06639981269836	112.07862091064452	112.89529568349622	113.24529759082483	116.19847011566162	4.11984920501709	[110.0886640548706, 110.20539712905884, 111.18179392814636, 111.35698699951172, 112.10745596885681, 112.22429895401001, 112.34120607376099, 112.45800399780273, 112.57461905479431, 112.6915819644928, 112.80827808380127, 112.9251561164856, 113.04184293746948, 113.15880608558655, 113.27544498443604, 113.39218997955322, 113.50901007652283, 113.62584710121155, 113.74264407157898, 113.85927104949951, 113.9761950969696, 114.19847011566162]	[110.09460190530825, 110.21126857196825, 111.19426857196825, 111.36096857196826, 112.11096857196826, 112.22763523862825, 112.34430190528825, 112.46096857194824, 112.57763523860824, 112.69430190526823, 112.81096857192823, 112.92763523858822, 113.04430190524822, 113.16096857190821, 113.27763523856821, 113.3943019052282, 113.5109685718882, 113.6276352385482, 113.74430190520819, 113.86096857186818, 113.97763523852818, 114.21096857186151]	2021_Jan_27_1232	59.93155666436618	1	0.375
12	20	FALSE	NA	a	['P', 'G', 'N', 'H', 'A', 'Y', 'T', 'E', 'V', 'X', 'Z', 'C', 'M', 'K', 'S', 'R']	[1456, 944, 1335, 986, 697, 2670, 1888, 904, 2245, 4000, 2911, 829, 1224, 1122, 1731, 1587]	10	Present	NA	NA	ABSENT	1.3335530757904053	116.1895158290863	118.19509291648863	119.01176745092177	119.36176959666896	122.31483793258668	4.1197450160980225	[116.21175909042358, 116.32871890068054, 117.29815912246704, 117.47997498512268, 118.23070192337036, 118.34756302833557, 118.4643189907074, 118.58117890357971, 118.69789505004883, 118.81461310386658, 118.93164610862732, 119.0482349395752, 119.16505789756775, 119.2819550037384, 119.3987410068512, 119.51538109779358, 119.63236403465271, 119.7490770816803, 119.86589002609253, 119.98261094093323, 120.09933400154114, 120.31483912467957]	[116.21096857186151, 116.32763523852151, 117.31063523852151, 117.47733523852152, 118.22733523852152, 118.34400190518151, 118.46066857184151, 118.5773352385015, 118.6940019051615, 118.8106685718215, 118.92733523848149, 119.04400190514149, 119.16066857180148, 119.27733523846148, 119.39400190512147, 119.51066857178147, 119.62733523844146, 119.74400190510146, 119.86066857176145, 119.97733523842145, 120.09400190508144, 120.32733523841478]	2021_Jan_27_1232	59.93155666436618	1	0.375
12	21	FALSE	NN	a	['A', 'S', 'U', 'E', 'R', 'H', 'G', 'J', 'C', 'Y', 'B', 'V', 'N', 'Z', 'K', 'W']	[697, 1731, 2059, 904, 1587, 986, 944, 1029, 829, 2670, 760, 2245, 1335, 2911, 1122, 2448]	8	Absent	NA	NA	PRESENT	1.2588889598846436	122.3126449584961	124.31133484840392	124.89467724160994	125.24467819526426	128.4312040805817	4.119869232177734	[122.3348879814148, 122.4520161151886, 123.41452598571777, 123.58628797531128, 124.35398411750793, 124.45387291908264, 124.57067894935608, 124.6876130104065, 124.80434012413025, 124.92122411727905, 125.03783011436462, 125.15482306480408, 125.2715699672699, 125.3884630203247, 125.50504112243652, 125.62194895744324, 125.73856592178345, 125.85555696487427, 125.97219395637512, 126.08920192718506, 126.2058470249176, 126.43120408058167]	[122.32733523841478, 122.44400190507477, 123.42700190507477, 123.59370190507478, 124.34370190507478, 124.46036857173478, 124.57703523839477, 124.69370190505477, 124.81036857171476, 124.92703523837476, 125.04370190503475, 125.16036857169475, 125.27703523835474, 125.39370190501474, 125.51036857167473, 125.62703523833473, 125.74370190499472, 125.86036857165472, 125.97703523831471, 126.09370190497471, 126.2103685716347, 126.44370190496804]	2021_Jan_27_1232	59.93155666436618	1	0.375
12	22	FALSE	NV	a	['S', 'Z', 'R', 'G', 'W', 'K', 'H', 'T', 'J', 'N', 'V', 'X', 'Y', 'C', 'E', 'B']	[1731, 2911, 1587, 944, 2448, 1122, 986, 1888, 1029, 1335, 2245, 4000, 2670, 829, 904, 760]	12	Present	NA	NA	PRESENT	0.3675138950347901	128.4192090034485	130.42802691459656	131.47803478234968	131.82803692809688	134.54756999015808	4.119543075561523	[128.4414520263672, 128.5582411289215, 129.5308940410614, 129.70958495140076, 130.4602611064911, 130.577241897583, 130.6939070224762, 130.81070804595947, 130.9275689125061, 131.0444519519806, 131.16111207008362, 131.27800393104553, 131.39506602287292, 131.51162791252136, 131.62819504737854, 131.7450680732727, 131.86182808876038, 131.97850012779236, 132.0954360961914, 132.21202397346497, 132.32905101776123, 132.54756999015808]	[128.44370190496804, 128.56036857162803, 129.54336857162804, 129.71006857162803, 130.46006857162803, 130.57673523828802, 130.69340190494802, 130.810068571608, 130.926735238268, 131.043401904928, 131.160068571588, 131.276735238248, 131.393401904908, 131.51006857156798, 131.62673523822798, 131.74340190488797, 131.86006857154797, 131.97673523820797, 132.09340190486796, 132.21006857152796, 132.32673523818795, 132.56006857152127]	2021_Jan_27_1232	59.93155666436618	1	0.375
12	23	FALSE	NA	a	['Y', 'V', 'T', 'R', 'P', 'Z', 'B', 'K', 'J', 'M', 'A', 'E', 'X', 'W', 'H', 'C']	[2670, 2245, 1888, 1587, 1456, 2911, 760, 1122, 1029, 1224, 697, 904, 4000, 2448, 986, 829]	13	Present	NA	NA	ABSENT	1.2128710746765137	134.54262280464172	136.54420685768127	137.71088163051297	138.0608835378416	140.6639380455017	4.119731187820435	[134.56488704681396, 134.6816599369049, 135.64726400375366, 135.8326380252838, 136.58355593681335, 136.70017504692078, 136.81711792945862, 136.93404698371887, 137.05071210861206, 137.16747498512268, 137.28425812721252, 137.4010660648346, 137.517982006073, 137.63460111618042, 137.75160312652588, 137.8682849407196, 137.98510313034058, 138.10190892219543, 138.20179510116577, 138.31856393814087, 138.43535590171814, 138.6639370918274]	[134.56006857152127, 134.67673523818127, 135.65973523818127, 135.82643523818126, 136.57643523818126, 136.69310190484126, 136.80976857150125, 136.92643523816125, 137.04310190482124, 137.15976857148124, 137.27643523814123, 137.39310190480123, 137.50976857146122, 137.62643523812122, 137.7431019047812, 137.8597685714412, 137.9764352381012, 138.0931019047612, 138.2097685714212, 138.3264352380812, 138.44310190474118, 138.6764352380745]	2021_Jan_27_1232	59.93155666436618	1	0.375
12	24	FALSE	NA	a	['C', 'M', 'S', 'K', 'T', 'W', 'H', 'X', 'A', 'Y', 'B', 'E', 'G', 'P', 'V', 'J']	[829, 1224, 1731, 1122, 1888, 2448, 986, 4000, 697, 2670, 760, 904, 944, 1456, 2245, 1029]	8	Present	NA	NA	PRESENT	1.737096071243286	140.64883184432983	142.66065979003906	143.24400218324507	143.59400432899227	146.7803030014038	4.119643211364746	[140.67107510566711, 140.78801012039185, 141.76362895965576, 141.939532995224, 142.6899299621582, 142.80691409111023, 142.92365312576294, 143.0405309200287, 143.15715408325195, 143.27399492263794, 143.3907790184021, 143.50746202468872, 143.6242799758911, 143.74127912521362, 143.85795903205872, 143.97482204437256, 144.09147095680237, 144.20839309692383, 144.325110912323, 144.44183707237244, 144.55881094932556, 144.7803030014038]	[140.6764352380745, 140.7931019047345, 141.7761019047345, 141.9428019047345, 142.6928019047345, 142.8094685713945, 142.92613523805448, 143.04280190471448, 143.15946857137448, 143.27613523803447, 143.39280190469447, 143.50946857135446, 143.62613523801446, 143.74280190467445, 143.85946857133445, 143.97613523799444, 144.09280190465444, 144.20946857131443, 144.32613523797443, 144.44280190463442, 144.55946857129442, 144.79280190462774]	2021_Jan_27_1232	59.93155666436618	1	0.375
12	25	FALSE	VA	a	['K', 'H', 'Z', 'A', 'G', 'J', 'surprise', 'N', 'U', 'X', 'T', 'E', 'M', 'R', 'P', 'V']	[1122, 986, 2911, 697, 944, 1029, 'stimAuditory/all_stimAuditory/202.wav', 1335, 2059, 4000, 1888, 904, 1224, 1587, 1456, 2245]	10	Present	NA	NA	ABSENT	0.6380090713500977	146.7722728252411	148.7768168449402	149.59349161779187	149.94349352512052	152.89667105674744	4.119854211807251	[146.79451513290405, 146.91125202178955, 147.87999510765076, 148.06225609779358, 148.8131079673767, 148.9300560951233, 149.04702401161194, 149.16355800628662, 149.2803590297699, 149.39707899093628, 149.51389503479004, 149.63089394569397, 149.74767303466797, 149.86425495147705, 149.9811840057373, 150.09781694412231, 150.21480011940002, 150.33148097991943, 150.44837594032288, 150.56495308876038, 150.68173003196716, 150.89667201042175]	[146.79280190462774, 146.90946857128773, 147.89246857128774, 148.05916857128773, 148.80916857128773, 148.92583523794772, 149.04250190460772, 149.1591685712677, 149.2758352379277, 149.3925019045877, 149.5091685712477, 149.6258352379077, 149.7425019045677, 149.85916857122768, 149.97583523788768, 150.09250190454767, 150.20916857120767, 150.32583523786766, 150.44250190452766, 150.55916857118766, 150.67583523784765, 150.90916857118097]	2021_Jan_27_1232	59.93155666436618	1	0.375
12	26	FALSE	NV	a	['P', 'G', 'V', 'S', 'K', 'U', 'N', 'H', 'A', 'X', 'B', 'Z', 'C', 'W', 'Y', 'T']	[1456, 944, 2245, 1731, 1122, 2059, 1335, 986, 697, 4000, 760, 2911, 829, 2448, 2670, 1888]	10	Present	NA	NA	ABSENT	0.6910698413848877	152.89542889595032	154.89329385757446	155.70996767675183	156.05996958408048	159.01303791999817	4.119744062423706	[152.91767191886902, 153.03449010849, 153.9963629245758, 154.16873598098755, 154.93658995628357, 155.03654599189758, 155.15329909324646, 155.27009105682373, 155.38673090934753, 155.50367498397827, 155.62034511566162, 155.73726391792297, 155.85392093658447, 155.97094893455505, 156.08752012252808, 156.20446300506592, 156.3210690021515, 156.438050031662, 156.5547230243683, 156.67143297195435, 156.7884271144867, 157.01303696632385]	[152.90916857118097, 153.02583523784097, 154.00883523784097, 154.17553523784096, 154.92553523784096, 155.04220190450096, 155.15886857116095, 155.27553523782095, 155.39220190448094, 155.50886857114094, 155.62553523780093, 155.74220190446093, 155.85886857112092, 155.97553523778092, 156.0922019044409, 156.2088685711009, 156.3255352377609, 156.4422019044209, 156.5588685710809, 156.6755352377409, 156.79220190440088, 157.0255352377342]	2021_Jan_27_1232	59.93155666436618	1	0.375
12	27	FALSE	NN	a	['H', 'R', 'Y', 'S', 'U', 'A', 'P', 'J', 'G', 'M', 'E', 'V', 'B', 'N', 'K', 'C']	[986, 1587, 2670, 1731, 2059, 697, 1456, 1029, 944, 1224, 904, 2245, 760, 1335, 1122, 829]	9	Absent	NA	NA	ABSENT	0.5677340030670166	159.0020048618317	161.00956797599792	161.70957489009672	162.05957679742536	165.12940406799316	4.119836091995239	[159.02424812316895, 159.1408669948578, 160.11272811889648, 160.2920970916748, 161.04293513298035, 161.1597809791565, 161.276447057724, 161.39348196983337, 161.51003503799438, 161.6267490386963, 161.7435920238495, 161.8603711128235, 161.97727608680725, 162.09379696846008, 162.21069812774658, 162.32751607894897, 162.44438290596008, 162.5610671043396, 162.67801213264465, 162.7945830821991, 162.9115650653839, 163.12940311431885]	[159.0255352377342, 159.1422019043942, 160.1252019043942, 160.2919019043942, 161.0419019043942, 161.1585685710542, 161.27523523771418, 161.39190190437418, 161.50856857103417, 161.62523523769417, 161.74190190435417, 161.85856857101416, 161.97523523767416, 162.09190190433415, 162.20856857099415, 162.32523523765414, 162.44190190431414, 162.55856857097413, 162.67523523763413, 162.79190190429412, 162.90856857095412, 163.14190190428744]	2021_Jan_27_1232	59.93155666436618	1	0.375
12	28	FALSE	NV	a	['B', 'A', 'S', 'G', 'H', 'R', 'U', 'V', 'T', 'Z', 'P', 'X', 'W', 'M', 'J', 'N']	[760, 697, 1731, 944, 986, 1587, 2059, 2245, 1888, 2911, 1456, 4000, 2448, 1224, 1029, 1335]	12	Present	NA	NA	PRESENT	0.33318519592285156	165.12490582466123	167.1260278224945	168.1760349749919	168.5260368823205	171.24576997756958	4.119742155075073	[165.14715003967285, 165.26397800445557, 166.2290940284729, 166.41530108451843, 167.16613507270813, 167.28279995918274, 167.39960598945618, 167.51630306243896, 167.63303899765015, 167.75002312660217, 167.8669400215149, 167.98376893997192, 168.08353400230408, 168.20032501220703, 168.31714296340942, 168.43385100364685, 168.5506489276886, 168.66749596595764, 168.7842891216278, 168.90104699134827, 169.01788806915283, 169.2457709312439]	[165.14190190428744, 165.25856857094743, 166.24156857094744, 166.40826857094743, 167.15826857094743, 167.27493523760742, 167.39160190426742, 167.5082685709274, 167.6249352375874, 167.7416019042474, 167.8582685709074, 167.9749352375674, 168.0916019042274, 168.20826857088738, 168.32493523754738, 168.44160190420737, 168.55826857086737, 168.67493523752736, 168.79160190418736, 168.90826857084735, 169.02493523750735, 169.25826857084067]	2021_Jan_27_1232	59.93155666436618	1	0.375
12	29	FALSE	NV	a	['U', 'S', 'G', 'B', 'C', 'A', 'J', 'W', 'X', 'Y', 'P', 'N', 'K', 'T', 'V', 'H']	[2059, 1731, 944, 760, 829, 697, 1029, 2448, 4000, 2670, 1456, 1335, 1122, 1888, 2245, 986]	9	Present	NA	NA	ABSENT	1.5453839302062988	171.23139095306396	173.24244379997253	173.94245190616422	174.29245381349287	177.3621380329132	4.119694232940674	[171.25363492965698, 171.37084794044495, 172.34546494483948, 172.52181911468506, 173.27239608764648, 173.38943910598755, 173.50603699684143, 173.62296295166016, 173.7396969795227, 173.856605052948, 173.97319912910461, 174.08995509147644, 174.20680212974548, 174.32344102859497, 174.44049191474915, 174.55725407600403, 174.67404890060425, 174.79070591926575, 174.90758204460144, 175.02445697784424, 175.14117693901062, 175.3621380329132]	[171.25826857084067, 171.37493523750067, 172.35793523750067, 172.52463523750066, 173.27463523750066, 173.39130190416066, 173.50796857082065, 173.62463523748065, 173.74130190414064, 173.85796857080064, 173.97463523746063, 174.09130190412063, 174.20796857078062, 174.32463523744062, 174.4413019041006, 174.5579685707606, 174.6746352374206, 174.7913019040806, 174.9079685707406, 175.0246352374006, 175.14130190406058, 175.3746352373939]	2021_Jan_27_1232	59.93155666436618	1	0.375
12	30	FALSE	NV	a	['M', 'V', 'W', 'H', 'J', 'K', 'R', 'S', 'T', 'X', 'B', 'P', 'G', 'U', 'C', 'N']	[1224, 2245, 2448, 986, 1029, 1122, 1587, 1731, 1888, 4000, 760, 1456, 944, 2059, 829, 1335]	10	Present	NA	NA	ABSENT	0.7176380157470703	177.3546018600464	179.35891890525818	180.17559367810983	180.5255955854385	183.4785039424896	4.119585037231445	[177.3768560886383, 177.49383807182312, 178.46182799339294, 178.6449100971222, 179.39563012123108, 179.5126130580902, 179.62936997413635, 179.74615097045898, 179.863028049469, 179.97961711883545, 180.09633803367615, 180.21324706077576, 180.33004713058472, 180.44667506217957, 180.56368708610535, 180.68045592308044, 180.79698991775513, 180.91398191452026, 181.0308599472046, 181.14744591712952, 181.26428890228271, 181.47850489616394]	[177.3746352373939, 177.4913019040539, 178.4743019040539, 178.6410019040539, 179.3910019040539, 179.5076685707139, 179.62433523737388, 179.74100190403388, 179.85766857069387, 179.97433523735387, 180.09100190401386, 180.20766857067386, 180.32433523733386, 180.44100190399385, 180.55766857065385, 180.67433523731384, 180.79100190397384, 180.90766857063383, 181.02433523729383, 181.14100190395382, 181.25766857061382, 181.49100190394714]	2021_Jan_27_1232	59.93155666436618	1	0.375
12	31	FALSE	NV	a	['G', 'E', 'R', 'B', 'P', 'S', 'J', 'V', 'N', 'H', 'X', 'Z', 'K', 'A', 'C', 'T']	[944, 904, 1587, 760, 1456, 1731, 1029, 2245, 1335, 986, 4000, 2911, 1122, 697, 829, 1888]	11	Present	NA	NA	ABSENT	1.0592701435089111	183.47796297073364	185.4750289916992	186.408369239118	186.75837114644665	189.59487104415896	4.119842052459717	[183.50020599365234, 183.60004091262817, 184.57819509506226, 184.75145292282104, 185.50209593772888, 185.61899209022522, 185.73560500144958, 185.85260796546936, 185.96944212913513, 186.08630108833313, 186.20290207862854, 186.31985306739807, 186.43644905090332, 186.55332207679749, 186.6700620651245, 186.78681707382202, 186.90363907814026, 187.02030205726624, 187.13714003562927, 187.25413703918457, 187.3707721233368, 187.59487009048462]	[183.49100190394714, 183.60766857060713, 184.59066857060714, 184.75736857060713, 185.50736857060713, 185.62403523726712, 185.74070190392712, 185.8573685705871, 185.9740352372471, 186.0907019039071, 186.2073685705671, 186.3240352372271, 186.4407019038871, 186.55736857054708, 186.67403523720708, 186.79070190386707, 186.90736857052707, 187.02403523718706, 187.14070190384706, 187.25736857050705, 187.37403523716705, 187.60736857050037]	2021_Jan_27_1232	59.93155666436618	1	0.375
12	32	FALSE	NA	a	['V', 'E', 'W', 'G', 'B', 'R', 'Z', 'P', 'H', 'A', 'C', 'Y', 'J', 'X', 'K', 'U']	[2245, 904, 2448, 944, 760, 1587, 2911, 1456, 986, 697, 829, 2670, 1029, 4000, 1122, 2059]	14	Present	NA	NA	PRESENT	1.1757869720458984	189.5842728614807	191.5915448665619	192.8748872597279	193.22488916705652	195.71123790740967	4.119693040847778	[189.606516122818, 189.72348594665527, 190.69456100463867, 190.87446808815002, 191.62564897537231, 191.74218893051147, 191.8590099811554, 191.9757809638977, 192.09266805648804, 192.20938897132874, 192.32617807388306, 192.44294500350952, 192.559739112854, 192.67631793022156, 192.7932529449463, 192.91013407707214, 193.02693390846252, 193.14356112480164, 193.26052808761597, 193.37714004516602, 193.494136095047, 193.71123695373535]	[189.60736857050037, 189.72403523716036, 190.70703523716037, 190.87373523716036, 191.62373523716036, 191.74040190382036, 191.85706857048035, 191.97373523714035, 192.09040190380034, 192.20706857046034, 192.32373523712033, 192.44040190378033, 192.55706857044032, 192.67373523710032, 192.7904019037603, 192.9070685704203, 193.0237352370803, 193.1404019037403, 193.2570685704003, 193.3737352370603, 193.49040190372028, 193.7237352370536]	2021_Jan_27_1232	59.93155666436618	1	0.375
12	33	FALSE	AV	a	['C', 'V', 'K', 'U', 'N', 'E', 'R', 'P', 'surprise', 'H', 'Z', 'X', 'Y', 'G', 'B', 'W']	[829, 2245, 1122, 2059, 1335, 904, 1587, 1456, 'stimAuditory/all_stimAuditory/217.wav', 986, 2911, 4000, 2670, 944, 760, 2448]	12	Present	stimAuditory/all_stimAuditory/218.wav	NA	ABSENT	0.5253109931945801	195.70748901367188	197.70777797698975	198.75778489106855	199.10778679839717	201.82760405540463	4.119826078414917	[195.72973203659058, 195.8464720249176, 196.81093001365662, 196.99785113334656, 197.74870109558105, 197.8651909828186, 197.9821960926056, 198.08212208747864, 198.19896411895752, 198.31574606895447, 198.43243193626404, 198.5492069721222, 198.66598892211914, 198.78281497955322, 198.8995819091797, 199.01635313034058, 199.13324999809265, 199.2499771118164, 199.3667769432068, 199.48358511924744, 199.60050892829895, 199.82760310173035]	[195.7237352370536, 195.8404019037136, 196.8234019037136, 196.9901019037136, 197.7401019037136, 197.8567685703736, 197.97343523703358, 198.09010190369358, 198.20676857035357, 198.32343523701357, 198.44010190367356, 198.55676857033356, 198.67343523699356, 198.79010190365355, 198.90676857031355, 199.02343523697354, 199.14010190363354, 199.25676857029353, 199.37343523695353, 199.49010190361352, 199.60676857027352, 199.84010190360684]	2021_Jan_27_1232	59.93155666436618	1	0.375
12	34	FALSE	NN	a	['A', 'N', 'B', 'K', 'U', 'W', 'H', 'T', 'E', 'G', 'M', 'J', 'Y', 'C', 'R', 'Z']	[697, 1335, 760, 1122, 2059, 2448, 986, 1888, 904, 944, 1224, 1029, 2670, 829, 1587, 2911]	14	Absent	NA	NA	ABSENT	0.8099310398101807	201.814190864563	203.82425785064697	205.1075992901387	205.45760119746728	207.9439709186554	4.119713068008423	[201.83643507957458, 201.95310401916504, 202.9272940158844, 203.10414910316467, 203.85500502586365, 203.97187900543213, 204.08855891227722, 204.20529198646545, 204.32230401039124, 204.43896794319153, 204.55585098266602, 204.67240691184998, 204.78933095932007, 204.9059910774231, 205.02290606498718, 205.13963508605957, 205.25657105445862, 205.3732349872589, 205.49014902114868, 205.60677099227905, 205.7236499786377, 205.9439721107483]	[201.84010190360684, 201.95676857026683, 202.93976857026684, 203.10646857026683, 203.85646857026683, 203.97313523692682, 204.08980190358682, 204.2064685702468, 204.3231352369068, 204.4398019035668, 204.5564685702268, 204.6731352368868, 204.7898019035468, 204.90646857020678, 205.02313523686678, 205.13980190352677, 205.25646857018677, 205.37313523684676, 205.48980190350676, 205.60646857016675, 205.72313523682675, 205.95646857016007]	2021_Jan_27_1232	59.93155666436618	1	0.375
12	35	FALSE	NV	a	['J', 'V', 'T', 'Y', 'P', 'R', 'H', 'W', 'U', 'K', 'S', 'A', 'X', 'Z', 'C', 'B']	[1029, 2245, 1888, 2670, 1456, 1587, 986, 2448, 2059, 1122, 1731, 697, 4000, 2911, 829, 760]	13	Present	NA	NA	ABSENT	0.7022190093994141	207.93728685379028	209.94051885604856	211.10719362888028	211.4571955362089	214.0603380203247	4.119819164276123	[207.95954203605652, 208.07627701759338, 209.04366302490234, 209.22745490074158, 209.9782431125641, 210.09508609771729, 210.21187710762024, 210.32843589782715, 210.44525790214539, 210.5622320175171, 210.67896699905396, 210.79552602767944, 210.91247391700745, 211.02930092811584, 211.14615607261658, 211.26292300224304, 211.38004612922668, 211.49633312225342, 211.61328601837158, 211.73023390769958, 211.8469409942627, 212.0603370666504]	[207.95646857016007, 208.07313523682006, 209.05613523682007, 209.22283523682006, 209.97283523682006, 210.08950190348006, 210.20616857014005, 210.32283523680005, 210.43950190346004, 210.55616857012004, 210.67283523678003, 210.78950190344003, 210.90616857010002, 211.02283523676002, 211.13950190342, 211.25616857008, 211.37283523674, 211.4895019034, 211.60616857006, 211.72283523672, 211.83950190337998, 212.0728352367133]	2021_Jan_27_1232	59.93155666436618	1	0.375
12	36	FALSE	NA	a	['V', 'R', 'Z', 'J', 'A', 'N', 'M', 'K', 'P', 'W', 'G', 'B', 'X', 'Y', 'E', 'C']	[2245, 1587, 2911, 1029, 697, 1335, 1224, 1122, 1456, 2448, 944, 760, 4000, 2670, 904, 829]	13	Present	NA	NA	PRESENT	0.33955907821655273	214.04351091384888	216.0571048259735	217.2237795988052	217.57378150613383	220.17670392990112	4.119599103927612	[214.0657660961151, 214.18257999420166, 215.16002702713013, 215.3336889743805, 216.08452010154724, 216.20155692100525, 216.3182349205017, 216.43499994277954, 216.55194807052612, 216.66848301887512, 216.7853879928589, 216.90203404426575, 217.01889300346375, 217.13561701774597, 217.25258493423462, 217.36921906471252, 217.48615312576294, 217.60278606414795, 217.71979808807373, 217.83642601966858, 217.95346403121948, 218.1767029762268]	[214.0728352367133, 214.1895019033733, 215.1725019033733, 215.3392019033733, 216.0892019033733, 216.2058685700333, 216.32253523669328, 216.43920190335328, 216.55586857001327, 216.67253523667327, 216.78920190333326, 216.90586856999326, 217.02253523665325, 217.13920190331325, 217.25586856997325, 217.37253523663324, 217.48920190329324, 217.60586856995323, 217.72253523661323, 217.83920190327322, 217.95586856993322, 218.18920190326654]	2021_Jan_27_1232	59.93155666436618	1	0.375
12	37	FALSE	NV	a	['V', 'Y', 'C', 'M', 'R', 'P', 'S', 'U', 'B', 'W', 'H', 'E', 'X', 'J', 'A', 'T']	[2245, 2670, 829, 1224, 1587, 1456, 1731, 2059, 760, 2448, 986, 904, 4000, 1029, 697, 1888]	13	Present	NA	NA	ABSENT	0.4560232162475586	220.1667318344116	222.17332696914673	223.34000150355985	223.69000364930704	226.29307103157043	4.119744062423706	[220.18899703025818, 220.30578804016113, 221.27639412879944, 221.4573609828949, 222.207857131958, 222.32449412345886, 222.44138312339783, 222.55830097198486, 222.6749279499054, 222.7917959690094, 222.90858697891235, 223.0252320766449, 223.14226412773132, 223.25885796546936, 223.37566590309143, 223.49249601364136, 223.6092119216919, 223.7260820865631, 223.8429729938507, 223.95974802970886, 224.07638096809387, 224.29307007789612]	[220.18920190326654, 220.30586856992653, 221.28886856992654, 221.45556856992653, 222.20556856992653, 222.32223523658652, 222.43890190324652, 222.5555685699065, 222.6722352365665, 222.7889019032265, 222.9055685698865, 223.0222352365465, 223.1389019032065, 223.25556856986648, 223.37223523652648, 223.48890190318647, 223.60556856984647, 223.72223523650646, 223.83890190316646, 223.95556856982645, 224.07223523648645, 224.30556856981977]	2021_Jan_27_1232	59.93155666436618	1	0.375
12	38	FALSE	NV	a	['P', 'Y', 'C', 'E', 'K', 'J', 'S', 'U', 'X', 'G', 'W', 'Z', 'A', 'H', 'M', 'N']	[1456, 2670, 829, 904, 1122, 1029, 1731, 2059, 4000, 944, 2448, 2911, 697, 986, 1224, 1335]	9	Present	NA	NA	PRESENT	0.5334651470184326	226.2900288105011	228.2895529270172	228.98956079479032	229.33956294053755	232.40943813323975	4.119885206222534	[226.31227207183838, 226.42917108535767, 227.3927628993988, 227.58012199401855, 228.33097290992737, 228.43100905418396, 228.54784107208252, 228.66456198692322, 228.78135108947754, 228.8981580734253, 229.0148890018463, 229.13172793388367, 229.24849605560303, 229.3653199672699, 229.48211908340454, 229.59893107414246, 229.71588110923767, 229.8325071334839, 229.94950008392334, 230.0660970211029, 230.1830348968506, 230.40943813323975]	[226.30556856981977, 226.42223523647976, 227.40523523647977, 227.57193523647976, 228.32193523647976, 228.43860190313976, 228.55526856979975, 228.67193523645975, 228.78860190311974, 228.90526856977974, 229.02193523643973, 229.13860190309973, 229.25526856975972, 229.37193523641972, 229.4886019030797, 229.6052685697397, 229.7219352363997, 229.8386019030597, 229.9552685697197, 230.0719352363797, 230.18860190303968, 230.421935236373]	2021_Jan_27_1232	59.93155666436618	1	0.375
12	39	FALSE	NV	a	['M', 'Y', 'N', 'V', 'G', 'R', 'P', 'Z', 'X', 'H', 'U', 'C', 'S', 'K', 'B', 'W']	[1224, 2670, 1335, 2245, 944, 1587, 1456, 2911, 4000, 986, 2059, 829, 1731, 1122, 760, 2448]	9	Present	NA	NA	PRESENT	0.489926815032959	232.3966228961945	234.40598583221436	235.10599393840604	235.4559958457347	238.52580499649048	4.119819164276123	[232.41886711120605, 232.53550100326538, 233.50912809371948, 233.68665194511414, 234.4375500679016, 234.55444407463074, 234.67109894752502, 234.7880039215088, 234.90467405319214, 235.0215871334076, 235.1382269859314, 235.25494503974915, 235.3718991279602, 235.48853707313538, 235.60547590255737, 235.7220959663391, 235.83907389640808, 235.9557421207428, 236.07255911827087, 236.18929409980774, 236.30622601509094, 236.52580404281616]	[232.421935236373, 232.538601903033, 233.521601903033, 233.688301903033, 234.438301903033, 234.554968569693, 234.67163523635298, 234.78830190301298, 234.90496856967297, 235.02163523633297, 235.13830190299296, 235.25496856965296, 235.37163523631295, 235.48830190297295, 235.60496856963294, 235.72163523629294, 235.83830190295294, 235.95496856961293, 236.07163523627293, 236.18830190293292, 236.30496856959292, 236.53830190292624]	2021_Jan_27_1232	59.93155666436618	1	0.375
12	40	FALSE	AA	a	['R', 'G', 'K', 'J', 'A', 'M', 'T', 'C', 'B', 'surprise', 'N', 'U', 'X', 'E', 'Y', 'P']	[1587, 944, 1122, 1029, 697, 1224, 1888, 829, 760, 'stimAuditory/all_stimAuditory/110.wav', 1335, 2059, 4000, 904, 2670, 1456]	13	Present	stimAuditory/all_stimAuditory/202.wav	NA	ABSENT	0.47049808502197266	238.5195038318634	240.52247190475464	241.68914548549344	242.03914763124064	244.6421709060669	4.119699001312256	[238.54174709320068, 238.6587700843811, 239.62549495697021, 239.8099091053009, 240.56068301200867, 240.67754697799683, 240.79430294036865, 240.91105198860168, 241.0277190208435, 241.1444480419159, 241.26123189926147, 241.37829995155334, 241.49507212638855, 241.61187505722046, 241.7285439968109, 241.84552812576294, 241.96226501464844, 242.07903504371643, 242.1956341266632, 242.31245803833008, 242.4297969341278, 242.64216995239258]	[238.53830190292624, 238.65496856958623, 239.63796856958623, 239.80466856958623, 240.55466856958623, 240.67133523624622, 240.78800190290622, 240.9046685695662, 241.0213352362262, 241.1380019028862, 241.2546685695462, 241.3713352362062, 241.4880019028662, 241.60466856952618, 241.72133523618618, 241.83800190284617, 241.95466856950617, 242.07133523616616, 242.18800190282616, 242.30466856948615, 242.42133523614615, 242.65466856947947]	2021_Jan_27_1232	59.93155666436618	1	0.375
12	41	FALSE	NN	a	['G', 'C', 'S', 'B', 'N', 'V', 'M', 'T', 'K', 'J', 'W', 'H', 'Y', 'E', 'A', 'P']	[944, 829, 1731, 760, 1335, 2245, 1224, 1888, 1122, 1029, 2448, 986, 2670, 904, 697, 1456]	8	Absent	NA	NA	ABSENT	0.6996569633483887	244.6260588169098	246.63872599601743	247.22206719713057	247.57207029655208	250.7585380077362	4.11981201171875	[244.64830207824707, 244.76519513130188, 245.74186205863953, 245.91649198532104, 246.66708707809448, 246.78387713432312, 246.90062403678894, 247.0175280570984, 247.13418006896973, 247.25110697746277, 247.367849111557, 247.48452305793762, 247.6015179157257, 247.71828603744507, 247.835186958313, 247.95177602767944, 248.06880593299866, 248.18531608581543, 248.30227613449097, 248.41917896270752, 248.53586196899414, 248.7585370540619]	[244.65466856947947, 244.77133523613946, 245.75433523613947, 245.92103523613946, 246.67103523613946, 246.78770190279945, 246.90436856945945, 247.02103523611945, 247.13770190277944, 247.25436856943944, 247.37103523609943, 247.48770190275943, 247.60436856941942, 247.72103523607942, 247.8377019027394, 247.9543685693994, 248.0710352360594, 248.1877019027194, 248.3043685693794, 248.4210352360394, 248.53770190269938, 248.7710352360327]	2021_Jan_27_1232	59.93155666436618	1	0.375
12	42	FALSE	NV	a	['S', 'E', 'T', 'A', 'H', 'K', 'J', 'V', 'X', 'Z', 'B', 'W', 'M', 'Y', 'R', 'G']	[1731, 904, 1888, 697, 986, 1122, 1029, 2245, 4000, 2911, 760, 2448, 1224, 2670, 1587, 944]	9	Present	NA	NA	ABSENT	1.3522441387176514	250.7492678165436	252.75533199310303	253.45533986087617	253.80534200662336	256.8749039173126	4.119571924209595	[250.77151107788086, 250.88845109939575, 251.85822892189026, 252.039617061615, 252.79063510894775, 252.90716004371643, 253.02390909194946, 253.14054107666016, 253.25761890411377, 253.37411999702454, 253.4909429550171, 253.60791301727295, 253.72456407546997, 253.84140801429749, 253.95830702781677, 254.07499313354492, 254.19163990020752, 254.30898904800415, 254.42531609535217, 254.5423719882965, 254.6590440273285, 254.87490391731262]	[250.7710352360327, 250.8877019026927, 251.8707019026927, 252.0374019026927, 252.7874019026927, 252.9040685693527, 253.02073523601268, 253.13740190267268, 253.25406856933267, 253.37073523599267, 253.48740190265266, 253.60406856931266, 253.72073523597265, 253.83740190263265, 253.95406856929264, 254.07073523595264, 254.18740190261263, 254.30406856927263, 254.42073523593263, 254.53740190259262, 254.65406856925262, 254.88740190258594]	2021_Jan_27_1232	59.93155666436618	1	0.375
12	43	FALSE	NV	a	['W', 'V', 'N', 'R', 'E', 'G', 'Z', 'X', 'C', 'M', 'S', 'J', 'H', 'U', 'T', 'A']	[2448, 2245, 1335, 1587, 904, 944, 2911, 4000, 829, 1224, 1731, 1029, 986, 2059, 1888, 697]	8	Present	NA	NA	PRESENT	0.6375970840454102	256.87257981300354	258.8715648651123	259.4549072583183	259.80490916564696	262.9912700653076	4.1197052001953125	[256.89483404159546, 257.0113670825958, 257.97459292411804, 258.14581394195557, 258.91368293762207, 259.01345896720886, 259.1302011013031, 259.2472059726715, 259.3638029098511, 259.48079109191895, 259.5975069999695, 259.7143669128418, 259.83101201057434, 259.94779205322266, 260.06457591056824, 260.18130803108215, 260.29832696914673, 260.4150490760803, 260.53188395500183, 260.64879512786865, 260.7654869556427, 260.99127101898193]	[256.8874019025859, 257.00406856924593, 257.98706856924593, 258.1537685692459, 258.9037685692459, 259.02043523590595, 259.137101902566, 259.253768569226, 259.370435235886, 259.48710190254604, 259.60376856920607, 259.7204352358661, 259.8371019025261, 259.95376856918614, 260.07043523584616, 260.1871019025062, 260.3037685691662, 260.42043523582623, 260.53710190248626, 260.6537685691463, 260.7704352358063, 261.00376856913965]	2021_Jan_27_1232	59.93155666436618	1	0.375
12	44	FALSE	NA	a	['V', 'E', 'A', 'B', 'K', 'S', 'U', 'H', 'P', 'G', 'J', 'Y', 'T', 'X', 'C', 'W']	[2245, 904, 697, 760, 1122, 1731, 2059, 986, 1456, 944, 1029, 2670, 1888, 4000, 829, 2448]	14	Present	NA	NA	PRESENT	0.6503360271453857	262.9792377948761	264.9879848957062	266.27132514310495	266.62132728885217	269.10763812065125	4.119653224945068	[263.0014810562134, 263.1180579662323, 264.090961933136, 264.2691960334778, 265.02002906799316, 265.1368079185486, 265.2536120414734, 265.37025594711304, 265.4869530200958, 265.6037850379944, 265.7207989692688, 265.83736395835876, 265.95439410209656, 266.07100105285645, 266.18786907196045, 266.30462193489075, 266.42149591445923, 266.53831601142883, 266.65518593788147, 266.7719659805298, 266.8887040615082, 267.10763812065125]	[263.00376856913965, 263.1204352357997, 264.1034352357997, 264.27013523579967, 265.02013523579967, 265.1368019024597, 265.2534685691197, 265.37013523577974, 265.48680190243977, 265.6034685690998, 265.7201352357598, 265.83680190241984, 265.95346856907986, 266.0701352357399, 266.1868019023999, 266.30346856905993, 266.42013523571995, 266.53680190238, 266.65346856904, 266.7701352357, 266.88680190236005, 267.1201352356934]	2021_Jan_27_1232	59.93155666436618	1	0.375
12	45	FALSE	NA	a	['W', 'J', 'M', 'R', 'P', 'A', 'T', 'B', 'S', 'E', 'Z', 'X', 'V', 'K', 'H', 'N']	[2448, 1029, 1224, 1587, 1456, 697, 1888, 760, 1731, 904, 2911, 4000, 2245, 1122, 986, 1335]	12	Present	NA	NA	PRESENT	0.4557759761810303	269.10212993621826	271.10425996780396	272.15426688188273	272.5042699813043	275.22400403022766	4.119744062423706	[269.12437295913696, 269.24095606803894, 270.20732712745667, 270.39242792129517, 271.1431269645691, 271.259957075119, 271.376590013504, 271.4935989379883, 271.6103091239929, 271.72721099853516, 271.8439030647278, 271.96067690849304, 272.0773460865021, 272.1943418979645, 272.31106209754944, 272.4281029701233, 272.5445909500122, 272.66152596473694, 272.7781710624695, 272.89513206481934, 272.9950439929962, 273.22400403022766]	[269.1201352356934, 269.2368019023534, 270.2198019023534, 270.3865019023534, 271.1365019023534, 271.25316856901344, 271.36983523567346, 271.4865019023335, 271.6031685689935, 271.71983523565353, 271.83650190231356, 271.9531685689736, 272.0698352356336, 272.1865019022936, 272.30316856895365, 272.4198352356137, 272.5365019022737, 272.6531685689337, 272.76983523559375, 272.88650190225377, 273.0031685689138, 273.23650190224714]	2021_Jan_27_1232	59.93155666436618	1	0.375
12	46	FALSE	NA	a	['S', 'M', 'K', 'Y', 'E', 'C', 'B', 'A', 'T', 'R', 'X', 'U', 'V', 'Z', 'P', 'W']	[1731, 1224, 1122, 2670, 904, 829, 760, 697, 1888, 1587, 4000, 2059, 2245, 2911, 1456, 2448]	11	Present	NA	NA	PRESENT	0.7560560703277588	275.2084279060364	277.2206919193268	278.1540331204199	278.5040352661671	281.340371131897	4.11967921257019	[275.2306809425354, 275.3476550579071, 276.32369589805603, 276.49884605407715, 277.2495861053467, 277.3665130138397, 277.483225107193, 277.59991693496704, 277.71678590774536, 277.8336000442505, 277.9504771232605, 278.0670940876007, 278.1840898990631, 278.30070090293884, 278.4176230430603, 278.53422808647156, 278.65122294425964, 278.7677540779114, 278.88479590415955, 279.0014650821686, 279.11838006973267, 279.3403699398041]	[275.23650190224714, 275.35316856890717, 276.33616856890717, 276.50286856890716, 277.25286856890716, 277.3695352355672, 277.4862019022272, 277.60286856888723, 277.71953523554726, 277.8362019022073, 277.9528685688673, 278.0695352355273, 278.18620190218735, 278.3028685688474, 278.4195352355074, 278.5362019021674, 278.65286856882744, 278.76953523548747, 278.8862019021475, 279.0028685688075, 279.11953523546754, 279.3528685688009]	2021_Jan_27_1232	59.93155666436618	1	0.375
12	47	FALSE	AA	a	['W', 'S', 'V', 'R', 'K', 'M', 'J', 'B', 'surprise', 'H', 'P', 'X', 'A', 'T', 'Y', 'G']	[2448, 1731, 2245, 1587, 1122, 1224, 1029, 760, 'stimAuditory/all_stimAuditory/124.wav', 986, 1456, 4000, 697, 1888, 2670, 944]	12	Present	stimAuditory/all_stimAuditory/217.wav	NA	ABSENT	0.5687510967254639	281.3317708969116	283.33696484565735	284.3869719981547	284.73697390548335	287.4567370414734	4.11977219581604	[281.3540139198303, 281.4706349372864, 282.4400589466095, 282.62247490882874, 283.3728229999542, 283.4894709587097, 283.60644698143005, 283.72321796417236, 283.8399429321289, 283.95667004585266, 284.0736389160156, 284.190269947052, 284.3072009086609, 284.42385601997375, 284.5406401157379, 284.6575610637665, 284.7742841243744, 284.8911280632019, 285.0079300403595, 285.1248109340668, 285.24145793914795, 285.456738948822]	[281.3528685688009, 281.4695352354609, 282.4525352354609, 282.6192352354609, 283.3692352354609, 283.48590190212093, 283.60256856878095, 283.719235235441, 283.835901902101, 283.952568568761, 284.06923523542105, 284.18590190208107, 284.3025685687411, 284.4192352354011, 284.53590190206114, 284.65256856872116, 284.7692352353812, 284.8859019020412, 285.00256856870124, 285.11923523536126, 285.2359019020213, 285.46923523535463]	2021_Jan_27_1232	59.93155666436618	1	0.375
12	48	FALSE	NN	a	['T', 'N', 'B', 'M', 'G', 'E', 'C', 'Z', 'U', 'J', 'R', 'W', 'V', 'A', 'K', 'P']	[1888, 1335, 760, 1224, 944, 904, 829, 2911, 2059, 1029, 1587, 2448, 2245, 697, 1122, 1456]	14	Absent	NA	NA	ABSENT	0.8299379348754883	287.45493483543396	289.45355582237244	290.7368972618641	291.08689916919275	293.5731039047241	4.119548082351685	[287.47717809677124, 287.5937581062317, 288.55643010139465, 288.72836804389954, 289.495973110199, 289.59594202041626, 289.7128779888153, 289.82941794395447, 289.94648003578186, 290.06326508522034, 290.1800320148468, 290.2967131137848, 290.41364192962646, 290.53045296669006, 290.6471800804138, 290.7638130187988, 290.8808660507202, 290.99747610092163, 291.1144390106201, 291.23108410835266, 291.34797406196594, 291.5731029510498]	[287.46923523535463, 287.58590190201465, 288.56890190201466, 288.73560190201465, 289.48560190201465, 289.6022685686747, 289.7189352353347, 289.8356019019947, 289.95226856865474, 290.06893523531477, 290.1856019019748, 290.3022685686348, 290.41893523529484, 290.53560190195486, 290.6522685686149, 290.7689352352749, 290.88560190193493, 291.00226856859496, 291.118935235255, 291.235601901915, 291.352268568575, 291.5856019019084]	2021_Jan_27_1232	59.93155666436618	1	0.375
12	49	FALSE	NA	a	['P', 'B', 'E', 'S', 'V', 'J', 'A', 'X', 'G', 'H', 'C', 'W', 'U', 'M', 'N', 'Y']	[1456, 760, 904, 1731, 2245, 1029, 697, 4000, 944, 986, 829, 2448, 2059, 1224, 1335, 2670]	8	Present	NA	NA	PRESENT	0.44266414642333984	293.5612769126892	295.5698368549347	296.1531782944664	296.50318115546935	299.68947100639343	4.11963415145874	[293.5835199356079, 293.7002680301666, 294.67279601097107, 294.851704120636, 295.60244703292847, 295.7191309928894, 295.8361179828644, 295.9526879787445, 296.0696339607239, 296.1864399909973, 296.30318999290466, 296.4199221134186, 296.5368640422821, 296.65355801582336, 296.7704920768738, 296.8871760368347, 297.0038650035858, 297.12082505226135, 297.2374839782715, 297.3544590473175, 297.47094106674194, 297.6894690990448]	[293.5856019019084, 293.7022685685684, 294.6852685685684, 294.8519685685684, 295.6019685685684, 295.7186352352284, 295.83530190188844, 295.95196856854847, 296.0686352352085, 296.1853019018685, 296.30196856852854, 296.41863523518856, 296.5353019018486, 296.6519685685086, 296.76863523516863, 296.88530190182865, 297.0019685684887, 297.1186352351487, 297.2353019018087, 297.35196856846875, 297.4686352351288, 297.7019685684621]	2021_Jan_27_1232	59.93155666436618	1	0.375
12	50	FALSE	NN	a	['M', 'P', 'R', 'V', 'Y', 'K', 'Z', 'S', 'G', 'H', 'C', 'T', 'B', 'A', 'E', 'J']	[1224, 1456, 1587, 2245, 2670, 1122, 2911, 1731, 944, 986, 829, 1888, 760, 697, 904, 1029]	12	Absent	NA	NA	ABSENT	0.5119459629058838	299.6846158504486	301.68615078926086	302.73615889543254	303.0861608027612	305.80583810806274	4.11968731880188	[299.7068819999695, 299.8234131336212, 300.7891619205475, 300.97494196891785, 301.72554993629456, 301.84247303009033, 301.95926094055176, 302.0759789943695, 302.19273591041565, 302.3095500469208, 302.4268181324005, 302.54302310943604, 302.6599500179291, 302.77660512924194, 302.8935170173645, 303.01036405563354, 303.1103239059448, 303.22713708877563, 303.3438959121704, 303.46066403388977, 303.5774841308594, 303.80583810806274]	[299.7019685684621, 299.81863523512214, 300.80163523512215, 300.96833523512214, 301.71833523512214, 301.83500190178216, 301.9516685684422, 302.0683352351022, 302.18500190176223, 302.30166856842226, 302.4183352350823, 302.5350019017423, 302.65166856840233, 302.76833523506235, 302.8850019017224, 303.0016685683824, 303.1183352350424, 303.23500190170245, 303.35166856836247, 303.4683352350225, 303.5850019016825, 303.81833523501587]	2021_Jan_27_1232	59.93155666436618	1	0.375
12	51	FALSE	NA	a	['V', 'K', 'G', 'P', 'E', 'M', 'A', 'Z', 'R', 'X', 'Y', 'U', 'S', 'T', 'J', 'B']	[2245, 1122, 944, 1456, 904, 1224, 697, 2911, 1587, 4000, 2670, 2059, 1731, 1888, 1029, 760]	10	Present	NA	NA	PRESENT	0.6684670448303223	305.79088401794434	307.8024308681488	308.6191056410005	308.96910754832913	311.92220401763916	4.1197731494903564	[305.81312704086304, 305.93010807037354, 306.9055280685425, 307.0813009738922, 307.8319180011749, 307.94875597953796, 308.0657629966736, 308.182590007782, 308.2991769313812, 308.41610312461853, 308.5329089164734, 308.6495680809021, 308.76655197143555, 308.88313603401184, 309.0002040863037, 309.1168260574341, 309.2336459159851, 309.3503370285034, 309.4671850204468, 309.5839099884033, 309.7007439136505, 309.92220401763916]	[305.81833523501587, 305.9350019016759, 306.9180019016759, 307.0847019016759, 307.8347019016759, 307.9513685683359, 308.06803523499593, 308.18470190165596, 308.301368568316, 308.418035234976, 308.534701901636, 308.65136856829605, 308.7680352349561, 308.8847019016161, 309.0013685682761, 309.11803523493614, 309.23470190159617, 309.3513685682562, 309.4680352349162, 309.58470190157624, 309.70136856823626, 309.9347019015696]	2021_Jan_27_1232	59.93155666436618	1	0.375
12	52	FALSE	AA	a	['N', 'J', 'W', 'M', 'B', 'S', 'Z', 'surprise', 'A', 'V', 'X', 'Y', 'P', 'K', 'G', 'T']	[1335, 1029, 2448, 1224, 760, 1731, 2911, 'stimAuditory/all_stimAuditory/111.wav', 697, 2245, 4000, 2670, 1456, 1122, 944, 1888]	11	Present	stimAuditory/all_stimAuditory/110.wav	NA	ABSENT	0.9209599494934082	311.9142689704895	313.91887497901917	314.852215226438	315.20221713376657	318.0385711193085	4.119696140289307	[311.9365119934082, 312.0531539916992, 313.0218939781189, 313.20487809181213, 313.9551930427551, 314.0721619129181, 314.18896293640137, 314.3056490421295, 314.4225289821625, 314.539165019989, 314.6560389995575, 314.77298307418823, 314.8896279335022, 315.00629901885986, 315.1230149269104, 315.2398509979248, 315.3568980693817, 315.4735939502716, 315.5902509689331, 315.7071280479431, 315.82377099990845, 316.0385711193085]	[311.9347019015696, 312.05136856822963, 313.03436856822964, 313.20106856822963, 313.95106856822963, 314.06773523488965, 314.1844019015497, 314.3010685682097, 314.4177352348697, 314.53440190152975, 314.65106856818977, 314.7677352348498, 314.8844019015098, 315.00106856816984, 315.11773523482987, 315.2344019014899, 315.3510685681499, 315.46773523480994, 315.58440190146996, 315.70106856813, 315.81773523479, 316.05106856812336]	2021_Jan_27_1232	59.93155666436618	1	0.375
12	53	FALSE	NN	a	['J', 'E', 'Y', 'A', 'P', 'B', 'T', 'N', 'Z', 'U', 'G', 'V', 'H', 'W', 'C', 'K']	[1029, 904, 2670, 697, 1456, 760, 1888, 1335, 2911, 2059, 944, 2245, 986, 2448, 829, 1122]	12	Absent	NA	NA	ABSENT	0.6142258644104004	318.0373899936676	320.03513383865356	321.0851409911509	321.43514289847957	324.1549379825592	4.11980414390564	[318.059632062912, 318.17635703086853, 319.13826298713684, 319.31091499328613, 320.07842993736267, 320.17856907844543, 320.29526591300964, 320.4120569229126, 320.52887892723083, 320.6456139087677, 320.7625241279602, 320.8791971206665, 320.9962069988251, 321.11278891563416, 321.2297511100769, 321.34646701812744, 321.46334195137024, 321.5799911022186, 321.6968491077423, 321.8135099411011, 321.9304361343384, 322.1549370288849]	[318.05106856812336, 318.1677352347834, 319.1507352347834, 319.3174352347834, 320.0674352347834, 320.1841019014434, 320.3007685681034, 320.41743523476345, 320.53410190142347, 320.6507685680835, 320.7674352347435, 320.88410190140354, 321.00076856806356, 321.1174352347236, 321.2341019013836, 321.35076856804363, 321.46743523470366, 321.5841019013637, 321.7007685680237, 321.8174352346837, 321.93410190134375, 322.1674352346771]	2021_Jan_27_1232	59.93155666436618	1	0.375
12	54	FALSE	NN	a	['R', 'Z', 'E', 'W', 'B', 'J', 'H', 'S', 'K', 'Y', 'G', 'P', 'V', 'M', 'N', 'C']	[1587, 2911, 904, 2448, 760, 1029, 986, 1731, 1122, 2670, 944, 1456, 2245, 1224, 1335, 829]	13	Absent	NA	NA	ABSENT	0.859001874923706	324.1438479423523	326.15162801742554	327.31830255183866	327.6683044591673	330.2713041305542	4.119676113128662	[324.166090965271, 324.28278613090515, 325.2546269893646, 325.4343159198761, 326.18491291999817, 326.30159091949463, 326.41854095458984, 326.53515696525574, 326.65195894241333, 326.7688789367676, 326.8858289718628, 327.0025169849396, 327.11931705474854, 327.23612689971924, 327.3529350757599, 327.4696979522705, 327.5863950252533, 327.70315504074097, 327.81999611854553, 327.9368019104004, 328.0534610748291, 328.2713029384613]	[324.1674352346771, 324.2841019013371, 325.2671019013371, 325.4338019013371, 326.1838019013371, 326.30046856799714, 326.41713523465717, 326.5338019013172, 326.6504685679772, 326.76713523463724, 326.88380190129726, 327.0004685679573, 327.1171352346173, 327.23380190127733, 327.35046856793736, 327.4671352345974, 327.5838019012574, 327.7004685679174, 327.81713523457745, 327.9338019012375, 328.0504685678975, 328.28380190123085]	2021_Jan_27_1232	59.93155666436618	1	0.375
12	55	FALSE	NN	a	['K', 'W', 'A', 'H', 'M', 'E', 'B', 'V', 'U', 'C', 'Y', 'T', 'S', 'N', 'J', 'P']	[1122, 2448, 697, 986, 1224, 904, 760, 2245, 2059, 829, 2670, 1888, 1731, 1335, 1029, 1456]	8	Absent	NA	NA	ABSENT	0.4722330570220947	330.2671887874603	332.26801800727844	332.85135920839156	333.2013601620459	336.38767099380493	4.119652986526489	[330.2894320487976, 330.40611505508423, 331.37099599838257, 331.5572030544281, 332.30793595314026, 332.4252989292145, 332.5416970252991, 332.6582930088043, 332.77518606185913, 332.892226934433, 332.99204897880554, 333.10884308815, 333.22557401657104, 333.34245204925537, 333.45921206474304, 333.57605600357056, 333.6928000450134, 333.8095021247864, 333.9263050556183, 334.0431389808655, 334.1599020957947, 334.38767099380493]	[330.28380190123085, 330.40046856789087, 331.3834685678909, 331.55016856789086, 332.30016856789086, 332.4168352345509, 332.5335019012109, 332.65016856787094, 332.76683523453096, 332.883501901191, 333.000168567851, 333.11683523451103, 333.23350190117105, 333.3501685678311, 333.4668352344911, 333.5835019011511, 333.70016856781115, 333.81683523447117, 333.9335019011312, 334.0501685677912, 334.16683523445124, 334.4001685677846]	2021_Jan_27_1232	59.93155666436618	1	0.375
12	56	FALSE	NV	a	['W', 'G', 'U', 'B', 'J', 'P', 'E', 'Y', 'A', 'V', 'M', 'X', 'Z', 'N', 'H', 'K']	[2448, 944, 2059, 760, 1029, 1456, 904, 2670, 697, 2245, 1224, 4000, 2911, 1335, 986, 1122]	12	Present	NA	NA	ABSENT	0.64484405517578125	336.37356996536255	338.3843719959259	339.4343789100047	339.78438081733333	342.50403809547424	4.11966609954834	[336.39581298828125, 336.5124349594116, 337.48736095428467, 337.6637029647827, 338.41452503204346, 338.5312840938568, 338.64829993247986, 338.76483511924744, 338.88191294670105, 338.99851298332214, 339.1154770851135, 339.23212909698486, 339.34895300865173, 339.465637922287, 339.5826110839844, 339.69919991493225, 339.8158700466156, 339.93277192115784, 340.0498049259186, 340.1664140224457, 340.2832679748535, 340.50403809547424]	[336.4001685677846, 336.5168352344446, 337.4998352344446, 337.6665352344446, 338.4165352344446, 338.53320190110463, 338.64986856776466, 338.7665352344247, 338.8832019010847, 338.9998685677447, 339.11653523440475, 339.2332019010648, 339.3498685677248, 339.4665352343848, 339.58320190104484, 339.69986856770487, 339.8165352343649, 339.9332019010249, 340.04986856768494, 340.16653523434496, 340.283201901005, 340.51653523433833]	2021_Jan_27_1232	59.93155666436618	1	0.375
12	57	FALSE	NV	a	['B', 'U', 'R', 'H', 'N', 'Y', 'V', 'X', 'J', 'E', 'M', 'S', 'Z', 'C', 'P', 'A']	[760, 2059, 1587, 986, 1335, 2670, 2245, 4000, 1029, 904, 1224, 1731, 2911, 829, 1456, 697]	8	Present	NA	NA	ABSENT	0.9612329006195068	342.49712586402893	344.50060200691223	345.08394320802535	345.433945115354	348.62040400505066	4.119801998138428	[342.5193691253662, 342.63579297065735, 343.60372591018677, 343.78687810897827, 344.53759503364563, 344.65454602241516, 344.7713270187378, 344.8883059024811, 345.00479197502136, 345.121866941452, 345.23838806152344, 345.35539197921753, 345.4720380306244, 345.5889799594879, 345.705570936203, 345.8224821090698, 345.9393289089203, 346.0561499595642, 346.1727669239044, 346.28967809677124, 346.4063799381256, 346.62040305137634]	[342.51653523433833, 342.63320190099836, 343.61620190099836, 343.78290190099835, 344.53290190099835, 344.6495685676584, 344.7662352343184, 344.8829019009784, 344.99956856763845, 345.1162352342985, 345.2329019009585, 345.3495685676185, 345.46623523427854, 345.58290190093857, 345.6995685675986, 345.8162352342586, 345.93290190091864, 346.04956856757866, 346.1662352342387, 346.2829019008987, 346.39956856755873, 346.6329019008921]	2021_Jan_27_1232	59.93155666436618	1	0.375
12	58	FALSE	NV	a	['C', 'M', 'A', 'U', 'R', 'Y', 'T', 'H', 'X', 'S', 'Z', 'V', 'W', 'G', 'J', 'K']	[829, 1224, 697, 2059, 1587, 2670, 1888, 986, 4000, 1731, 2911, 2245, 2448, 944, 1029, 1122]	9	Present	NA	NA	ABSENT	1.158668041229248	348.619961977005	350.61712098121643	351.31712884898957	351.66713099473674	354.73677110671997	4.11965012550354	[348.64220690727234, 348.74205803871155, 349.7201099395752, 349.89340901374817, 350.644091129303, 350.7609529495239, 350.87789392471313, 350.9944679737091, 351.11154890060425, 351.22811698913574, 351.3451681137085, 351.4616940021515, 351.5785241127014, 351.6953561306, 351.81223607063293, 351.9289951324463, 352.0458290576935, 352.1624081134796, 352.2794270515442, 352.3963689804077, 352.512727022171, 352.73676896095276]	[348.6329019008921, 348.7495685675521, 349.7325685675521, 349.8992685675521, 350.6492685675521, 350.7659352342121, 350.88260190087215, 350.99926856753217, 351.1159352341922, 351.2326019008522, 351.34926856751224, 351.46593523417226, 351.5826019008323, 351.6992685674923, 351.81593523415233, 351.93260190081236, 352.0492685674724, 352.1659352341324, 352.28260190079243, 352.39926856745245, 352.5159352341125, 352.7492685674458]	2021_Jan_27_1232	59.93155666436618	1	0.375
12	59	FALSE	NN	a	['A', 'W', 'T', 'B', 'U', 'G', 'R', 'S', 'K', 'Y', 'H', 'V', 'P', 'E', 'Z', 'M']	[697, 2448, 1888, 760, 2059, 944, 1587, 1731, 1122, 2670, 986, 2245, 1456, 904, 2911, 1224]	12	Absent	NA	NA	ABSENT	0.7392220497131348	354.7265088558197	356.73333501815796	357.78334288591105	358.1333447932397	360.8531379699707	4.119802951812744	[354.748752117157, 354.86529898643494, 355.836462020874, 356.01647210121155, 356.76746892929077, 356.88408398628235, 357.0010859966278, 357.117849111557, 357.23441910743713, 357.35149693489075, 357.46830010414124, 357.5848939418793, 357.7016849517822, 357.8185110092163, 357.9354479312897, 358.052041053772, 358.1690049171448, 358.2856960296631, 358.4024660587311, 358.5193569660187, 358.6360740661621, 358.8531379699707]	[354.7492685674458, 354.86593523410585, 355.84893523410585, 356.01563523410584, 356.76563523410584, 356.88230190076587, 356.9989685674259, 357.1156352340859, 357.23230190074594, 357.34896856740596, 357.465635234066, 357.582301900726, 357.69896856738603, 357.81563523404606, 357.9323019007061, 358.0489685673661, 358.1656352340261, 358.28230190068615, 358.3989685673462, 358.5156352340062, 358.6323019006662, 358.86563523399957]	2021_Jan_27_1232	59.93155666436618	1	0.375
12	60	FALSE	NV	a	['P', 'S', 'N', 'A', 'H', 'Y', 'W', 'B', 'K', 'X', 'J', 'M', 'T', 'V', 'E', 'U']	[1456, 1731, 1335, 697, 986, 2670, 2448, 760, 1122, 4000, 1029, 1224, 1888, 2245, 904, 2059]	10	Present	NA	NA	PRESENT	0.6084840297698975	360.8496868610382	362.8498578071594	363.6665325800111	364.01653448733975	366.9695029258728	4.119645118713379	[360.8719301223755, 360.9887230396271, 361.95282793045044, 362.1398410797119, 362.8908770084381, 363.0075581073761, 363.1073570251465, 363.2241840362549, 363.34092903137207, 363.45776295661926, 363.5745859146118, 363.6913161277771, 363.80812406539917, 363.92495799064636, 364.04165601730347, 364.15840911865234, 364.2752299308777, 364.3920269012451, 364.50880312919617, 364.62555599212646, 364.74255204200745, 364.96950507164]	[360.86563523399957, 360.9823019006596, 361.9653019006596, 362.1320019006596, 362.8820019006596, 362.9986685673196, 363.11533523397964, 363.23200190063966, 363.3486685672997, 363.4653352339597, 363.58200190061973, 363.69866856727975, 363.8153352339398, 363.9320019005998, 364.0486685672598, 364.16533523391985, 364.28200190057987, 364.3986685672399, 364.5153352338999, 364.63200190055994, 364.74866856721997, 364.9820019005533]	2021_Jan_27_1232	59.93155666436618	1	0.375
12	61	FALSE	AN	a	['C', 'Y', 'M', 'N', 'S', 'B', 'T', 'surprise', 'P', 'W', 'A', 'R', 'U', 'E', 'Z', 'G']	[829, 2670, 1224, 1335, 1731, 760, 1888, 'stimAuditory/all_stimAuditory/104.wav', 1456, 2448, 697, 1587, 2059, 904, 2911, 944]	11	Absent	stimAuditory/all_stimAuditory/124.wav	NA	ABSENT	0.2449350357055664	366.9560868740082	368.9662399291992	369.89958113029235	370.2495832760395	373.0858709812164	4.119631052017212	[366.9783298969269, 367.09496998786926, 368.0692160129547, 368.24625396728516, 368.99705600738525, 369.11382007598877, 369.23071694374084, 369.3473479747772, 369.46425104141235, 369.58087396621704, 369.6978991031647, 369.8145561218262, 369.93152809143066, 370.0482180118561, 370.165030002594, 370.28178191185, 370.39847111701965, 370.5154359340668, 370.63217091560364, 370.74904012680054, 370.86568212509155, 371.0858700275421]	[366.9820019005533, 367.09866856721334, 368.08166856721334, 368.24836856721333, 368.99836856721333, 369.11503523387336, 369.2317019005334, 369.3483685671934, 369.4650352338534, 369.58170190051345, 369.6983685671735, 369.8150352338335, 369.9317019004935, 370.04836856715355, 370.16503523381357, 370.2817019004736, 370.3983685671336, 370.51503523379364, 370.63170190045366, 370.7483685671137, 370.8650352337737, 371.09836856710706]	2021_Jan_27_1232	59.93155666436618	1	0.375
12	62	FALSE	NA	a	['P', 'N', 'E', 'Y', 'B', 'Z', 'M', 'C', 'W', 'R', 'K', 'H', 'X', 'A', 'S', 'T']	[1456, 1335, 904, 2670, 760, 2911, 1224, 829, 2448, 1587, 1122, 986, 4000, 697, 1731, 1888]	13	Present	NA	NA	PRESENT	0.849560022354126	373.0795569419861	375.0825958251953	376.249270598027	376.59927250535566	379.20223808288574	4.11964225769043	[373.1017999649048, 373.21819591522217, 374.18556213378906, 374.36931896209717, 375.12020611763, 375.23704290390015, 375.3538680076599, 375.4705400466919, 375.58735394477844, 375.70423698425293, 375.82106709480286, 375.9378139972687, 376.05451107025146, 376.17136693000793, 376.2880389690399, 376.4048581123352, 376.52162289619446, 376.63854908943176, 376.7553610801697, 376.87214493751526, 376.9888401031494, 377.2022371292114]	[373.09836856710706, 373.2150352337671, 374.1980352337671, 374.3647352337671, 375.1147352337671, 375.2314019004271, 375.3480685670871, 375.46473523374715, 375.5814019004072, 375.6980685670672, 375.8147352337272, 375.93140190038724, 376.04806856704727, 376.1647352337073, 376.2814019003673, 376.39806856702734, 376.51473523368736, 376.6314019003474, 376.7480685670074, 376.86473523366743, 376.98140190032746, 377.2147352336608]	2021_Jan_27_1232	59.93155666436618	1	0.375
12	63	FALSE	NN	a	['Y', 'J', 'C', 'A', 'R', 'V', 'P', 'K', 'W', 'H', 'S', 'M', 'N', 'T', 'U', 'B']	[2670, 1029, 829, 697, 1587, 2245, 1456, 1122, 2448, 986, 1731, 1224, 1335, 1888, 2059, 760]	10	Absent	NA	NA	ABSENT	0.7107679843902588	379.20245385169983	381.1989018917084	382.0155754724672	382.3655776182144	385.3186049461365	4.119703054428101	[379.22470808029175, 379.32462096214294, 380.30192708969116, 380.4759109020233, 381.22657012939453, 381.3434340953827, 381.4603691101074, 381.57701110839844, 381.6939969062805, 381.8105571269989, 381.9273679256439, 382.04422998428345, 382.16114711761475, 382.2777419090271, 382.3950529098511, 382.5114679336548, 382.6280519962311, 382.744952917099, 382.8618149757385, 382.97863006591797, 383.0954079627991, 383.3186049461365]	[379.2147352336608, 379.3314019003208, 380.31440190032083, 380.4811019003208, 381.2311019003208, 381.34776856698085, 381.46443523364087, 381.5811019003009, 381.6977685669609, 381.81443523362094, 381.93110190028096, 382.047768566941, 382.164435233601, 382.28110190026104, 382.39776856692106, 382.5144352335811, 382.6311019002411, 382.74776856690113, 382.86443523356115, 382.9811019002212, 383.0977685668812, 383.33110190021455]	2021_Jan_27_1232	59.93155666436618	1	0.375
12	64	FALSE	NN	a	['J', 'C', 'S', 'Y', 'H', 'B', 'V', 'U', 'R', 'A', 'E', 'T', 'W', 'G', 'N', 'K']	[1029, 829, 1731, 2670, 986, 760, 2245, 2059, 1587, 697, 904, 1888, 2448, 944, 1335, 1122]	9	Absent	NA	NA	ABSENT	0.45131802558898926	385.3089439868927	387.3152959346771	388.01530380245026	388.36530690187175	391.4349710941314	4.119675159454346	[385.3311970233917, 385.447998046875, 386.4182960987091, 386.5991470813751, 387.3498070240021, 387.4666910171509, 387.5836250782013, 387.70032501220703, 387.8169538974762, 387.93386006355286, 388.0506680011749, 388.16753697395325, 388.28411507606506, 388.40101504325867, 388.51779294013977, 388.6345911026001, 388.7512860298157, 388.8682050704956, 388.9848349094391, 389.10182189941406, 389.21860909461975, 389.43497109413147]	[385.33110190021455, 385.4477685668746, 386.4307685668746, 386.59746856687457, 387.34746856687457, 387.4641352335346, 387.5808019001946, 387.69746856685464, 387.81413523351466, 387.9308019001747, 388.0474685668347, 388.16413523349473, 388.28080190015476, 388.3974685668148, 388.5141352334748, 388.6308019001348, 388.74746856679485, 388.8641352334549, 388.9808019001149, 389.0974685667749, 389.21413523343494, 389.4474685667683]	2021_Jan_27_1232	59.93155666436618	1	0.375
12	65	FALSE	NN	a	['G', 'U', 'J', 'K', 'W', 'V', 'E', 'M', 'P', 'H', 'R', 'Y', 'C', 'T', 'A', 'Z']	[944, 2059, 1029, 1122, 2448, 2245, 904, 1224, 1456, 986, 1587, 2670, 829, 1888, 697, 2911]	10	Absent	NA	NA	ABSENT	1.648569107055664	391.4318687915802	393.4315447807312	394.2482195535829	394.59822146091153	397.5513379573822	4.119793176651001	[391.4541130065918, 391.5712969303131, 392.5346610546112, 392.72265911102295, 393.4731979370117, 393.57306599617004, 393.6898820400238, 393.8066461086273, 393.92342805862427, 394.0402309894562, 394.1572370529175, 394.2738471031189, 394.3907549381256, 394.50736808776855, 394.6243169307709, 394.7410581111908, 394.85771012306213, 394.97471499443054, 395.09125089645386, 395.2081620693207, 395.3249340057373, 395.5513370037079]	[391.4474685667683, 391.5641352334283, 392.5471352334283, 392.7138352334283, 393.4638352334283, 393.58050190008834, 393.69716856674836, 393.8138352334084, 393.9305019000684, 394.04716856672843, 394.16383523338845, 394.2805019000485, 394.3971685667085, 394.5138352333685, 394.63050190002855, 394.7471685666886, 394.8638352333486, 394.9805019000086, 395.09716856666864, 395.21383523332867, 395.3305018999887, 395.56383523332204]	2021_Jan_27_1232	59.93155666436618	1	0.375
12	66	FALSE	NA	a	['A', 'B', 'E', 'J', 'C', 'Y', 'K', 'W', 'X', 'R', 'M', 'H', 'N', 'V', 'G', 'Z']	[697, 760, 904, 1029, 829, 2670, 1122, 2448, 4000, 1587, 1224, 986, 1335, 2245, 944, 2911]	9	Present	NA	NA	ABSENT	0.5011410713195801	397.5385708808899	399.54780888557434	400.24781699176606	400.59781889909465	403.6677029132843	4.119894027709961	[397.5608139038086, 397.6774220466614, 398.65102791786194, 398.828763961792, 399.5795500278473, 399.6962580680847, 399.813059091568, 399.92984795570374, 400.0465829372406, 400.1636071205139, 400.28020191192627, 400.39706897735596, 400.5136909484863, 400.6306359767914, 400.7472720146179, 400.86430191993713, 400.98108196258545, 401.0977439880371, 401.2147068977356, 401.33140802383423, 401.4481101036072, 401.6677029132843]	[397.56383523332204, 397.68050189998206, 398.66350189998207, 398.83020189998206, 399.58020189998206, 399.6968685666421, 399.8135352333021, 399.9302018999621, 400.04686856662215, 400.1635352332822, 400.2802018999422, 400.3968685666022, 400.51353523326225, 400.63020189992227, 400.7468685665823, 400.8635352332423, 400.98020189990234, 401.09686856656236, 401.2135352332224, 401.3302018998824, 401.44686856654243, 401.6802018998758]	2021_Jan_27_1232	59.93155666436618	1	0.375
12	67	FALSE	VV	a	['N', 'W', 'R', 'C', 'U', 'surprise', 'A', 'T', 'X', 'K', 'S', 'H', 'M', 'Y', 'G', 'Z']	[1335, 2448, 1587, 829, 2059, 'stimAuditory/all_stimAuditory/204.wav', 697, 1888, 4000, 1122, 1731, 986, 1224, 2670, 944, 2911]	9	Present	NA	NA	ABSENT	0.5215010643005371	403.6620478630066	405.66437697410583	406.36438388820466	406.71438698762614	409.7840700149536	4.119693040847778	[403.6842911243439, 403.80078196525574, 404.76739501953125, 404.95180010795593, 405.70279598236084, 405.8195250034332, 405.93642711639404, 406.05323004722595, 406.1699070930481, 406.28654193878174, 406.40362191200256, 406.5202181339264, 406.63711190223694, 406.75358390808105, 406.870726108551, 406.987291097641, 407.1041901111603, 407.22111797332764, 407.3376760482788, 407.4546239376068, 407.57145404815674, 407.7840700149536]	[403.6802018998758, 403.7968685665358, 404.7798685665358, 404.9465685665358, 405.6965685665358, 405.8132352331958, 405.92990189985585, 406.0465685665159, 406.1632352331759, 406.2799018998359, 406.39656856649594, 406.51323523315597, 406.629901899816, 406.746568566476, 406.86323523313604, 406.97990189979606, 407.0965685664561, 407.2132352331161, 407.32990189977613, 407.44656856643616, 407.5632352330962, 407.7965685664295]	2021_Jan_27_1232	59.93155666436618	1	0.375
12	68	FALSE	NV	a	['Y', 'C', 'G', 'M', 'S', 'R', 'N', 'W', 'U', 'X', 'J', 'K', 'E', 'V', 'H', 'B']	[2670, 829, 944, 1224, 1731, 1587, 1335, 2448, 2059, 4000, 1029, 1122, 904, 2245, 986, 760]	10	Present	NA	NA	ABSENT	0.5350120067596436	409.7682349681854	411.7807137966156	412.5973885694673	412.94739047679593	415.9004380702973	4.119724273681641	[409.7904779911041, 409.9073529243469, 410.88376212120056, 411.058424949646, 411.80907702445984, 411.92591190338135, 412.0429599285126, 412.1595709323883, 412.2765109539032, 412.3931670188904, 412.51000690460205, 412.62665605545044, 412.74348998069763, 412.86038398742676, 412.97695803642273, 413.0938630104065, 413.2105429172516, 413.3274540901184, 413.4446310997009, 413.5611400604248, 413.6779510974884, 413.90043807029724]	[409.7965685664295, 409.91323523308955, 410.89623523308956, 411.06293523308955, 411.81293523308955, 411.92960189974957, 412.0462685664096, 412.1629352330696, 412.27960189972964, 412.39626856638967, 412.5129352330497, 412.6296018997097, 412.74626856636974, 412.86293523302976, 412.9796018996898, 413.0962685663498, 413.21293523300983, 413.32960189966985, 413.4462685663299, 413.5629352329899, 413.6796018996499, 413.9129352329833]	2021_Jan_27_1232	59.93155666436618	1	0.375
12	69	FALSE	NA	a	['N', 'Y', 'R', 'V', 'B', 'T', 'U', 'X', 'Z', 'M', 'A', 'J', 'C', 'S', 'G', 'W']	[1335, 2670, 1587, 2245, 760, 1888, 2059, 4000, 2911, 1224, 697, 1029, 829, 1731, 944, 2448]	8	Present	NA	NA	ABSENT	1.0834600925445557	415.89141297340393	417.89701294898987	418.480354150103	418.8303562958502	422.01680397987366	4.119791030883789	[415.91365599632263, 416.03032898902893, 417.000128030777, 417.18163895606995, 417.93224811553955, 418.0493550300598, 418.1659529209137, 418.2827730178833, 418.3995740413666, 418.5163719654083, 418.6329789161682, 418.7499089241028, 418.86665892601013, 418.98346304893494, 419.1003050804138, 419.21714305877686, 419.33372807502747, 419.4505670070648, 419.5674560070038, 419.6841289997101, 419.80126690864563, 420.01680302619934]	[415.9129352329833, 416.0296018996433, 417.0126018996433, 417.1793018996433, 417.9293018996433, 418.0459685663033, 418.16263523296334, 418.27930189962336, 418.3959685662834, 418.5126352329434, 418.62930189960343, 418.74596856626346, 418.8626352329235, 418.9793018995835, 419.0959685662435, 419.21263523290355, 419.3293018995636, 419.4459685662236, 419.5626352328836, 419.67930189954365, 419.79596856620367, 420.029301899537]	2021_Jan_27_1232	59.93155666436618	1	0.375
12	70	FALSE	NA	a	['Z', 'P', 'N', 'G', 'J', 'K', 'E', 'X', 'S', 'H', 'Y', 'A', 'R', 'U', 'M', 'T']	[2911, 1456, 1335, 944, 1029, 1122, 904, 4000, 1731, 986, 2670, 697, 1587, 2059, 1224, 1888]	8	Present	NA	NA	ABSENT	0.576740026473999	422.0146329402923	424.0133128166199	424.5966542561516	424.9466561634802	428.13317108154297	4.119858264923096	[422.03689789772034, 422.15361309051514, 423.1164951324463, 423.2879660129547, 424.0559389591217, 424.1555349826813, 424.2724039554596, 424.3891749382019, 424.5058889389038, 424.62267112731934, 424.7394030094147, 424.8563280105591, 424.9732301235199, 425.08990597724915, 425.206748008728, 425.3235011100769, 425.44016194343567, 425.55707001686096, 425.6738691329956, 425.790785074234, 425.9075930118561, 426.13317012786865]	[422.029301899537, 422.14596856619704, 423.12896856619705, 423.29566856619704, 424.04566856619704, 424.16233523285706, 424.2790018995171, 424.3956685661771, 424.51233523283713, 424.62900189949715, 424.7456685661572, 424.8623352328172, 424.9790018994772, 425.09566856613725, 425.2123352327973, 425.3290018994573, 425.4456685661173, 425.56233523277734, 425.67900189943737, 425.7956685660974, 425.9123352327574, 426.14566856609076]	2021_Jan_27_1232	59.93155666436618	1	0.375
12	71	FALSE	NV	a	['N', 'T', 'G', 'M', 'Y', 'J', 'B', 'X', 'W', 'K', 'A', 'H', 'S', 'V', 'U', 'E']	[1335, 1888, 944, 1224, 2670, 1029, 760, 4000, 2448, 1122, 697, 986, 1731, 2245, 2059, 904]	8	Present	NA	NA	PRESENT	0.34944701194763184	428.1211268901825	430.1297688484192	430.7131102879509	431.06311219527953	434.2495379447937	4.119769096374512	[428.1433699131012, 428.26002502441406, 429.232861995697, 429.4111359119415, 430.1620469093323, 430.27890610694885, 430.39556097984314, 430.512246131897, 430.6289920806885, 430.74606704711914, 430.8625750541687, 430.97963190078735, 431.0964529514313, 431.2131869792938, 431.3300518989563, 431.44684195518494, 431.5633580684662, 431.6804029941559, 431.7971169948578, 431.9138150215149, 432.0306599140167, 432.2495379447937]	[428.14566856609076, 428.2623352327508, 429.2453352327508, 429.4120352327508, 430.1620352327508, 430.2787018994108, 430.39536856607083, 430.51203523273085, 430.6287018993909, 430.7453685660509, 430.8620352327109, 430.97870189937095, 431.09536856603097, 431.212035232691, 431.328701899351, 431.44536856601104, 431.56203523267106, 431.6787018993311, 431.7953685659911, 431.91203523265114, 432.02870189931116, 432.2620352326445]	2021_Jan_27_1232	59.93155666436618	1	0.375
12	72	FALSE	NA	a	['M', 'G', 'S', 'T', 'N', 'C', 'R', 'E', 'B', 'K', 'V', 'J', 'A', 'X', 'Z', 'Y']	[1224, 944, 1731, 1888, 1335, 829, 1587, 904, 760, 1122, 2245, 1029, 697, 4000, 2911, 2670]	14	Present	NA	NA	PRESENT	1.619054079055786	434.24439692497253	436.24607586860657	437.52941730809823	437.8794192154269	440.3659040927887	4.119828224182129	[434.26664090156555, 434.38310194015503, 435.34922909736633, 435.5342400074005, 436.2851209640503, 436.4020400047302, 436.51890301704407, 436.6354730129242, 436.75218200683594, 436.8690950870514, 436.98591113090515, 437.1025309562683, 437.21965503692627, 437.3363320827484, 437.4532210826874, 437.56972098350525, 437.6865119934082, 437.8036229610443, 437.9201970100403, 438.03690695762634, 438.1539330482483, 438.3659040927887]	[434.2620352326445, 434.37870189930453, 435.36170189930453, 435.5284018993045, 436.2784018993045, 436.39506856596455, 436.5117352326246, 436.6284018992846, 436.7450685659446, 436.86173523260464, 436.97840189926467, 437.0950685659247, 437.2117352325847, 437.32840189924474, 437.44506856590476, 437.5617352325648, 437.6784018992248, 437.79506856588483, 437.91173523254486, 438.0284018992049, 438.1450685658649, 438.37840189919825]	2021_Jan_27_1232	59.93155666436618	1	0.375
12	73	FALSE	NV	a	['E', 'Y', 'S', 'T', 'R', 'J', 'H', 'V', 'Z', 'X', 'P', 'G', 'M', 'A', 'W', 'C']	[904, 2670, 1731, 1888, 1587, 1029, 986, 2245, 2911, 4000, 1456, 944, 1224, 697, 2448, 829]	10	Present	NA	NA	PRESENT	1.9352290630340576	440.35057497024536	442.3625438213349	443.1792176405122	443.52921954784085	446.4822700023651	4.119726181030273	[440.37281799316406, 440.48974990844727, 441.46559405326843, 441.64071106910706, 442.39169812202454, 442.508455991745, 442.6252439022064, 442.74203300476074, 442.8588271141052, 442.9755370616913, 443.0924310684204, 443.20923590660095, 443.3258399963379, 443.4431071281433, 443.55959701538086, 443.67639803886414, 443.79321098327637, 443.91010904312134, 444.0267391204834, 444.143728017807, 444.26036190986633, 444.48227095603943]	[440.37840189919825, 440.4950685658583, 441.4780685658583, 441.64476856585827, 442.39476856585827, 442.5114352325183, 442.6281018991783, 442.74476856583834, 442.86143523249837, 442.9781018991584, 443.0947685658184, 443.21143523247844, 443.32810189913846, 443.4447685657985, 443.5614352324585, 443.67810189911853, 443.79476856577855, 443.9114352324386, 444.0281018990986, 444.1447685657586, 444.26143523241865, 444.494768565752]	2021_Jan_27_1232	59.93155666436618	1	0.375
12	74	FALSE	NA	a	['A', 'Y', 'W', 'B', 'N', 'G', 'T', 'Z', 'X', 'S', 'M', 'R', 'U', 'H', 'K', 'C']	[697, 2670, 2448, 760, 1335, 944, 1888, 2911, 4000, 1731, 1224, 1587, 2059, 986, 1122, 829]	9	Present	NA	NA	PRESENT	0.7398362159729004	446.4738438129425	448.4789159297943	449.17892379756745	449.5289259433146	452.59863805770874	4.119722127914429	[446.4960870742798, 446.6129341125488, 447.58196091651917, 447.76389503479004, 448.5147259235382, 448.63152408599854, 448.7485160827637, 448.8650629520416, 448.9818329811096, 449.0988609790802, 449.2154679298401, 449.33236598968506, 449.4491169452667, 449.56639790534973, 449.68274903297424, 449.79962491989136, 449.91623306274414, 450.0330379009247, 450.1498739719391, 450.2665979862213, 450.38337993621826, 450.59863805770874]	[446.494768565752, 446.611435232412, 447.594435232412, 447.761135232412, 448.511135232412, 448.62780189907204, 448.74446856573206, 448.8611352323921, 448.9778018990521, 449.09446856571213, 449.21113523237216, 449.3278018990322, 449.4444685656922, 449.5611352323522, 449.67780189901225, 449.7944685656723, 449.9111352323323, 450.0278018989923, 450.14446856565235, 450.26113523231237, 450.3778018989724, 450.61113523230574]	2021_Jan_27_1232	59.93155666436618	1	0.375
12	75	FALSE	NV	a	['R', 'A', 'U', 'G', 'B', 'N', 'M', 'V', 'S', 'C', 'K', 'X', 'T', 'W', 'E', 'Z']	[1587, 697, 2059, 944, 760, 1335, 1224, 2245, 1731, 829, 1122, 4000, 1888, 2448, 904, 2911]	12	Present	NA	NA	PRESENT	1.113281011581421	452.59716796875	454.59523701667786	455.64524488443095	455.9952458380853	458.7150030136109	4.119765996932983	[452.6194109916687, 452.73589301109314, 453.69832706451416, 453.87068009376526, 454.63810110092163, 454.7381019592285, 454.85470390319824, 454.97160291671753, 455.0883460044861, 455.2052409648895, 455.3218951225281, 455.4386670589447, 455.5557339191437, 455.67243909835815, 455.7891380786896, 455.9060730934143, 456.0227210521698, 456.13956689834595, 456.2563180923462, 456.3732109069824, 456.4898750782013, 456.71500301361084]	[452.61113523230574, 452.72780189896577, 453.71080189896577, 453.87750189896576, 454.62750189896576, 454.7441685656258, 454.8608352322858, 454.97750189894583, 455.09416856560586, 455.2108352322659, 455.3275018989259, 455.4441685655859, 455.56083523224595, 455.677501898906, 455.794168565566, 455.910835232226, 456.02750189888604, 456.14416856554607, 456.2608352322061, 456.3775018988661, 456.49416856552614, 456.7275018988595]	2021_Jan_27_1232	59.93155666436618	1	0.375
12	76	FALSE	NN	a	['B', 'U', 'R', 'T', 'W', 'P', 'K', 'E', 'A', 'H', 'G', 'M', 'C', 'V', 'S', 'N']	[760, 2059, 1587, 1888, 2448, 1456, 1122, 904, 697, 986, 944, 1224, 829, 2245, 1731, 1335]	14	Absent	NA	NA	ABSENT	0.47759485244750977	458.7035079002381	460.7115728855133	461.99491432500497	462.3449162323336	464.83137106895447	4.119798183441162	[458.72575092315674, 458.8425030708313, 459.8146939277649, 459.99366307258606, 460.74446296691895, 460.86133313179016, 460.9779689311981, 461.0948839187622, 461.2115590572357, 461.3284249305725, 461.44512701034546, 461.56205201148987, 461.67866492271423, 461.7957079410553, 461.91230297088623, 462.0293200016022, 462.14581394195557, 462.26272201538086, 462.3793890476227, 462.4962360858917, 462.6130061149597, 462.83137106895447]	[458.7275018988595, 458.8441685655195, 459.8271685655195, 459.9938685655195, 460.7438685655195, 460.86053523217953, 460.97720189883955, 461.0938685654996, 461.2105352321596, 461.3272018988196, 461.44386856547965, 461.56053523213967, 461.6772018987997, 461.7938685654597, 461.91053523211974, 462.02720189877977, 462.1438685654398, 462.2605352320998, 462.37720189875984, 462.49386856541986, 462.6105352320799, 462.84386856541323]	2021_Jan_27_1232	59.93155666436618	1	0.375
12	77	FALSE	VA	a	['A', 'S', 'N', 'Y', 'G', 'M', 'U', 'surprise', 'C', 'Z', 'X', 'J', 'K', 'W', 'R', 'E']	[697, 1731, 1335, 2670, 944, 1224, 2059, 'stimAuditory/all_stimAuditory/215.wav', 829, 2911, 4000, 1029, 1122, 2448, 1587, 904]	11	Present	NA	NA	ABSENT	0.17907094955444336	464.8265538215637	466.8279809951782	467.76132219627135	468.1113243420185	470.9477369785309	4.119755983352661	[464.848797082901, 464.9656960964203, 465.9310619831085, 466.1168510913849, 466.86766505241394, 466.984295129776, 467.1011950969696, 467.2179889678955, 467.3347511291504, 467.45159912109375, 467.5682590007782, 467.6850390434265, 467.80192399024963, 467.9186189174652, 468.0356819629669, 468.1522181034088, 468.2523081302643, 468.36910700798035, 468.4859399795532, 468.60272693634033, 468.71954107284546, 468.9477379322052]	[464.84386856541323, 464.96053523207325, 465.94353523207326, 466.11023523207325, 466.86023523207325, 466.9769018987333, 467.0935685653933, 467.2102352320533, 467.32690189871334, 467.44356856537337, 467.5602352320334, 467.6769018986934, 467.79356856535344, 467.91023523201346, 468.0269018986735, 468.1435685653335, 468.26023523199353, 468.37690189865356, 468.4935685653136, 468.6102352319736, 468.7269018986336, 468.960235231967]	2021_Jan_27_1232	59.93155666436618	1	0.375
12	78	FALSE	NA	a	['C', 'P', 'R', 'K', 'G', 'S', 'M', 'X', 'B', 'A', 'W', 'U', 'V', 'T', 'E', 'Y']	[829, 1456, 1587, 1122, 944, 1731, 1224, 4000, 760, 697, 2448, 2059, 2245, 1888, 904, 2670]	8	Present	NA	NA	PRESENT	0.3195152282714844	470.9329798221588	472.9442479610443	473.5275882084831	473.87759011581176	477.0641040802002	4.119856119155884	[470.9552221298218, 471.0720479488373, 472.0474281311035, 472.223473072052, 472.9741449356079, 473.0908589363098, 473.2075080871582, 473.32442808151245, 473.4414749145508, 473.5580611228943, 473.67482805252075, 473.7917699813843, 473.90832710266113, 474.02533507347107, 474.14190196990967, 474.25877594947815, 474.3755009174347, 474.4922959804535, 474.60920095443726, 474.7258961200714, 474.8428111076355, 475.0641031265259]	[470.960235231967, 471.076901898627, 472.059901898627, 472.226601898627, 472.976601898627, 473.093268565287, 473.20993523194704, 473.32660189860707, 473.4432685652671, 473.5599352319271, 473.67660189858714, 473.79326856524716, 473.9099352319072, 474.0266018985672, 474.14326856522723, 474.25993523188725, 474.3766018985473, 474.4932685652073, 474.6099352318673, 474.72660189852735, 474.8432685651874, 475.0766018985207]	2021_Jan_27_1232	59.93155666436618	1	0.375
12	79	FALSE	NN	a	['W', 'S', 'V', 'M', 'B', 'G', 'A', 'P', 'H', 'N', 'T', 'U', 'E', 'C', 'R', 'J']	[2448, 1731, 2245, 1224, 760, 944, 697, 1456, 986, 1335, 1888, 2059, 904, 829, 1587, 1029]	9	Absent	NA	NA	ABSENT	0.6363050937652588	477.0561499595642	479.0607488155365	479.7607569217282	480.1107597827311	483.1804709434509	4.119722127914429	[477.0784149169922, 477.1953239440918, 478.16379404067993, 478.3466229438782, 479.09736490249634, 479.21400594711304, 479.3307340145111, 479.4477689266205, 479.5643060207367, 479.68136405944824, 479.79795503616333, 479.9147651195526, 480.031592130661, 480.1484270095825, 480.2652189731598, 480.38188910484314, 480.4988639354706, 480.61546993255615, 480.73252391815186, 480.84928798675537, 480.9660439491272, 481.1804699897766]	[477.0766018985207, 477.19326856518074, 478.17626856518075, 478.34296856518074, 479.09296856518074, 479.20963523184076, 479.3263018985008, 479.4429685651608, 479.55963523182083, 479.67630189848086, 479.7929685651409, 479.9096352318009, 480.02630189846093, 480.14296856512095, 480.259635231781, 480.376301898441, 480.492968565101, 480.60963523176105, 480.72630189842107, 480.8429685650811, 480.9596352317411, 481.19296856507447]	2021_Jan_27_1232	59.93155666436618	1	0.375
