participant	trial_num	practice	task	condition	RSVP	RAP	probePos	probe_presence	surprise_sound	surprise_img	probe_response	probe_resp_time	first_fixation_time	trial_start_time	surprise_start_time	probe_start_time	trial_end_time	trial_duration	actualEventTimes	plannedEventTimes	date	framerate	marker_vol	RAP_vol
4	1	FALSE	NN	a	['H', 'A', 'J', 'Z', 'R', 'P', 'M', 'G', 'B', 'E', 'K', 'W', 'S', 'N', 'Y', 'T']	[986, 697, 1029, 2911, 1587, 1456, 1224, 944, 760, 904, 1122, 2448, 1731, 1335, 2670, 1888]	8	Absent	NA	NA	ABSENT	0.7942569255828857	3.0994415283203125e-6	1.9896249771118164	2.5729673703178224	2.9229692776464553	6.1038689613342285	4.114243984222412	[0.020283937454223633, 0.1201179027557373, 1.0871920585632324, 1.2714059352874756, 2.021998882293701, 2.13896107673645, 2.2557129859924316, 2.3725578784942627, 2.4892430305480957, 2.6061179637908936, 2.7228639125823975, 2.8397319316864014, 2.9563660621643066, 3.0731818675994873, 3.1903529167175293, 3.3068249225616455, 3.423532009124756, 3.54065203666687, 3.657059907913208, 3.7739861011505127, 3.8908779621124268, 4.1038689613342285]	[9.5367431640625e-07, 0.11666762033431641, 1.0996676203343163, 1.2663676203343164, 2.016367620334316, 2.133034286994316, 2.249700953654316, 2.3663676203143162, 2.4830342869743163, 2.5997009536343163, 2.7163676202943163, 2.8330342869543164, 2.9497009536143164, 3.0663676202743164, 3.1830342869343164, 3.2997009535943165, 3.4163676202543165, 3.5330342869143165, 3.6497009535743166, 3.7663676202343166, 3.8830342868943166, 4.11636762022765]	2020_Nov_26_1105	59.9822954936454	1	0.375
4	2	FALSE	NV	a	['U', 'K', 'Z', 'N', 'B', 'G', 'M', 'X', 'S', 'J', 'T', 'C', 'H', 'E', 'W', 'A']	[2059, 1122, 2911, 1335, 760, 944, 1224, 4000, 1731, 1029, 1888, 829, 986, 904, 2448, 697]	8	Present	NA	NA	ABSENT	0.7272229194641113	6.089367151260376	8.102615118026733	8.685955365465528	9.03595727279416	12.220237016677856	4.117621898651123	[6.109648942947388, 6.226377010345459, 7.203561067581177, 7.377856016159058, 8.128371953964233, 8.245248079299927, 8.362154006958008, 8.478959083557129, 8.59584093093872, 8.712403059005737, 8.829418897628784, 8.946064949035645, 9.06307601928711, 9.179589033126831, 9.296561002731323, 9.41331696510315, 9.530181884765625, 9.64699101448059, 9.76377010345459, 9.880361080169678, 9.99737000465393, 10.220237016677856]	[6.11636762022765, 6.23303428688765, 7.216034286887649, 7.382734286887649, 8.132734286887649, 8.24940095354765, 8.36606762020765, 8.48273428686765, 8.59940095352765, 8.716067620187651, 8.832734286847652, 8.949400953507652, 9.066067620167653, 9.182734286827653, 9.299400953487654, 9.416067620147654, 9.532734286807655, 9.649400953467655, 9.766067620127656, 9.882734286787656, 9.999400953447656, 10.232734286780989]	2020_Nov_26_1105	59.9822954936454	1	0.375
4	3	FALSE	NN	a	['N', 'H', 'U', 'S', 'J', 'G', 'Y', 'V', 'M', 'A', 'Z', 'K', 'P', 'R', 'C', 'T']	[1335, 986, 2059, 1731, 1029, 944, 2670, 2245, 1224, 697, 2911, 1122, 1456, 1587, 829, 1888]	12	Absent	NA	NA	ABSENT	1.4682948589324951	12.212720155715942	14.21875500679016	15.268762159287537	15.618764066616167	18.336602926254272	4.117847919464111	[12.233001947402954, 12.34982705116272, 13.31992793083191, 13.50114393234253, 14.251784086227417, 14.368571043014526, 14.48543405532837, 14.602035999298096, 14.718934059143066, 14.835830926895142, 14.952554941177368, 15.06933307647705, 15.186131954193115, 15.302772998809814, 15.419760942459106, 15.536453008651733, 15.653178930282593, 15.770180940628052, 15.8868088722229, 16.003791093826294, 16.120440006256104, 16.336602926254272]	[12.232734286780989, 12.34940095344099, 13.33240095344099, 13.49910095344099, 14.24910095344099, 14.365767620100991, 14.482434286760991, 14.599100953420992, 14.715767620080992, 14.832434286740993, 14.949100953400993, 15.065767620060994, 15.182434286720994, 15.299100953380995, 15.415767620040995, 15.532434286700996, 15.649100953360996, 15.765767620020997, 15.882434286680997, 15.999100953340998, 16.115767620000998, 16.349100953334332]	2020_Nov_26_1105	59.9822954936454	1	0.375
4	4	FALSE	AV	a	['U', 'Z', 'M', 'K', 'W', 'S', 'surprise', 'N', 'R', 'X', 'J', 'G', 'P', 'E', 'A', 'Y']	[2059, 2911, 1224, 1122, 2448, 1731, 'stimAuditory/all_stimAuditory/103.wav', 1335, 1587, 4000, 1029, 944, 1456, 904, 697, 2670]	10	Present	stimAuditory/all_stimAuditory/103.wav	NA	PRESENT	0.09721899032592772	18.335834980010983	20.335474967956543	21.15214878713392	21.50215069446255	24.452970027923584	4.117495059967041	[18.35611605644226, 18.472919940948486, 19.436294078826904, 19.624238967895508, 20.37532687187195, 20.474936962127686, 20.59164309501648, 20.708484888076782, 20.825257062911987, 20.942092895507812, 21.0590660572052, 21.175697088241577, 21.29240608215332, 21.409210920333862, 21.526150941848755, 21.642992973327637, 21.75981593132019, 21.876506090164185, 21.993453979492188, 22.11020588874817, 22.227035999298096, 22.452969074249268]	[18.349100953334332, 18.46576761999433, 19.44876761999433, 19.61546761999433, 20.36546761999433, 20.48213428665433, 20.598800953314328, 20.715467619974326, 20.832134286634325, 20.948800953294324, 21.065467619954322, 21.18213428661432, 21.29880095327432, 21.41546761993432, 21.532134286594317, 21.648800953254316, 21.765467619914315, 21.882134286574313, 21.998800953234312, 22.11546761989431, 22.23213428655431, 22.465467619887644]	2020_Nov_26_1105	59.9822954936454	1	0.375
4	5	FALSE	NV	a	['W', 'P', 'C', 'B', 'S', 'V', 'H', 'R', 'Z', 'J', 'K', 'X', 'Y', 'A', 'U', 'M']	[2448, 1456, 829, 760, 1731, 2245, 986, 1587, 2911, 1029, 1122, 4000, 2670, 697, 2059, 1224]	12	Present	NA	NA	PRESENT	1.8218557834625244	24.44237494468689	26.451648950576782	27.501658010422787	27.851658964077103	30.5693359375	4.117686986923218	[24.462657928466797, 24.579231023788452, 25.552659034729004, 25.730683088302612, 26.481528997421265, 26.598222970962524, 26.715022087097168, 26.831743955612183, 26.948540925979614, 27.065274953842163, 27.18219304084778, 27.298950910568237, 27.415787935256958, 27.532495975494385, 27.649489879608154, 27.76616907119751, 27.883035898208618, 27.999743938446045, 28.116513967514038, 28.233350038528442, 28.349984884262085, 28.5693359375]	[24.465467619887644, 24.582134286547642, 25.565134286547643, 25.73183428654764, 26.48183428654764, 26.59850095320764, 26.71516761986764, 26.831834286527638, 26.948500953187636, 27.065167619847635, 27.181834286507634, 27.298500953167633, 27.41516761982763, 27.53183428648763, 27.64850095314763, 27.765167619807627, 27.881834286467626, 27.998500953127625, 28.115167619787623, 28.231834286447622, 28.34850095310762, 28.581834286440955]	2020_Nov_26_1105	59.9822954936454	1	0.375
4	6	FALSE	NV	a	['Z', 'W', 'V', 'B', 'A', 'G', 'K', 'U', 'C', 'N', 'E', 'X', 'M', 'J', 'S', 'Y']	[2911, 2448, 2245, 760, 697, 944, 1122, 2059, 829, 1335, 904, 4000, 1224, 1029, 1731, 2670]	12	Present	NA	NA	PRESENT	0.17052292823791504	30.565627098083496	32.56816601753235	33.61817412370404	33.96817603103267	36.68570399284363	4.117537975311279	[30.585908889770508, 30.70271396636963, 31.669028997421265, 31.853962898254395, 32.60460591316223, 32.7214789390564, 32.838093996047974, 32.95485591888428, 33.07166409492493, 33.18848705291748, 33.30555295944214, 33.42207098007202, 33.53873896598816, 33.655802965164185, 33.77239990234375, 33.88936901092529, 34.006067991256714, 34.122885942459106, 34.239825963974, 34.35642194747925, 34.47346591949463, 34.68570399284363]	[30.581834286440955, 30.698500953100954, 31.681500953100954, 31.848200953100953, 32.59820095310096, 32.71486761976096, 32.83153428642096, 32.94820095308096, 33.064867619740966, 33.18153428640097, 33.29820095306097, 33.41486761972097, 33.531534286380975, 33.64820095304098, 33.76486761970098, 33.88153428636098, 33.998200953020984, 34.114867619680986, 34.23153428634099, 34.34820095300099, 34.46486761966099, 34.69820095299433]	2020_Nov_26_1105	59.9822954936454	1	0.375
4	7	FALSE	NV	a	['Z', 'U', 'S', 'T', 'A', 'R', 'N', 'E', 'X', 'V', 'B', 'G', 'W', 'P', 'C', 'J']	[2911, 2059, 1731, 1888, 697, 1587, 1335, 904, 4000, 2245, 760, 944, 2448, 1456, 829, 1029]	9	Present	NA	NA	PRESENT	0.16775012016296387	36.67196202278137	38.684366941452026	39.384375047643715	39.73437695497235	42.80206990242005	4.117702960968018	[36.69224309921265, 36.809114933013916, 37.785393953323364, 37.96015787124634, 38.711118936538696, 38.82788705825806, 38.944873094558716, 39.06135702133179, 39.17821907997131, 39.29497289657593, 39.41195487976074, 39.528488874435425, 39.64555287361145, 39.76211094856262, 39.879071950912476, 39.99575090408325, 40.11297607421875, 40.22938895225525, 40.34611797332764, 40.462955951690674, 40.57977104187012, 40.802069902420044]	[36.69820095299433, 36.81486761965433, 37.797867619654326, 37.964567619654325, 38.714567619654325, 38.83123428631433, 38.94790095297433, 39.06456761963433, 39.181234286294334, 39.297900952954336, 39.41456761961434, 39.53123428627434, 39.64790095293434, 39.764567619594345, 39.88123428625435, 39.99790095291435, 40.11456761957435, 40.231234286234354, 40.347900952894356, 40.46456761955436, 40.58123428621436, 40.814567619547695]	2020_Nov_26_1105	59.9822954936454	1	0.375
4	8	FALSE	NN	a	['Z', 'S', 'R', 'K', 'J', 'M', 'T', 'B', 'P', 'H', 'A', 'G', 'V', 'C', 'W', 'N']	[2911, 1731, 1587, 1122, 1029, 1224, 1888, 760, 1456, 986, 697, 944, 2245, 829, 2448, 1335]	14	Absent	NA	NA	PRESENT	0.5725278854370117	42.795215129852295	44.80060815811157	46.083949359184686	46.4339515049319	48.91843605041504	4.117827892303467	[42.81549787521362, 42.9323570728302, 43.901761054992676, 44.083595991134644, 44.83430600166321, 44.95105695724487, 45.06789708137512, 45.18462800979614, 45.301536083221436, 45.418214082717896, 45.53502702713013, 45.65183997154236, 45.768661975860596, 45.885523080825806, 46.002110958099365, 46.118870973587036, 46.23589897155762, 46.3526029586792, 46.46948599815369, 46.58629107475281, 46.70285701751709, 46.91843605041504]	[42.814567619547695, 42.9312342862077, 43.914234286207694, 44.08093428620769, 44.83093428620769, 44.947600952867695, 45.0642676195277, 45.1809342861877, 45.2976009528477, 45.414267619507704, 45.53093428616771, 45.64760095282771, 45.76426761948771, 45.88093428614771, 45.997600952807716, 46.11426761946772, 46.23093428612772, 46.34760095278772, 46.464267619447725, 46.58093428610773, 46.69760095276773, 46.93093428610106]	2020_Nov_26_1105	59.9822954936454	1	0.375
4	9	FALSE	NA	a	['H', 'E', 'Y', 'J', 'U', 'Z', 'S', 'A', 'W', 'P', 'G', 'M', 'X', 'V', 'C', 'R']	[986, 904, 2670, 1029, 2059, 2911, 1731, 697, 2448, 1456, 944, 1224, 4000, 2245, 829, 1587]	13	Present	NA	NA	ABSENT	0.49762511253356934	48.918272972106934	50.91699504852295	52.08366982135464	52.43367172868327	55.034801959991455	4.117806911468506	[48.93855404853821, 49.05549907684326, 50.01812505722046, 50.190157890319824, 50.95760107040405, 51.05749702453613, 51.17432904243469, 51.291099071502686, 51.407922983169556, 51.524576902389526, 51.64150404930115, 51.75833797454834, 51.875142097473145, 51.99183797836304, 52.10882091522217, 52.22548294067383, 52.342381954193115, 52.45905089378357, 52.575905084609985, 52.69263696670532, 52.80952787399292, 53.03480291366577]	[48.93093428610106, 49.047600952761066, 50.03060095276106, 50.19730095276106, 50.94730095276106, 51.063967619421064, 51.180634286081066, 51.29730095274107, 51.41396761940107, 51.53063428606107, 51.647300952721075, 51.76396761938108, 51.88063428604108, 51.99730095270108, 52.113967619361084, 52.230634286021086, 52.34730095268109, 52.46396761934109, 52.58063428600109, 52.697300952661095, 52.8139676193211, 53.04730095265443]	2020_Nov_26_1105	59.9822954936454	1	0.375
4	10	FALSE	NA	a	['T', 'A', 'Y', 'H', 'P', 'Z', 'C', 'G', 'J', 'V', 'K', 'X', 'M', 'E', 'R', 'S']	[1888, 697, 2670, 986, 1456, 2911, 829, 944, 1029, 2245, 1122, 4000, 1224, 904, 1587, 1731]	12	Present	NA	NA	PRESENT	0.6055002212524414	55.0249719619751	57.03328204154968	58.08329014772137	58.43329205505	61.15116906166077	4.117887020111084	[55.045254945755005, 55.16212201118469, 56.13449287414551, 56.31328892707825, 57.06401300430298, 57.18071103096008, 57.29758095741272, 57.414413928985596, 57.531195878982544, 57.64794206619263, 57.76482605934143, 57.88153696060181, 57.998286962509155, 58.115243911743164, 58.23202109336853, 58.348742961883545, 58.465436935424805, 58.582321882247925, 58.69928693771362, 58.815860986709595, 58.93257188796997, 59.15116906166077]	[55.04730095265443, 55.163967619314434, 56.14696761931443, 56.31366761931443, 57.06366761931443, 57.18033428597443, 57.297000952634434, 57.413667619294436, 57.53033428595444, 57.64700095261444, 57.76366761927444, 57.880334285934445, 57.99700095259445, 58.11366761925445, 58.23033428591445, 58.347000952574454, 58.46366761923446, 58.58033428589446, 58.69700095255446, 58.81366761921446, 58.930334285874466, 59.1636676192078]	2020_Nov_26_1105	59.9822954936454	1	0.375
4	11	FALSE	NN	a	['S', 'P', 'W', 'H', 'Y', 'E', 'J', 'R', 'C', 'U', 'Z', 'M', 'B', 'K', 'T', 'G']	[1731, 1456, 2448, 986, 2670, 904, 1029, 1587, 829, 2059, 2911, 1224, 760, 1122, 1888, 944]	12	Absent	NA	NA	ABSENT	0.8595328330993652	61.148473024368286	63.14972496032715	64.19973306649884	64.54973497382747	67.26753687858582	4.117811918258667	[61.16875600814819, 61.28524088859558, 62.25086188316345, 62.4363489151001, 63.18716597557068, 63.30405592918396, 63.420835971832275, 63.53777003288269, 63.654479026794434, 63.771162033081055, 63.88792300224304, 64.00475907325745, 64.1216208934784, 64.23843789100647, 64.35498094558716, 64.47194290161133, 64.58860206604004, 64.70526790618896, 64.80529403686523, 64.92213606834412, 65.03899002075195, 65.2675359249115]	[61.1636676192078, 61.2803342858678, 62.2633342858678, 62.4300342858678, 63.1800342858678, 63.2967009525278, 63.4133676191878, 63.530034285847805, 63.64670095250781, 63.76336761916781, 63.88003428582781, 63.996700952487814, 64.11336761914781, 64.2300342858078, 64.3467009524678, 64.4633676191278, 64.58003428578779, 64.69670095244778, 64.81336761910778, 64.93003428576777, 65.04670095242777, 65.2800342857611]	2020_Nov_26_1105	59.9822954936454	1	0.375
4	12	FALSE	NN	a	['K', 'R', 'N', 'U', 'C', 'H', 'V', 'P', 'A', 'M', 'B', 'E', 'W', 'G', 'S', 'T']	[1122, 1587, 1335, 2059, 829, 986, 2245, 1456, 697, 1224, 760, 904, 2448, 944, 1731, 1888]	8	Absent	NA	NA	PRESENT	1.4639511108398438	67.25459909439087	69.26607012748718	69.8494113286003	70.19941347434751	73.38390398025513	4.117833852767944	[67.27490305900574, 67.39154601097107, 68.36722707748413, 68.54282402992249, 69.29364395141602, 69.41031002998352, 69.52741193771362, 69.64406609535217, 69.76093697547913, 69.87753200531006, 69.9943950176239, 70.11109495162964, 70.22801899909973, 70.34466290473938, 70.46162390708923, 70.57830905914307, 70.69513607025146, 70.81186604499817, 70.92883396148682, 71.0458619594574, 71.16240096092224, 71.38390398025513]	[67.2800342857611, 67.3967009524211, 68.3797009524211, 68.54640095242111, 69.29640095242111, 69.4130676190811, 69.5297342857411, 69.6464009524011, 69.76306761906109, 69.87973428572109, 69.99640095238108, 70.11306761904108, 70.22973428570107, 70.34640095236107, 70.46306761902106, 70.57973428568106, 70.69640095234105, 70.81306761900105, 70.92973428566104, 71.04640095232104, 71.16306761898103, 71.39640095231437]	2020_Nov_26_1105	59.9822954936454	1	0.375
4	13	FALSE	NN	a	['Y', 'Z', 'J', 'U', 'G', 'B', 'N', 'V', 'R', 'W', 'K', 'H', 'A', 'S', 'E', 'M']	[2670, 2911, 1029, 2059, 944, 760, 1335, 2245, 1587, 2448, 1122, 986, 697, 1731, 904, 1224]	12	Absent	NA	NA	NONE	-1	73.37781596183777	75.38267517089844	76.43268208497723	76.78268494598018	79.52131605148315	4.138640880584717	[73.39809703826904, 73.51471090316772, 74.48359394073486, 74.66586804389954, 75.41681790351868, 75.533686876297, 75.6504418849945, 75.7672369480133, 75.88387894630432, 76.00089597702026, 76.11775302886963, 76.23444390296936, 76.35120010375977, 76.46801590919495, 76.58481502532959, 76.70149993896484, 76.81824588775635, 76.93506288528442, 77.0517930984497, 77.16923904418945, 77.28554487228394, 77.50026798248291]	[73.39640095231437, 73.51306761897436, 74.49606761897437, 74.66276761897437, 75.41276761897437, 75.52943428563437, 75.64610095229436, 75.76276761895436, 75.87943428561435, 75.99610095227435, 76.11276761893434, 76.22943428559434, 76.34610095225433, 76.46276761891433, 76.57943428557432, 76.69610095223432, 76.81276761889431, 76.92943428555431, 77.0461009522143, 77.1627676188743, 77.2794342855343, 77.51276761886763]	2020_Nov_26_1105	59.9822954936454	1	0.375
4	14	FALSE	NN	a	['H', 'U', 'K', 'S', 'Z', 'T', 'W', 'P', 'C', 'R', 'B', 'A', 'J', 'N', 'V', 'M']	[986, 2059, 1122, 1731, 2911, 1888, 2448, 1456, 829, 1587, 760, 697, 1029, 1335, 2245, 1224]	13	Absent	NA	NA	ABSENT	0.849923849105835	79.51767802238464	81.49875807762146	82.66543165836025	83.01543475778178	85.61663603782654	4.117877960205078	[79.53796005249023, 79.63798093795776, 80.59996104240417, 80.78922700881958, 81.54021096229553, 81.64021492004395, 81.75694394111633, 81.87366008758545, 81.99057006835938, 82.10728001594543, 82.22413992881775, 82.34077596664429, 82.45763397216797, 82.57432889938354, 82.69122195243835, 82.80805802345276, 82.9249758720398, 83.04150891304016, 83.1584210395813, 83.27516508102417, 83.39183306694031, 83.61663603782654]	[79.51276761886763, 79.62943428552762, 80.61243428552763, 80.77913428552763, 81.52913428552763, 81.64580095218763, 81.76246761884762, 81.87913428550762, 81.99580095216761, 82.11246761882761, 82.2291342854876, 82.3458009521476, 82.4624676188076, 82.57913428546759, 82.69580095212758, 82.81246761878758, 82.92913428544757, 83.04580095210757, 83.16246761876756, 83.27913428542756, 83.39580095208755, 83.62913428542089]	2020_Nov_26_1105	59.9822954936454	1	0.375
4	15	FALSE	NA	a	['R', 'A', 'S', 'E', 'M', 'J', 'Y', 'K', 'T', 'G', 'U', 'N', 'X', 'B', 'P', 'V']	[1587, 697, 1731, 904, 1224, 1029, 2670, 1122, 1888, 944, 2059, 1335, 4000, 760, 1456, 2245]	13	Present	NA	NA	PRESENT	0.8862950801849365	85.60745406150818	87.61528515815735	88.78195873889614	89.13196064622477	91.73300290107728	4.117717742919922	[85.62773704528809, 85.74458289146423, 86.71632790565491, 86.89591407775879, 87.64641094207764, 87.76332092285156, 87.88014388084412, 87.99696087837219, 88.11376595497131, 88.23055791854858, 88.34730887413025, 88.46399307250977, 88.58095502853394, 88.69753408432007, 88.81427097320557, 88.9311830997467, 89.04792499542236, 89.16487693786621, 89.28161692619324, 89.39846301078796, 89.5151309967041, 89.73300290107727]	[85.62913428542089, 85.74580095208088, 86.72880095208089, 86.8955009520809, 87.6455009520809, 87.76216761874089, 87.87883428540088, 87.99550095206088, 88.11216761872087, 88.22883428538087, 88.34550095204087, 88.46216761870086, 88.57883428536086, 88.69550095202085, 88.81216761868085, 88.92883428534084, 89.04550095200084, 89.16216761866083, 89.27883428532083, 89.39550095198082, 89.51216761864082, 89.74550095197415]	2020_Nov_26_1105	59.9822954936454	1	0.375
4	16	FALSE	NV	a	['E', 'K', 'G', 'W', 'C', 'U', 'M', 'J', 'N', 'B', 'T', 'P', 'Z', 'X', 'A', 'V']	[904, 1122, 944, 2448, 829, 2059, 1224, 1029, 1335, 760, 1888, 1456, 2911, 4000, 697, 2245]	14	Present	NA	NA	PRESENT	1.4598779678344729	91.73094606399536	93.73147106170654	95.01481250119824	95.36481440852688	97.84937000274658	4.117898941040039	[91.75122904777527, 91.86755299568176, 92.83269500732422, 93.0187599658966, 93.76968097686768, 93.88663101196289, 94.00332498550415, 94.12007808685303, 94.23675894737244, 94.35353994369507, 94.4705719947815, 94.58738899230957, 94.70405292510986, 94.80392098426819, 94.92066407203674, 95.03757786750793, 95.15434002876282, 95.27112102508545, 95.38792395591736, 95.50470805168152, 95.62150406837463, 95.84936904907227]	[91.74550095197415, 91.86216761863415, 92.84516761863415, 93.01186761863416, 93.76186761863416, 93.87853428529415, 93.99520095195415, 94.11186761861414, 94.22853428527414, 94.34520095193413, 94.46186761859413, 94.57853428525412, 94.69520095191412, 94.81186761857411, 94.92853428523411, 95.0452009518941, 95.1618676185541, 95.27853428521409, 95.39520095187409, 95.51186761853408, 95.62853428519408, 95.86186761852741]	2020_Nov_26_1105	59.9822954936454	1	0.375
4	17	FALSE	VA	a	['K', 'M', 'U', 'N', 'H', 'A', 'surprise', 'E', 'Z', 'X', 'C', 'T', 'V', 'R', 'J', 'P']	[1122, 1224, 2059, 1335, 986, 697, 'stimAuditory/all_stimAuditory/213.wav', 904, 2911, 4000, 829, 1888, 2245, 1587, 1029, 1456]	10	Present	NA	NA	ABSENT	0.8322999477386475	97.83704996109007	99.84798908233644	100.6646626630952	101.01466480884244	103.96573686599731	4.117747783660889	[97.85733294487, 97.97401595115662, 98.94906091690063, 99.12535405158997, 99.87616801261902, 99.99295401573181, 100.1097719669342, 100.22663593292236, 100.34322309494019, 100.46002697944641, 100.57682609558105, 100.69358897209167, 100.810702085495, 100.92737197875977, 101.04419898986816, 101.160719871521, 101.27774596214294, 101.39456486701965, 101.51131105422974, 101.62808203697205, 101.7447350025177, 101.965735912323]	[97.86186761852741, 97.97853428518741, 98.96153428518741, 99.12823428518742, 99.87823428518742, 99.99490095184741, 100.11156761850741, 100.2282342851674, 100.3449009518274, 100.4615676184874, 100.57823428514739, 100.69490095180738, 100.81156761846738, 100.92823428512737, 101.04490095178737, 101.16156761844736, 101.27823428510736, 101.39490095176735, 101.51156761842735, 101.62823428508734, 101.74490095174734, 101.97823428508067]	2020_Nov_26_1105	59.9822954936454	1	0.375
4	18	FALSE	NA	a	['U', 'B', 'E', 'H', 'A', 'N', 'T', 'R', 'V', 'Y', 'C', 'X', 'G', 'W', 'S', 'M']	[2059, 760, 904, 986, 697, 1335, 1888, 1587, 2245, 2670, 829, 4000, 944, 2448, 1731, 1224]	12	Present	NA	NA	PRESENT	1.764909029006958	103.96029901504517	105.96428608894348	107.0142939566966	107.3642961024438	110.08210301399232	4.117816925048828	[103.98058009147644, 104.09729790687561, 105.06542801856995, 105.24864602088928, 105.99939298629761, 106.11612296104431, 106.23287200927734, 106.34982991218567, 106.46662187576294, 106.5834059715271, 106.70006608963013, 106.81704187393188, 106.93375706672668, 107.050626039505, 107.16773104667664, 107.28390097618103, 107.40087890625, 107.5176899433136, 107.63444709777832, 107.75108003616333, 107.86799788475037, 108.08210301399231]	[103.97823428508067, 104.09490095174067, 105.07790095174067, 105.24460095174068, 105.99460095174068, 106.11126761840067, 106.22793428506067, 106.34460095172066, 106.46126761838066, 106.57793428504066, 106.69460095170065, 106.81126761836065, 106.92793428502064, 107.04460095168064, 107.16126761834063, 107.27793428500063, 107.39460095166062, 107.51126761832062, 107.62793428498061, 107.7446009516406, 107.8612676183006, 108.09460095163394]	2020_Nov_26_1105	59.9822954936454	1	0.375
4	19	FALSE	NV	a	['M', 'J', 'H', 'R', 'K', 'S', 'W', 'U', 'G', 'B', 'P', 'V', 'N', 'X', 'T', 'Z']	[1224, 1029, 986, 1587, 1122, 1731, 2448, 2059, 944, 760, 1456, 2245, 1335, 4000, 1888, 2911]	14	Present	NA	NA	PRESENT	0.9380478858947754	110.08341598510742	112.08079099655151	113.36413148236888	113.71413338969752	116.19846987724304	4.117678880691528	[110.10369896888733, 110.20366787910461, 111.18179488182068, 111.35540008544922, 112.10571908950806, 112.22276496887207, 112.33944201469421, 112.45631408691406, 112.57305788993835, 112.68978691101074, 112.80675387382507, 112.92340087890625, 113.04009294509888, 113.15694689750671, 113.2739748954773, 113.3905189037323, 113.50726389884949, 113.62421298027039, 113.74089503288269, 113.85769295692444, 113.9746298789978, 114.19846987724304]	[110.09460095163394, 110.21126761829393, 111.19426761829394, 111.36096761829394, 112.11096761829394, 112.22763428495394, 112.34430095161393, 112.46096761827393, 112.57763428493392, 112.69430095159392, 112.81096761825391, 112.9276342849139, 113.0443009515739, 113.1609676182339, 113.27763428489389, 113.39430095155389, 113.51096761821388, 113.62763428487388, 113.74430095153387, 113.86096761819387, 113.97763428485386, 114.2109676181872]	2020_Nov_26_1105	59.9822954936454	1	0.375
4	20	FALSE	AA	a	['Y', 'W', 'K', 'N', 'U', 'R', 'M', 'A', 'J', 'P', 'surprise', 'B', 'V', 'X', 'Z', 'G']	[2670, 2448, 1122, 1335, 2059, 1587, 1224, 697, 1029, 1456, 'stimAuditory/all_stimAuditory/111.wav', 760, 2245, 4000, 2911, 944]	14	Present	stimAuditory/all_stimAuditory/213.wav	NA	PRESENT	0.8308689594268799	116.19002914428712	118.19712209701538	119.4804632980885	119.8304654438357	122.31483697891235	4.117714881896973	[116.21031093597412, 116.32698893547058, 117.29815888404846, 117.47830986976624, 118.22906494140625, 118.3458240032196, 118.46246409416199, 118.57935905456543, 118.69627499580383, 118.81303191184998, 118.92978501319885, 119.04659104347229, 119.16347002983093, 119.28013706207275, 119.39684104919434, 119.51379299163818, 119.63044500350952, 119.74727892875671, 119.86409592628479, 119.98079204559326, 120.09767389297485, 120.31483697891235]	[116.2109676181872, 116.32763428484719, 117.3106342848472, 117.4773342848472, 118.2273342848472, 118.3440009515072, 118.4606676181672, 118.57733428482719, 118.69400095148718, 118.81066761814718, 118.92733428480717, 119.04400095146717, 119.16066761812716, 119.27733428478716, 119.39400095144715, 119.51066761810715, 119.62733428476714, 119.74400095142714, 119.86066761808713, 119.97733428474713, 120.09400095140712, 120.32733428474046]	2020_Nov_26_1105	59.9822954936454	1	0.375
4	21	FALSE	NA	a	['V', 'B', 'W', 'Z', 'G', 'N', 'M', 'E', 'U', 'S', 'H', 'R', 'X', 'A', 'P', 'J']	[2245, 760, 2448, 2911, 944, 1335, 1224, 904, 2059, 1731, 986, 1587, 4000, 697, 1456, 1029]	13	Present	NA	NA	NONE	-1	122.31311416625977	124.31346416473389	125.480138699147	125.83013965280132	128.43997192382812	4.126507759094238	[122.33339500427246, 122.4502809047699, 123.41452693939209, 123.60154509544373, 124.3521580696106, 124.46905303001404, 124.58566999435425, 124.70272588729858, 124.80250287055969, 124.9193229675293, 125.03620195388794, 125.15290999412537, 125.26972794532776, 125.38652801513672, 125.50332808494568, 125.6201229095459, 125.73692107200623, 125.85363388061523, 125.97047805786133, 126.08723402023315, 126.2040638923645, 126.43120193481445]	[122.32733428474046, 122.44400095140045, 123.42700095140046, 123.59370095140046, 124.34370095140046, 124.46036761806046, 124.57703428472045, 124.69370095138045, 124.81036761804044, 124.92703428470044, 125.04370095136044, 125.16036761802043, 125.27703428468043, 125.39370095134042, 125.51036761800042, 125.62703428466041, 125.7437009513204, 125.8603676179804, 125.9770342846404, 126.09370095130039, 126.21036761796039, 126.44370095129372]	2020_Nov_26_1105	59.9822954936454	1	0.375
4	22	FALSE	NN	a	['G', 'E', 'U', 'Y', 'T', 'P', 'R', 'B', 'N', 'M', 'H', 'S', 'Z', 'K', 'C', 'V']	[944, 904, 2059, 2670, 1888, 1456, 1587, 760, 1335, 1224, 986, 1731, 2911, 1122, 829, 2245]	10	Absent	NA	NA	PRESENT	0.9525589942932128	128.43621611595154	130.4297389984131	131.24641377126477	131.59641567859342	134.54756903648376	4.117830038070679	[128.45649695396423, 128.55660390853882, 129.53089094161987, 129.70789194107056, 130.45866703987122, 130.5754909515381, 130.69213104248047, 130.8091070652008, 130.92594504356384, 131.0430839061737, 131.15938806533813, 131.27635097503662, 131.39318299293518, 131.509831905365, 131.6265959739685, 131.74347305297852, 131.8603000640869, 131.97688102722168, 132.0936050415039, 132.21057391166687, 132.32732892036438, 132.54756903648376]	[128.44370095129372, 128.56036761795372, 129.54336761795372, 129.7100676179537, 130.4600676179537, 130.5767342846137, 130.6934009512737, 130.8100676179337, 130.9267342845937, 131.0434009512537, 131.16006761791368, 131.27673428457368, 131.39340095123367, 131.51006761789367, 131.62673428455366, 131.74340095121366, 131.86006761787365, 131.97673428453365, 132.09340095119364, 132.21006761785364, 132.32673428451363, 132.56006761784695]	2020_Nov_26_1105	59.9822954936454	1	0.375
4	23	FALSE	NA	a	['P', 'Z', 'E', 'H', 'C', 'M', 'W', 'Y', 'T', 'A', 'N', 'G', 'X', 'U', 'S', 'R']	[1456, 2911, 904, 986, 829, 1224, 2448, 2670, 1888, 697, 1335, 944, 4000, 2059, 1731, 1587]	13	Present	NA	NA	PRESENT	1.923753023147583	134.542827129364	136.54616498947144	137.71283976230313	138.06284166963175	140.6639370918274	4.117772102355957	[134.56311988830566, 134.67982387542725, 135.64725995063782, 135.83112907409668, 136.58188891410828, 136.69874906539917, 136.81539702415466, 136.93246698379517, 137.04898691177368, 137.16606307029724, 137.28278303146362, 137.39940810203552, 137.516126871109, 137.63311100006104, 137.74984693527222, 137.86648392677307, 137.98333406448364, 138.10032296180725, 138.21694898605347, 138.3336160182953, 138.45054697990417, 138.6639370918274]	[134.56006761784695, 134.67673428450695, 135.65973428450695, 135.82643428450695, 136.57643428450695, 136.69310095116694, 136.80976761782694, 136.92643428448693, 137.04310095114693, 137.15976761780692, 137.27643428446692, 137.3931009511269, 137.5097676177869, 137.6264342844469, 137.7431009511069, 137.8597676177669, 137.9764342844269, 138.09310095108688, 138.20976761774688, 138.32643428440687, 138.44310095106687, 138.6764342844002]	2020_Nov_26_1105	59.9822954936454	1	0.375
4	24	FALSE	VV	a	['T', 'R', 'M', 'B', 'W', 'surprise', 'A', 'Y', 'X', 'Z', 'P', 'K', 'H', 'U', 'E', 'J']	[1888, 1587, 1224, 760, 2448, 'stimAuditory/all_stimAuditory/220.wav', 697, 2670, 4000, 2911, 1456, 1122, 986, 2059, 904, 1029]	9	Present	NA	NA	PRESENT	0.15444397926330566	140.6491379737854	142.6626751422882	143.362682056387	143.71268515580854	146.7803030014038	4.117627859115601	[140.669420003891, 140.78620791435242, 141.76362800598145, 141.93803095817566, 142.68819904327393, 142.80514001846313, 142.9219799041748, 143.03864288330078, 143.15579795837402, 143.27229690551758, 143.38892602920532, 143.50589394569397, 143.62276697158813, 143.73956203460693, 143.8561840057373, 143.9730999469757, 144.0897490978241, 144.2066628932953, 144.32339000701904, 144.44033408164978, 144.5570330619812, 144.78030395507812]	[140.6764342844002, 140.79310095106018, 141.7761009510602, 141.94280095106018, 142.69280095106018, 142.80946761772017, 142.92613428438017, 143.04280095104016, 143.15946761770016, 143.27613428436015, 143.39280095102015, 143.50946761768014, 143.62613428434014, 143.74280095100013, 143.85946761766013, 143.97613428432012, 144.09280095098012, 144.20946761764012, 144.3261342843001, 144.4428009509601, 144.5594676176201, 144.79280095095342]	2020_Nov_26_1105	59.9822954936454	1	0.375
4	25	FALSE	NV	a	['V', 'P', 'R', 'B', 'G', 'T', 'U', 'E', 'W', 'J', 'N', 'K', 'X', 'C', 'Z', 'A']	[2245, 1456, 1587, 760, 944, 1888, 2059, 904, 2448, 1029, 1335, 1122, 4000, 829, 2911, 697]	13	Present	NA	NA	NONE	-1	146.7724850177765	148.77906107902527	149.9457356134384	150.29573775918558	152.91609406471252	4.137032985687256	[146.79276704788208, 146.90942406654358, 147.87999391555786, 148.06077909469604, 148.81145906448364, 148.92827486991882, 149.0451579093933, 149.1620180606842, 149.278568983078, 149.39546990394592, 149.51243901252747, 149.62908601760864, 149.74595093727112, 149.86278700828552, 149.9794089794159, 150.09633207321167, 150.212984085083, 150.32969403266907, 150.44669795036316, 150.5633409023285, 150.68058705329895, 150.89666891098022]	[146.79280095095342, 146.90946761761342, 147.89246761761342, 148.0591676176134, 148.8091676176134, 148.9258342842734, 149.0425009509334, 149.1591676175934, 149.2758342842534, 149.3925009509134, 149.50916761757338, 149.62583428423338, 149.74250095089337, 149.85916761755337, 149.97583428421336, 150.09250095087336, 150.20916761753335, 150.32583428419335, 150.44250095085334, 150.55916761751334, 150.67583428417333, 150.90916761750665]	2020_Nov_26_1105	59.9822954936454	1	0.375
4	26	FALSE	NN	a	['C', 'S', 'V', 'A', 'N', 'K', 'H', 'M', 'E', 'G', 'R', 'U', 'J', 'Z', 'P', 'B']	[829, 1731, 2245, 697, 1335, 1122, 986, 1224, 904, 944, 1587, 2059, 1029, 2911, 1456, 760]	11	Absent	NA	NA	NONE	-1	152.91217803955078	154.89522194862366	155.82856434180965	156.17856648755688	159.02249693870544	4.127274990081787	[152.93246006965637, 153.03283095359802, 153.99636101722717, 154.18389296531677, 154.9346420764923, 155.0346450805664, 155.15149307250977, 155.2682340145111, 155.38509893417358, 155.50191593170166, 155.61862301826477, 155.73551893234253, 155.85248589515686, 155.9689860343933, 156.0859010219574, 156.2026469707489, 156.31947588920593, 156.43624091148376, 156.55302906036377, 156.67003893852234, 156.78665590286255, 157.01303601264954]	[152.90916761750665, 153.02583428416665, 154.00883428416665, 154.17553428416664, 154.92553428416664, 155.04220095082664, 155.15886761748664, 155.27553428414663, 155.39220095080663, 155.50886761746662, 155.62553428412662, 155.7422009507866, 155.8588676174466, 155.9755342841066, 156.0922009507666, 156.2088676174266, 156.3255342840866, 156.44220095074658, 156.55886761740658, 156.67553428406657, 156.79220095072657, 157.0255342840599]	2020_Nov_26_1105	59.9822954936454	1	0.375
4	27	FALSE	NN	a	['J', 'N', 'S', 'U', 'Z', 'H', 'T', 'V', 'R', 'A', 'C', 'B', 'Y', 'W', 'G', 'M']	[1029, 1335, 1731, 2059, 2911, 986, 1888, 2245, 1587, 697, 829, 760, 2670, 2448, 944, 1224]	12	Absent	NA	NA	NONE	-1	159.0186550617218	161.01165103912354	162.06165914529524	162.41166105262386	165.14559197425842	4.133940935134888	[159.0389370918274, 159.13908410072327, 160.1127269268036, 160.29054188728333, 161.0410919189453, 161.1580400466919, 161.27481293678284, 161.39165091514587, 161.5083270072937, 161.62509298324585, 161.7418839931488, 161.85874390602112, 161.97543597221375, 162.09266209602356, 162.2090458869934, 162.32596898078918, 162.44271993637085, 162.55946803092957, 162.67627000808716, 162.79317998886108, 162.90991306304932, 163.12940192222595]	[159.0255342840599, 159.14220095071988, 160.1252009507199, 160.29190095071988, 161.04190095071988, 161.15856761737987, 161.27523428403987, 161.39190095069986, 161.50856761735986, 161.62523428401985, 161.74190095067985, 161.85856761733984, 161.97523428399984, 162.09190095065983, 162.20856761731983, 162.32523428397982, 162.44190095063982, 162.55856761729981, 162.6752342839598, 162.7919009506198, 162.9085676172798, 163.14190095061312]	2020_Nov_26_1105	59.9822954936454	1	0.375
4	28	FALSE	AA	a	['Z', 'U', 'M', 'P', 'N', 'E', 'K', 'C', 'surprise', 'Y', 'V', 'X', 'S', 'A', 'G', 'H']	[2911, 2059, 1224, 1456, 1335, 904, 1122, 829, 'stimAuditory/all_stimAuditory/205.wav', 2670, 2245, 4000, 1731, 697, 944, 986]	12	Present	stimAuditory/all_stimAuditory/111.wav	NA	ABSENT	1.6855747699737549	165.1425199508667	167.12793612480164	168.17794399255476	168.52794613830196	171.24576997756958	4.117833852767944	[165.1628019809723, 165.26238989830017, 166.2290940284729, 166.41366410255432, 167.16449904441833, 167.28105187416077, 167.3980050086975, 167.5148000717163, 167.6316909790039, 167.74831295013428, 167.86526894569397, 167.981929063797, 168.09886503219604, 168.2156219482422, 168.3322229385376, 168.4490509033203, 168.5660800933838, 168.68285202980042, 168.79946494102478, 168.91636610031128, 169.03315091133118, 169.24576997756958]	[165.14190095061312, 165.25856761727312, 166.24156761727312, 166.4082676172731, 167.1582676172731, 167.2749342839331, 167.3916009505931, 167.5082676172531, 167.6249342839131, 167.7416009505731, 167.85826761723308, 167.97493428389308, 168.09160095055307, 168.20826761721307, 168.32493428387306, 168.44160095053306, 168.55826761719305, 168.67493428385305, 168.79160095051304, 168.90826761717304, 169.02493428383303, 169.25826761716635]	2020_Nov_26_1105	59.9822954936454	1	0.375
4	29	FALSE	NA	a	['J', 'R', 'Y', 'K', 'Z', 'P', 'C', 'N', 'X', 'V', 'W', 'T', 'G', 'M', 'B', 'E']	[1029, 1587, 2670, 1122, 2911, 1456, 829, 1335, 4000, 2245, 2448, 1888, 944, 1224, 760, 904]	9	Present	NA	NA	NONE	-1	171.2315969467163	173.24428009986875	173.94428915973478	174.2942901133891	177.37544202804563	4.13116192817688	[171.2518789768219, 171.36877703666687, 172.34546089172363, 172.52046489715576, 173.2708990573883, 173.38756704330444, 173.504301071167, 173.6210880279541, 173.73813009262085, 173.85479307174683, 173.97158002853394, 174.088387966156, 174.20513486862183, 174.32199788093567, 174.4387640953064, 174.55572199821472, 174.67232203483582, 174.7893500328064, 174.90597796440125, 175.0228190422058, 175.1396369934082, 175.362135887146]	[171.25826761716635, 171.37493428382635, 172.35793428382635, 172.52463428382634, 173.27463428382634, 173.39130095048634, 173.50796761714633, 173.62463428380633, 173.74130095046633, 173.85796761712632, 173.97463428378632, 174.0913009504463, 174.2079676171063, 174.3246342837663, 174.4413009504263, 174.5579676170863, 174.6746342837463, 174.79130095040628, 174.90796761706628, 175.02463428372627, 175.14130095038627, 175.3746342837196]	2020_Nov_26_1105	59.9822954936454	1	0.375
4	30	FALSE	NV	a	['K', 'C', 'N', 'A', 'P', 'V', 'T', 'X', 'Z', 'W', 'B', 'E', 'R', 'M', 'G', 'H']	[1122, 829, 1335, 697, 1456, 2245, 1888, 4000, 2911, 2448, 760, 904, 1587, 1224, 944, 986]	8	Present	NA	NA	PRESENT	1.8470730781555176	177.3719780445099	179.36067008972168	179.94401033716048	180.29401248290768	183.478502035141	4.1178319454193115	[177.39225888252258, 177.4920530319214, 178.4618239402771, 178.6432340145111, 179.39400601387024, 179.51092886924744, 179.6275269985199, 179.74452996253967, 179.8611810207367, 179.97814202308655, 180.09479689598083, 180.21165108680725, 180.328537940979, 180.44526410102844, 180.5621039867401, 180.679025888443, 180.79566192626953, 180.91231298446655, 181.02915287017822, 181.14581608772278, 181.26277995109558, 181.478502035141]	[177.3746342837196, 177.49130095037958, 178.4743009503796, 178.64100095037958, 179.39100095037958, 179.50766761703957, 179.62433428369957, 179.74100095035956, 179.85766761701956, 179.97433428367955, 180.09100095033955, 180.20766761699954, 180.32433428365954, 180.44100095031953, 180.55766761697953, 180.67433428363952, 180.79100095029952, 180.90766761695951, 181.0243342836195, 181.1410009502795, 181.2576676169395, 181.49100095027282]	2020_Nov_26_1105	59.9822954936454	1	0.375
4	31	FALSE	NN	a	['A', 'T', 'Y', 'R', 'K', 'P', 'J', 'B', 'N', 'M', 'W', 'H', 'Z', 'E', 'U', 'V']	[697, 1888, 2670, 1587, 1122, 1456, 1029, 760, 1335, 1224, 2448, 986, 2911, 904, 2059, 2245]	9	Absent	NA	NA	PRESENT	0.09268689155578612	183.4782919883728	185.47724604606628	186.17725415225797	186.52725605958665	189.59487009048465	4.117624044418335	[183.49857306480408, 183.61543607711792, 184.57819390296936, 184.74964809417725, 185.51727294921875, 185.61728596687317, 185.7339870929718, 185.85078191757202, 185.9676330089569, 186.0844349861145, 186.20118403434753, 186.31808996200562, 186.43495988845825, 186.5517439842224, 186.66837286949158, 186.7853488922119, 186.90193510055542, 187.01870107650757, 187.13550686836243, 187.25244998931885, 187.3692910671234, 187.59486889839172]	[183.49100095027282, 183.60766761693282, 184.59066761693282, 184.7573676169328, 185.5073676169328, 185.6240342835928, 185.7407009502528, 185.8573676169128, 185.9740342835728, 186.0907009502328, 186.20736761689278, 186.32403428355278, 186.44070095021277, 186.55736761687277, 186.67403428353276, 186.79070095019276, 186.90736761685275, 187.02403428351275, 187.14070095017274, 187.25736761683274, 187.37403428349273, 187.60736761682605]	2020_Nov_26_1105	59.9822954936454	1	0.375
4	32	FALSE	NV	a	['T', 'B', 'K', 'Y', 'W', 'U', 'Z', 'C', 'R', 'G', 'M', 'P', 'H', 'X', 'E', 'A']	[1888, 760, 1122, 2670, 2448, 2059, 2911, 829, 1587, 944, 1224, 1456, 986, 4000, 904, 697]	14	Present	NA	NA	PRESENT	0.09714484214782716	189.5850031375885	191.59352803230288	192.87686947179455	193.22687137912317	195.71123695373535	4.117708921432495	[189.6052839756012, 189.72171092033386, 190.694561958313, 190.87285089492798, 191.62367987632751, 191.74065709114075, 191.85755491256714, 191.97413301467896, 192.09074592590332, 192.20772099494934, 192.32449793815613, 192.4412920475006, 192.55817008018494, 192.67485094070435, 192.79162096977234, 192.90852999687195, 193.02562808990479, 193.14217805862427, 193.25880599021912, 193.37553596496582, 193.49248600006104, 193.71123600006104]	[189.60736761682605, 189.72403428348605, 190.70703428348605, 190.87373428348604, 191.62373428348604, 191.74040095014604, 191.85706761680603, 191.97373428346603, 192.09040095012602, 192.20706761678602, 192.32373428344602, 192.440400950106, 192.557067616766, 192.673734283426, 192.790400950086, 192.907067616746, 193.023734283406, 193.14040095006598, 193.25706761672598, 193.37373428338597, 193.49040095004597, 193.7237342833793]	2020_Nov_26_1105	59.9822954936454	1	0.375
4	33	FALSE	AV	a	['H', 'W', 'S', 'Z', 'Y', 'P', 'surprise', 'A', 'R', 'X', 'J', 'N', 'V', 'B', 'C', 'T']	[986, 2448, 1731, 2911, 2670, 1456, 'stimAuditory/all_stimAuditory/119.wav', 697, 1587, 4000, 1029, 1335, 2245, 760, 829, 1888]	10	Present	stimAuditory/all_stimAuditory/220.wav	NA	NONE	-1	195.7078800201416	197.70968008041385	198.5263536611726	198.87635580691983	201.83473992347717	4.1250598430633545	[195.7281620502472, 195.8449079990387, 196.8109269142151, 196.99626302719116, 197.74699687957764, 197.86381006240845, 197.98074889183044, 198.0971839427948, 198.214173078537, 198.33093810081482, 198.44780707359314, 198.56453800201416, 198.6814000606537, 198.7981219291687, 198.91492199897766, 199.03152108192444, 199.1484739780426, 199.26530408859253, 199.38189506530762, 199.49878406524658, 199.59872794151306, 199.82760310173035]	[195.7237342833793, 195.84040095003928, 196.8234009500393, 196.99010095003928, 197.74010095003928, 197.85676761669927, 197.97343428335927, 198.09010095001926, 198.20676761667926, 198.32343428333925, 198.44010094999925, 198.55676761665924, 198.67343428331924, 198.79010094997923, 198.90676761663923, 199.02343428329922, 199.14010094995922, 199.25676761661921, 199.3734342832792, 199.4901009499392, 199.6067676165992, 199.84010094993252]	2020_Nov_26_1105	59.9822954936454	1	0.375
4	34	FALSE	NV	a	['N', 'V', 'M', 'E', 'Y', 'T', 'W', 'A', 'S', 'J', 'K', 'Z', 'B', 'X', 'G', 'C']	[1335, 2245, 1224, 904, 2670, 1888, 2448, 697, 1731, 1029, 1122, 2911, 760, 4000, 944, 829]	14	Present	NA	NA	NONE	-1	201.83094906806943	203.8262219429016	205.1095633823933	205.45956528972192	207.95792198181152	4.131700038909912	[201.85123109817505, 201.95139288902283, 202.92729091644287, 203.10292100906372, 203.85334706306458, 203.97028708457947, 204.0872039794922, 204.2039430141449, 204.32062888145447, 204.437490940094, 204.5542368888855, 204.6710500717163, 204.78774404525757, 204.9044930934906, 205.02145504951477, 205.13809299468994, 205.25485110282898, 205.37157607078552, 205.48837900161743, 205.60538792610168, 205.7221450805664, 205.94396901130676]	[201.84010094993252, 201.95676761659251, 202.93976761659252, 203.1064676165925, 203.8564676165925, 203.9731342832525, 204.0898009499125, 204.2064676165725, 204.3231342832325, 204.4398009498925, 204.55646761655248, 204.67313428321248, 204.78980094987247, 204.90646761653247, 205.02313428319246, 205.13980094985246, 205.25646761651245, 205.37313428317245, 205.48980094983244, 205.60646761649244, 205.72313428315243, 205.95646761648575]	2020_Nov_26_1105	59.9822954936454	1	0.375
4	35	FALSE	NA	a	['J', 'H', 'B', 'V', 'K', 'T', 'P', 'A', 'N', 'C', 'X', 'Z', 'R', 'Y', 'G', 'W']	[1029, 986, 760, 2245, 1122, 1888, 1456, 697, 1335, 829, 4000, 2911, 1587, 2670, 944, 2448]	11	Present	NA	NA	PRESENT	1.3035118579864502	207.9541780948639	209.94239211082456	210.87573331191768	211.2257354576649	214.0603358745575	4.11794376373291	[207.9744589328766, 208.07470202445984, 209.04365992546082, 209.22570705413818, 209.97658705711365, 210.0935389995575, 210.21020889282227, 210.32702708244324, 210.443922996521, 210.56055188179016, 210.67729806900024, 210.7940330505371, 210.91107392311096, 211.0277829170227, 211.14452409744263, 211.26118803024292, 211.3781440258026, 211.49492597579956, 211.61182498931885, 211.7284870147705, 211.84521889686584, 212.0603358745575]	[207.95646761648575, 208.07313428314575, 209.05613428314575, 209.22283428314574, 209.97283428314574, 210.08950094980574, 210.20616761646573, 210.32283428312573, 210.43950094978572, 210.55616761644572, 210.67283428310571, 210.7895009497657, 210.9061676164257, 211.0228342830857, 211.1395009497457, 211.2561676164057, 211.37283428306569, 211.48950094972568, 211.60616761638568, 211.72283428304567, 211.83950094970567, 212.072834283039]	2020_Nov_26_1105	59.9822954936454	1	0.375
4	36	FALSE	NN	a	['U', 'C', 'R', 'G', 'H', 'J', 'N', 'W', 'Y', 'K', 'P', 'B', 'A', 'V', 'E', 'M']	[2059, 829, 1587, 944, 986, 1029, 1335, 2448, 2670, 1122, 1456, 760, 697, 2245, 904, 1224]	11	Absent	NA	NA	ABSENT	0.3087611198425293	214.06060814857483	216.0589210987091	216.9922613461279	217.34226349187512	220.1767029762268	4.1177818775177	[214.08088898658752, 214.19795608520508, 215.16002893447876, 215.33217597007751, 216.09979891777039, 216.20001602172852, 216.31682109832764, 216.4335970878601, 216.55030488967896, 216.667072057724, 216.78368496894836, 216.90067100524902, 217.01726388931274, 217.13416409492493, 217.25111508369446, 217.36777687072754, 217.4844949245453, 217.60142397880554, 217.7180459499359, 217.8350260257721, 217.95174908638, 218.1767020225525]	[214.072834283039, 214.18950094969898, 215.17250094969899, 215.33920094969898, 216.08920094969898, 216.20586761635897, 216.32253428301897, 216.43920094967896, 216.55586761633896, 216.67253428299895, 216.78920094965895, 216.90586761631894, 217.02253428297894, 217.13920094963893, 217.25586761629893, 217.37253428295892, 217.48920094961892, 217.6058676162789, 217.7225342829389, 217.8392009495989, 217.9558676162589, 218.18920094959222]	2020_Nov_26_1105	59.9822954936454	1	0.375
4	37	FALSE	NV	a	['Z', 'W', 'M', 'T', 'G', 'R', 'Y', 'V', 'C', 'J', 'B', 'E', 'H', 'X', 'A', 'P']	[2911, 2448, 1224, 1888, 944, 1587, 2670, 2245, 829, 1029, 760, 904, 986, 4000, 697, 1456]	14	Present	NA	NA	PRESENT	1.3214759826660156	220.1672191619873	222.17543411254883	223.45877435994765	223.8087765056948	226.29307007789612	4.11763596534729	[220.1875078678131, 220.30437207221985, 221.27639389038086, 221.45563006401062, 222.20611691474915, 222.32307600975037, 222.4399209022522, 222.55671191215515, 222.67346000671387, 222.79025197029114, 222.9069700241089, 223.0242199897766, 223.1405611038208, 223.25728392601013, 223.3742070198059, 223.49107909202576, 223.60791206359863, 223.72466802597046, 223.84141898155212, 223.9581699371338, 224.07492589950562, 224.29307007789612]	[220.18920094959222, 220.30586761625221, 221.28886761625222, 221.4555676162522, 222.2055676162522, 222.3222342829122, 222.4389009495722, 222.5555676162322, 222.6722342828922, 222.7889009495522, 222.90556761621218, 223.02223428287218, 223.13890094953217, 223.25556761619217, 223.37223428285216, 223.48890094951216, 223.60556761617215, 223.72223428283215, 223.83890094949214, 223.95556761615214, 224.07223428281213, 224.30556761614545]	2020_Nov_26_1105	59.9822954936454	1	0.375
4	38	FALSE	NV	a	['E', 'M', 'U', 'P', 'G', 'R', 'H', 'X', 'T', 'B', 'A', 'W', 'C', 'V', 'N', 'S']	[904, 1224, 2059, 1456, 944, 1587, 986, 4000, 1888, 760, 697, 2448, 829, 2245, 1335, 1731]	8	Present	NA	NA	ABSENT	1.422756910324097	226.2904450893402	228.291766166687	228.87510736780013	229.22510927512872	232.40943694114685	4.117670774459839	[226.31072688102722, 226.42753887176514, 227.39276099205017, 227.5786280632019, 228.32947492599487, 228.4461760520935, 228.56311297416687, 228.67992091178894, 228.79659700393677, 228.91334199905396, 229.0303258895874, 229.14694094657898, 229.26380395889282, 229.38063097000122, 229.49729108810425, 229.5972728729248, 229.7140610218048, 229.83088207244873, 229.94768500328064, 230.06454300880432, 230.18133807182312, 230.40943598747253]	[226.30556761614545, 226.42223428280545, 227.40523428280545, 227.57193428280544, 228.32193428280544, 228.43860094946544, 228.55526761612543, 228.67193428278543, 228.78860094944542, 228.90526761610542, 229.02193428276541, 229.1386009494254, 229.2552676160854, 229.3719342827454, 229.4886009494054, 229.6052676160654, 229.72193428272539, 229.83860094938538, 229.95526761604538, 230.07193428270537, 230.18860094936537, 230.4219342826987]	2020_Nov_26_1105	59.9822954936454	1	0.375
4	39	FALSE	NA	a	['C', 'R', 'M', 'B', 'Z', 'P', 'T', 'U', 'H', 'V', 'Y', 'X', 'G', 'J', 'S', 'W']	[829, 1587, 1224, 760, 2911, 1456, 1888, 2059, 986, 2245, 2670, 4000, 944, 1029, 1731, 2448]	12	Present	NA	NA	PRESENT	0.12315702438354492	232.3969430923462	234.40786910057068	235.4578769683238	235.807879114071	238.52580308914185	4.117933988571167	[232.41723203659058, 232.53388094902039, 233.5091269016266, 233.68552994728088, 234.43597197532654, 234.55291295051575, 234.66950106620789, 234.7864248752594, 234.90313386917114, 235.0200219154358, 235.13673400878906, 235.25349402427673, 235.37015104293823, 235.4871530532837, 235.60375308990479, 235.7207019329071, 235.83749890327454, 235.954283952713, 236.0711269378662, 236.18781208992004, 236.3046910762787, 236.52580189704895]	[232.4219342826987, 232.53860094935868, 233.52160094935869, 233.68830094935868, 234.43830094935868, 234.55496761601867, 234.67163428267867, 234.78830094933866, 234.90496761599866, 235.02163428265865, 235.13830094931865, 235.25496761597864, 235.37163428263864, 235.48830094929863, 235.60496761595863, 235.72163428261862, 235.83830094927862, 235.9549676159386, 236.0716342825986, 236.1883009492586, 236.3049676159186, 236.53830094925192]	2020_Nov_26_1105	59.9822954936454	1	0.375
4	40	FALSE	AV	a	['T', 'R', 'Y', 'Z', 'J', 'V', 'K', 'E', 'U', 'M', 'surprise', 'G', 'S', 'X', 'A', 'H']	[1888, 1587, 2670, 2911, 1029, 2245, 1122, 904, 2059, 1224, 'stimAuditory/all_stimAuditory/210.wav', 944, 1731, 4000, 697, 986]	14	Present	stimAuditory/all_stimAuditory/205.wav	NA	PRESENT	0.6717529296875	238.51997900009155	240.52440810203552	241.80774930310864	242.15775144885583	244.64216995239255	4.117761850357056	[238.54026198387146, 238.65696907043457, 239.62549495697021, 239.8082869052887, 240.5590479373932, 240.6763789653778, 240.7927930355072, 240.90948796272278, 241.0263340473175, 241.1431679725647, 241.25998306274414, 241.37676692008972, 241.49354195594788, 241.61015605926514, 241.7271819114685, 241.84376907348633, 241.96051907539368, 242.0775249004364, 242.1943359375, 242.31089305877686, 242.4279329776764, 242.64216899871826]	[238.53830094925192, 238.65496761591191, 239.63796761591192, 239.8046676159119, 240.5546676159119, 240.6713342825719, 240.7880009492319, 240.9046676158919, 241.0213342825519, 241.1380009492119, 241.25466761587188, 241.37133428253188, 241.48800094919187, 241.60466761585187, 241.72133428251186, 241.83800094917186, 241.95466761583185, 242.07133428249185, 242.18800094915184, 242.30466761581184, 242.42133428247183, 242.65466761580515]	2020_Nov_26_1105	59.9822954936454	1	0.375
4	41	FALSE	NN	a	['U', 'B', 'W', 'E', 'H', 'R', 'V', 'A', 'J', 'G', 'S', 'Y', 'T', 'P', 'M', 'K']	[2059, 760, 2448, 904, 986, 1587, 2245, 697, 1029, 944, 1731, 2670, 1888, 1456, 1224, 1122]	9	Absent	NA	NA	NONE	-1	244.64332699775696	246.6411030292511	247.3411111354428	247.69111304277143	250.76996493339541	4.128861904144287	[244.66360998153687, 244.76345205307007, 245.74186205863953, 245.9146749973297, 246.68245697021484, 246.78248000144958, 246.89928197860718, 247.0159809589386, 247.13268494606018, 247.24968099594116, 247.3664960861206, 247.48326587677002, 247.59992504119873, 247.7167980670929, 247.83356595039368, 247.95034408569336, 248.0671100616455, 248.18389797210693, 248.30073308944702, 248.41742587089539, 248.53429889678955, 248.7585370540619]	[244.65466761580515, 244.77133428246515, 245.75433428246515, 245.92103428246514, 246.67103428246514, 246.78770094912514, 246.90436761578513, 247.02103428244513, 247.13770094910512, 247.25436761576512, 247.37103428242511, 247.4877009490851, 247.6043676157451, 247.7210342824051, 247.8377009490651, 247.9543676157251, 248.07103428238509, 248.18770094904508, 248.30436761570508, 248.42103428236507, 248.53770094902507, 248.77103428235839]	2020_Nov_26_1105	59.9822954936454	1	0.375
4	42	FALSE	NA	a	['E', 'H', 'Z', 'B', 'V', 'Y', 'T', 'X', 'G', 'S', 'R', 'W', 'A', 'U', 'M', 'C']	[904, 986, 2911, 760, 2245, 2670, 1888, 4000, 944, 1731, 1587, 2448, 697, 2059, 1224, 829]	8	Present	NA	NA	NONE	-1	250.76635599136353	252.75709915161133	253.34044035272444	253.69044130637872	256.89316391944885	4.136064767837524	[250.78663802146912, 250.88687705993652, 251.8582260608673, 252.03806805610657, 252.7887260913849, 252.90570998191833, 253.02272605895996, 253.13913893699646, 253.25604510307312, 253.37291598320007, 253.48964405059814, 253.60641503334045, 253.72327399253845, 253.8399670124054, 253.95685696601868, 254.07353901863098, 254.19023895263672, 254.30715799331665, 254.42392301559448, 254.54054188728333, 254.65758204460144, 254.8749029636383]	[250.77103428235839, 250.88770094901838, 251.87070094901839, 252.03740094901838, 252.78740094901838, 252.90406761567837, 253.02073428233837, 253.13740094899836, 253.25406761565836, 253.37073428231835, 253.48740094897835, 253.60406761563834, 253.72073428229834, 253.83740094895833, 253.95406761561833, 254.07073428227832, 254.18740094893832, 254.3040676155983, 254.4207342822583, 254.5374009489183, 254.6540676155783, 254.88740094891162]	2020_Nov_26_1105	59.9822954936454	1	0.375
4	43	FALSE	NA	a	['A', 'T', 'C', 'W', 'B', 'P', 'G', 'U', 'H', 'E', 'S', 'R', 'X', 'N', 'V', 'M']	[697, 1888, 829, 2448, 760, 1456, 944, 2059, 986, 904, 1731, 1587, 4000, 1335, 2245, 1224]	13	Present	NA	NA	PRESENT	0.24688982963562012	256.8895671367645	258.8736820220947	260.0403567949264	260.39035870225507	262.9912688732147	4.117586851119995	[256.90984892845154, 257.0099458694458, 257.9745910167694, 258.16165590286255, 258.91201090812683, 259.02871203422546, 259.1457130908966, 259.26230096817017, 259.37926197052, 259.47916889190674, 259.5959839820862, 259.71275997161865, 259.8295969963074, 259.9463949203491, 260.06303787231445, 260.17988204956055, 260.29665994644165, 260.41342091560364, 260.53024196624756, 260.64698004722595, 260.763925075531, 260.9912688732147]	[256.8874009489116, 257.0040676155716, 257.9870676155716, 258.1537676155716, 258.9037676155716, 259.02043428223163, 259.13710094889166, 259.2537676155517, 259.3704342822117, 259.4871009488717, 259.60376761553175, 259.7204342821918, 259.8371009488518, 259.9537676155118, 260.07043428217185, 260.18710094883187, 260.3037676154919, 260.4204342821519, 260.53710094881194, 260.65376761547196, 260.770434282132, 261.00376761546534]	2020_Nov_26_1105	59.9822954936454	1	0.375
4	44	FALSE	NV	a	['A', 'M', 'S', 'K', 'P', 'E', 'V', 'Y', 'B', 'U', 'H', 'X', 'G', 'W', 'R', 'Z']	[697, 1224, 1731, 1122, 1456, 904, 2245, 2670, 760, 2059, 986, 4000, 944, 2448, 1587, 2911]	12	Present	NA	NA	ABSENT	1.0034170150756836	262.9793300628662	264.9899640083313	266.039972114503	266.3899740218316	269.10763692855835	4.117672920227051	[262.9996130466461, 263.116751909256, 264.09096002578735, 264.2676179409027, 265.01853489875793, 265.135372877121, 265.25218296051025, 265.3689389228821, 265.4855999946594, 265.60265588760376, 265.7193510532379, 265.83601093292236, 265.95290899276733, 266.06946897506714, 266.186429977417, 266.3032670021057, 266.420037984848, 266.5368800163269, 266.65360498428345, 266.7704529762268, 266.8872580528259, 267.10763597488403]	[263.00376761546534, 263.12043428212536, 264.10343428212536, 264.27013428212535, 265.02013428212535, 265.1368009487854, 265.2534676154454, 265.3701342821054, 265.48680094876545, 265.6034676154255, 265.7201342820855, 265.8368009487455, 265.95346761540554, 266.07013428206557, 266.1868009487256, 266.3034676153856, 266.42013428204564, 266.53680094870566, 266.6534676153657, 266.7701342820257, 266.88680094868573, 267.1201342820191]	2020_Nov_26_1105	59.9822954936454	1	0.375
4	45	FALSE	NN	a	['G', 'A', 'E', 'W', 'H', 'K', 'T', 'Y', 'M', 'V', 'Z', 'R', 'U', 'P', 'S', 'J']	[944, 697, 904, 2448, 986, 1122, 1888, 2670, 1224, 2245, 2911, 1587, 2059, 1456, 1731, 1029]	10	Absent	NA	NA	NONE	-1	269.10260701179504	271.10619497299194	271.9228687921693	272.27287069949796	275.22919607162476	4.1230010986328125	[269.12288904190063, 269.239629983902, 270.2073268890381, 270.390860080719, 271.1415979862213, 271.25860691070557, 271.37531208992004, 271.49201107025146, 271.6090190410614, 271.72570610046387, 271.84255290031433, 271.9593069553375, 272.0760669708252, 272.19271206855774, 272.30973291397095, 272.42630791664124, 272.54332089424133, 272.660523891449, 272.77672004699707, 272.89351987838745, 273.0105969905853, 273.22400307655334]	[269.1201342820191, 269.2368009486791, 270.2198009486791, 270.3865009486791, 271.1365009486791, 271.2531676153391, 271.36983428199915, 271.48650094865917, 271.6031676153192, 271.7198342819792, 271.83650094863924, 271.95316761529926, 272.0698342819593, 272.1865009486193, 272.30316761527934, 272.41983428193936, 272.5365009485994, 272.6531676152594, 272.76983428191943, 272.88650094857945, 273.0031676152395, 273.2365009485728]	2020_Nov_26_1105	59.9822954936454	1	0.375
4	46	FALSE	NV	a	['N', 'Y', 'M', 'E', 'C', 'P', 'A', 'S', 'Z', 'B', 'J', 'X', 'U', 'V', 'H', 'T']	[1335, 2670, 1224, 904, 829, 1456, 697, 1731, 2911, 760, 1029, 4000, 2059, 2245, 986, 1888]	12	Present	NA	NA	PRESENT	0.32528209686279297	275.22567200660706	277.2226140499115	278.2726221560832	278.6226240634118	281.3403699398041	4.117755889892578	[275.24595499038696, 275.3460590839386, 276.3236949443817, 276.49727606773376, 277.2480070590973, 277.36502408981323, 277.4817600250244, 277.59858107566833, 277.7153708934784, 277.8322329521179, 277.94883489608765, 278.06579089164734, 278.18243503570557, 278.2994120121002, 278.41609287261963, 278.5330228805542, 278.64965295791626, 278.76653003692627, 278.883239030838, 278.99998688697815, 279.1169180870056, 279.3403699398041]	[275.2365009485728, 275.35316761523285, 276.33616761523285, 276.50286761523284, 277.25286761523284, 277.36953428189287, 277.4862009485529, 277.6028676152129, 277.71953428187294, 277.83620094853296, 277.952867615193, 278.069534281853, 278.18620094851303, 278.30286761517306, 278.4195342818331, 278.5362009484931, 278.6528676151531, 278.76953428181315, 278.8862009484732, 279.0028676151332, 279.1195342817932, 279.35286761512657]	2020_Nov_26_1105	59.9822954936454	1	0.375
4	47	FALSE	NA	a	['S', 'W', 'H', 'C', 'E', 'N', 'Y', 'V', 'P', 'T', 'X', 'R', 'A', 'G', 'Z', 'K']	[1731, 2448, 986, 829, 904, 1335, 2670, 2245, 1456, 1888, 4000, 1587, 697, 944, 2911, 1122]	11	Present	NA	NA	PRESENT	0.073925018310546875	281.33222699165344	283.33885407447815	284.2721952755713	284.62219742131845	287.4567360877991	4.117882013320923	[281.3525080680847, 281.4694290161133, 282.4400599002838, 282.62046003341675, 283.37168407440186, 283.48817706108093, 283.6049211025238, 283.7218220233917, 283.8385560512543, 283.9554340839386, 284.07201194763184, 284.18876004219055, 284.3058090209961, 284.42248487472534, 284.5393409729004, 284.6559810638428, 284.7728979587555, 284.8896059989929, 285.0064330101013, 285.12331199645996, 285.24004888534546, 285.4567360877991]	[281.35286761512657, 281.4695342817866, 282.4525342817866, 282.6192342817866, 283.3692342817866, 283.4859009484466, 283.60256761510664, 283.71923428176666, 283.8359009484267, 283.9525676150867, 284.06923428174673, 284.18590094840675, 284.3025676150668, 284.4192342817268, 284.5359009483868, 284.65256761504685, 284.7692342817069, 284.8859009483669, 285.0025676150269, 285.11923428168694, 285.23590094834697, 285.4692342816803]	2020_Nov_26_1105	59.9822954936454	1	0.375
4	48	FALSE	NV	a	['U', 'G', 'M', 'H', 'C', 'K', 'Y', 'T', 'R', 'S', 'X', 'P', 'J', 'Z', 'W', 'B']	[2059, 944, 1224, 986, 829, 1122, 2670, 1888, 1587, 1731, 4000, 1456, 1029, 2911, 2448, 760]	11	Present	NA	NA	NONE	-1	287.45543098449707	289.45534110069275	290.3886823017859	290.73868444753305	293.5825889110565	4.1272478103637695	[287.475713968277, 287.5926170349121, 288.5564260482788, 288.74387407302856, 289.4945409297943, 289.59446597099304, 289.711345911026, 289.82808899879456, 289.9448719024658, 290.06167697906494, 290.17848205566406, 290.29527497291565, 290.4119908809662, 290.52885389328003, 290.6456370353699, 290.7624170780182, 290.8793308734894, 290.99594497680664, 291.11291909217834, 291.22952008247375, 291.34649896621704, 291.5731019973755]	[287.4692342816803, 287.58590094834034, 288.56890094834034, 288.73560094834033, 289.48560094834033, 289.60226761500036, 289.7189342816604, 289.8356009483204, 289.9522676149804, 290.06893428164045, 290.1856009483005, 290.3022676149605, 290.4189342816205, 290.53560094828055, 290.65226761494057, 290.7689342816006, 290.8856009482606, 291.00226761492064, 291.11893428158066, 291.2356009482407, 291.3522676149007, 291.58560094823406]	2020_Nov_26_1105	59.9822954936454	1	0.375
4	49	FALSE	VN	a	['M', 'Z', 'E', 'N', 'G', 'U', 'W', 'J', 'A', 'T', 'surprise', 'R', 'Y', 'P', 'S', 'K']	[1224, 2911, 904, 1335, 944, 2059, 2448, 1029, 697, 1888, 'stimAuditory/all_stimAuditory/219.wav', 1587, 2670, 1456, 1731, 1122]	14	Absent	NA	NA	ABSENT	0.6998541355133057	293.578595161438	295.5716071128845	296.8549473602833	297.2049495060305	299.6894700527191	4.117862939834595	[293.5988759994507, 293.69918394088745, 294.67279291152954, 294.85038900375366, 295.6009109020233, 295.71789598464966, 295.8346219062805, 295.9515779018402, 296.0682690143585, 296.18505787849426, 296.3017930984497, 296.41879391670227, 296.53544306755066, 296.6522870063782, 296.76907300949097, 296.885705947876, 297.00261902809143, 297.1192100048065, 297.2362198829651, 297.35284304618835, 297.4696190357208, 297.6894700527191]	[293.58560094823406, 293.7022676148941, 294.6852676148941, 294.8519676148941, 295.6019676148941, 295.7186342815541, 295.8353009482141, 295.95196761487415, 296.0686342815342, 296.1853009481942, 296.3019676148542, 296.41863428151424, 296.53530094817427, 296.6519676148343, 296.7686342814943, 296.88530094815434, 297.00196761481436, 297.1186342814744, 297.2353009481344, 297.35196761479443, 297.46863428145446, 297.7019676147878]	2020_Nov_26_1105	59.9822954936454	1	0.375
4	50	FALSE	NA	a	['B', 'N', 'A', 'S', 'Y', 'V', 'K', 'M', 'X', 'G', 'E', 'P', 'U', 'C', 'H', 'W']	[760, 1335, 697, 1731, 2670, 2245, 1122, 1224, 4000, 944, 904, 1456, 2059, 829, 986, 2448]	9	Present	NA	NA	NONE	-1	299.68518114089966	301.6881890296936	302.38819808955964	302.7381999968882	305.81179189682007	4.123602867126465	[299.70546293258667, 299.8220360279083, 300.78916096687317, 300.97336602211, 301.72420501708984, 301.84109687805176, 301.95785999298096, 302.07462906837463, 302.191358089447, 302.30827593803406, 302.424968957901, 302.54162192344666, 302.6587429046631, 302.7753760814667, 302.8921880722046, 303.0090639591217, 303.12584710121155, 303.2426600456238, 303.359414100647, 303.4761641025543, 303.5927720069885, 303.80583691596985]	[299.7019676147878, 299.8186342814478, 300.80163428144783, 300.9683342814478, 301.7183342814478, 301.83500094810785, 301.95166761476787, 302.0683342814279, 302.1850009480879, 302.30166761474794, 302.41833428140797, 302.535000948068, 302.651667614728, 302.76833428138804, 302.88500094804806, 303.0016676147081, 303.1183342813681, 303.23500094802813, 303.35166761468815, 303.4683342813482, 303.5850009480082, 303.81833428134155]	2020_Nov_26_1105	59.9822954936454	1	0.375
4	51	FALSE	NV	a	['S', 'G', 'Z', 'U', 'V', 'R', 'E', 'X', 'C', 'B', 'T', 'M', 'Y', 'A', 'P', 'W']	[1731, 944, 2911, 2059, 2245, 1587, 904, 4000, 829, 760, 1888, 1224, 2670, 697, 1456, 2448]	8	Present	NA	NA	PRESENT	1.6456170082092283	305.8083300590515	307.8044810295105	308.3878224690422	308.73782437637084	311.92220401763916	4.117722988128662	[305.8286120891571, 305.92878103256226, 306.9055268764496, 307.0800280570984, 307.83051896095276, 307.9474639892578, 308.0642318725586, 308.1810510158539, 308.297709941864, 308.4147539138794, 308.5314619541168, 308.64833998680115, 308.76503109931946, 308.88186502456665, 308.9986319541931, 309.115473985672, 309.2323410511017, 309.34887409210205, 309.46583700180054, 309.5824270248413, 309.69936203956604, 309.92220306396484]	[305.81833428134155, 305.9350009480016, 306.9180009480016, 307.08470094800157, 307.83470094800157, 307.9513676146616, 308.0680342813216, 308.18470094798164, 308.30136761464166, 308.4180342813017, 308.5347009479617, 308.65136761462173, 308.76803428128176, 308.8847009479418, 309.0013676146018, 309.1180342812618, 309.23470094792185, 309.3513676145819, 309.4680342812419, 309.5847009479019, 309.70136761456195, 309.9347009478953]	2020_Nov_26_1105	59.9822954936454	1	0.375
4	52	FALSE	NV	a	['N', 'K', 'P', 'C', 'T', 'B', 'A', 'J', 'X', 'S', 'R', 'V', 'Y', 'M', 'U', 'H']	[1335, 1122, 1456, 829, 1888, 760, 697, 1029, 4000, 1731, 1587, 2245, 2670, 1224, 2059, 986]	9	Present	NA	NA	NONE	-1	311.9146251678467	313.9207980632782	314.6208061694699	314.9708080767985	318.0583279132843	4.1375298500061035	[311.9349069595337, 312.05190205574036, 313.0218949317932, 313.2033610343933, 313.95379090309143, 314.07061409950256, 314.18730306625366, 314.3042080402374, 314.4211769104004, 314.53771805763245, 314.6551048755646, 314.771418094635, 314.8882939815521, 315.00503396987915, 315.121866941452, 315.2385890483856, 315.35551404953003, 315.47225403785706, 315.5891160964966, 315.7058470249176, 315.8224050998688, 316.03856897354126]	[311.9347009478953, 312.0513676145553, 313.0343676145553, 313.2010676145553, 313.9510676145553, 314.06773428121534, 314.18440094787536, 314.3010676145354, 314.4177342811954, 314.53440094785543, 314.65106761451545, 314.7677342811755, 314.8844009478355, 315.0010676144955, 315.11773428115555, 315.2344009478156, 315.3510676144756, 315.4677342811356, 315.58440094779564, 315.70106761445567, 315.8177342811157, 316.05106761444904]	2020_Nov_26_1105	59.9822954936454	1	0.375
4	53	FALSE	NA	a	['K', 'V', 'Z', 'B', 'R', 'C', 'U', 'G', 'W', 'N', 'A', 'X', 'H', 'M', 'P', 'S']	[1122, 2245, 2911, 760, 1587, 829, 2059, 944, 2448, 1335, 697, 4000, 986, 1224, 1456, 1731]	12	Present	NA	NA	PRESENT	0.7035198211669922	318.05448508262634	320.03706312179565	321.08707098954875	321.437073135296	324.1549370288849	4.117873907089233	[318.07476592063904, 318.1748900413513, 319.1382620334625, 319.32643389701843, 320.07708501815796, 320.17714190483093, 320.29377794265747, 320.4106020927429, 320.5273609161377, 320.64433693885803, 320.7609748840332, 320.8779809474945, 320.9946460723877, 321.1113660335541, 321.2282860279083, 321.34506487846375, 321.46194410324097, 321.5785849094391, 321.6955258846283, 321.81233286857605, 321.9291410446167, 322.1549370288849]	[318.05106761444904, 318.16773428110906, 319.15073428110907, 319.31743428110906, 320.06743428110906, 320.1841009477691, 320.3007676144291, 320.41743428108913, 320.53410094774915, 320.6507676144092, 320.7674342810692, 320.8841009477292, 321.00076761438925, 321.11743428104927, 321.2341009477093, 321.3507676143693, 321.46743428102934, 321.58410094768936, 321.7007676143494, 321.8174342810094, 321.93410094766944, 322.1674342810028]	2020_Nov_26_1105	59.9822954936454	1	0.375
4	54	FALSE	NN	a	['A', 'U', 'V', 'N', 'R', 'W', 'Y', 'J', 'K', 'C', 'H', 'M', 'S', 'T', 'E', 'Z']	[697, 2059, 2245, 1335, 1587, 2448, 2670, 1029, 1122, 829, 986, 1224, 1731, 1888, 904, 2911]	9	Absent	NA	NA	NONE	-1	324.1446771621704	326.1535530090332	326.85356206889924	327.2035639762278	330.28795289993286	4.134399890899658	[324.1649580001831, 324.2815680503845, 325.2546269893646, 325.4327790737152, 326.18339705467224, 326.3002960681915, 326.4170889854431, 326.53393602371216, 326.65067195892334, 326.7676010131836, 326.8844220638275, 327.00114703178406, 327.11805605888367, 327.2345039844513, 327.3514120578766, 327.4683599472046, 327.5850410461426, 327.70171904563904, 327.8185660839081, 327.93543696403503, 328.05224895477295, 328.2713029384613]	[324.1674342810028, 324.2841009476628, 325.2671009476628, 325.4338009476628, 326.1838009476628, 326.3004676143228, 326.41713428098285, 326.5338009476429, 326.6504676143029, 326.7671342809629, 326.88380094762294, 327.00046761428297, 327.117134280943, 327.233800947603, 327.35046761426304, 327.46713428092306, 327.5838009475831, 327.7004676142431, 327.81713428090313, 327.93380094756316, 328.0504676142232, 328.28380094755653]	2020_Nov_26_1105	59.9822954936454	1	0.375
4	55	FALSE	NV	a	['J', 'H', 'A', 'W', 'Z', 'R', 'G', 'T', 'M', 'X', 'Y', 'V', 'S', 'C', 'P', 'B']	[1029, 986, 697, 2448, 2911, 1587, 944, 1888, 1224, 4000, 2670, 2245, 1731, 829, 1456, 760]	10	Present	NA	NA	NONE	-1	330.28417897224426	332.269837141037	333.0865116754701	333.4365138212173	336.39440298080444	4.124565839767456	[330.30446100234985, 330.40476393699646, 331.37099409103394, 331.55598187446594, 332.30668902397156, 332.42347502708435, 332.54032707214355, 332.6571190357208, 332.7739419937134, 332.89061403274536, 333.0073380470276, 333.12425994873047, 333.24121594429016, 333.3577229976654, 333.47473192214966, 333.59153294563293, 333.70837688446045, 333.82521986961365, 333.94176602363586, 334.0590510368347, 334.175411939621, 334.3876690864563]	[330.28380094755653, 330.40046761421655, 331.38346761421656, 331.55016761421655, 332.30016761421655, 332.41683428087657, 332.5335009475366, 332.6501676141966, 332.76683428085664, 332.88350094751667, 333.0001676141767, 333.1168342808367, 333.23350094749674, 333.35016761415676, 333.4668342808168, 333.5835009474768, 333.70016761413683, 333.81683428079685, 333.9335009474569, 334.0501676141169, 334.1668342807769, 334.4001676141103]	2020_Nov_26_1105	59.9822954936454	1	0.375
4	56	FALSE	NN	a	['Y', 'R', 'Z', 'A', 'K', 'N', 'P', 'E', 'C', 'T', 'H', 'M', 'W', 'U', 'G', 'B']	[2670, 1587, 2911, 697, 1122, 1335, 1456, 904, 829, 1888, 986, 1224, 2448, 2059, 944, 760]	13	Absent	NA	NA	PRESENT	0.2297370433807373	336.39076495170593	338.38637495040894	339.5530487695663	339.9030516305693	342.50403690338135	4.117661952972412	[336.4110469818115, 336.5112478733063, 337.487361907959, 337.6623799800873, 338.41316390037537, 338.5299129486084, 338.64683294296265, 338.7634708881378, 338.88043308258057, 338.99716806411743, 339.11401200294495, 339.2307870388031, 339.3475880622864, 339.46440386772156, 339.5811460018158, 339.6979749202728, 339.8148510456085, 339.93141293525696, 340.0484628677368, 340.16506791114807, 340.2820119857788, 340.50403594970703]	[336.4001676141103, 336.5168342807703, 337.4998342807703, 337.6665342807703, 338.4165342807703, 338.5332009474303, 338.64986761409034, 338.76653428075036, 338.8832009474104, 338.9998676140704, 339.11653428073043, 339.23320094739046, 339.3498676140505, 339.4665342807105, 339.5832009473705, 339.69986761403055, 339.8165342806906, 339.9332009473506, 340.0498676140106, 340.16653428067065, 340.28320094733067, 340.516534280664]	2020_Nov_26_1105	59.9822954936454	1	0.375
4	57	FALSE	NA	a	['G', 'E', 'J', 'B', 'K', 'H', 'S', 'V', 'N', 'U', 'Y', 'C', 'X', 'R', 'T', 'Z']	[944, 904, 1029, 760, 1122, 986, 1731, 2245, 1335, 2059, 2670, 829, 4000, 1587, 1888, 2911]	13	Present	NA	NA	PRESENT	1.1463680267333984	342.49731516838074	344.5026500225067	345.6693247953384	346.01932670266706	348.62040400505066	4.117753982543945	[342.51759696006775, 342.63442397117615, 343.603728055954, 343.78567695617676, 344.53674697875977, 344.6536419391632, 344.77006006240845, 344.88675689697266, 345.0035979747772, 345.1203260421753, 345.23722290992737, 345.35403203964233, 345.47086000442505, 345.5874180793762, 345.70438504219055, 345.8211510181427, 345.93772888183594, 346.0548679828644, 346.17153000831604, 346.288507938385, 346.4051558971405, 346.62040305137634]	[342.516534280664, 342.63320094732404, 343.61620094732405, 343.78290094732404, 344.53290094732404, 344.64956761398406, 344.7662342806441, 344.8829009473041, 344.99956761396413, 345.11623428062416, 345.2329009472842, 345.3495676139442, 345.4662342806042, 345.58290094726425, 345.6995676139243, 345.8162342805843, 345.9329009472443, 346.04956761390434, 346.16623428056437, 346.2829009472244, 346.3995676138844, 346.63290094721776]	2020_Nov_26_1105	59.9822954936454	1	0.375
4	58	FALSE	NA	a	['U', 'G', 'B', 'K', 'Y', 'J', 'T', 'S', 'M', 'R', 'A', 'E', 'X', 'V', 'P', 'N']	[2059, 944, 760, 1122, 2670, 1029, 1888, 1731, 1224, 1587, 697, 904, 4000, 2245, 1456, 1335]	13	Present	NA	NA	PRESENT	0.5197558403015137	348.62062406539917	350.61884593963623	351.7855207124679	352.1355226197966	354.73676896095276	4.117923021316528	[348.64090490341187, 348.75752091407776, 349.720095872879, 349.8919789791107, 350.6595849990845, 350.7596490383148, 350.87646889686584, 350.9932630062103, 351.110013961792, 351.2268979549408, 351.3436450958252, 351.460520029068, 351.5772409439087, 351.6940829753876, 351.81083703041077, 351.9275538921356, 352.0444359779358, 352.16110396385193, 352.278137922287, 352.39468002319336, 352.5115919113159, 352.73676896095276]	[348.63290094721776, 348.7495676138778, 349.7325676138778, 349.8992676138778, 350.6492676138778, 350.7659342805378, 350.88260094719783, 350.99926761385785, 351.1159342805179, 351.2326009471779, 351.3492676138379, 351.46593428049795, 351.58260094715797, 351.699267613818, 351.815934280478, 351.93260094713804, 352.04926761379807, 352.1659342804581, 352.2826009471181, 352.39926761377814, 352.51593428043816, 352.7492676137715]	2020_Nov_26_1105	59.9822954936454	1	0.375
4	59	FALSE	NN	a	['G', 'H', 'B', 'E', 'P', 'T', 'S', 'U', 'M', 'V', 'Z', 'J', 'C', 'A', 'K', 'R']	[944, 986, 760, 904, 1456, 1888, 1731, 2059, 1224, 2245, 2911, 1029, 829, 697, 1122, 1587]	12	Absent	NA	NA	PRESENT	0.8921310901641846	354.7273750305176	356.7352840900421	357.7852919577952	358.13529410354244	360.8531370162964	4.1178529262542725	[354.7476589679718, 354.86423802375793, 355.8364598751068, 356.015408039093, 356.7663309574127, 356.8830089569092, 356.99984908103943, 357.11650800704956, 357.23333191871643, 357.34999895095825, 357.46693205833435, 357.5838289260864, 357.70045495033264, 357.81716990470886, 357.934042930603, 358.05081009864807, 358.1674509048462, 358.2843759059906, 358.4009940624237, 358.5180220603943, 358.63473105430603, 358.8531370162964]	[354.7492676137715, 354.86593428043153, 355.84893428043154, 356.0156342804315, 356.7656342804315, 356.88230094709155, 356.9989676137516, 357.1156342804116, 357.2323009470716, 357.34896761373165, 357.46563428039167, 357.5823009470517, 357.6989676137117, 357.81563428037174, 357.93230094703176, 358.0489676136918, 358.1656342803518, 358.28230094701183, 358.39896761367186, 358.5156342803319, 358.6323009469919, 358.86563428032525]	2020_Nov_26_1105	59.9822954936454	1	0.375
4	60	FALSE	NV	a	['U', 'M', 'N', 'G', 'K', 'Y', 'J', 'Z', 'S', 'R', 'B', 'V', 'X', 'C', 'H', 'P']	[2059, 1224, 1335, 944, 1122, 2670, 1029, 2911, 1731, 1587, 760, 2245, 4000, 829, 986, 1456]	13	Present	NA	NA	PRESENT	0.39350295066833496	360.8502280712128	362.8516020774842	364.0182766118973	364.3682787576445	366.9695029258728	4.117900848388672	[360.87051010131836, 360.98737692832947, 361.9528260231018, 362.13860988616943, 362.8892590999603, 363.00618290901184, 363.12277388572693, 363.23960399627686, 363.3562960624695, 363.4731318950653, 363.59015107154846, 363.7069020271301, 363.8237109184265, 363.9405241012573, 364.0574131011963, 364.1743381023407, 364.29073190689087, 364.40771889686584, 364.5075590610504, 364.6243829727173, 364.74116587638855, 364.9695019721985]	[360.86563428032525, 360.9823009469853, 361.9653009469853, 362.1320009469853, 362.8820009469853, 362.9986676136453, 363.1153342803053, 363.23200094696534, 363.34866761362537, 363.4653342802854, 363.5820009469454, 363.69866761360544, 363.81533428026546, 363.9320009469255, 364.0486676135855, 364.16533428024553, 364.28200094690555, 364.3986676135656, 364.5153342802256, 364.6320009468856, 364.74866761354565, 364.982000946879]	2020_Nov_26_1105	59.9822954936454	1	0.375
4	61	FALSE	VA	a	['N', 'W', 'S', 'H', 'Z', 'U', 'J', 'A', 'M', 'surprise', 'R', 'T', 'X', 'G', 'Y', 'B']	[1335, 2448, 1731, 986, 2911, 2059, 1029, 697, 1224, 'stimAuditory/all_stimAuditory/102.wav', 1587, 1888, 4000, 944, 2670, 760]	13	Present	NA	NA	PRESENT	0.5502030849456787	366.95658111572266	368.96805214881897	370.1347266832321	370.4847288289793	373.0858690738678	4.117816925048828	[366.9768650531769, 367.093633890152, 368.0691909790039, 368.2449679374695, 368.99578189849854, 369.1126461029053, 369.22931003570557, 369.3463089466095, 369.46291399002075, 369.5797610282898, 369.696496963501, 369.81311988830566, 369.930214881897, 370.0468189716339, 370.16369009017944, 370.28040504455566, 370.3973388671875, 370.5139639377594, 370.63092708587646, 370.74778008461, 370.86448407173157, 371.0858678817749]	[366.982000946879, 367.098667613539, 368.081667613539, 368.248367613539, 368.998367613539, 369.11503428019904, 369.23170094685906, 369.3483676135191, 369.4650342801791, 369.58170094683913, 369.69836761349916, 369.8150342801592, 369.9317009468192, 370.04836761347923, 370.16503428013925, 370.2817009467993, 370.3983676134593, 370.5150342801193, 370.63170094677935, 370.74836761343937, 370.8650342800994, 371.09836761343274]	2020_Nov_26_1105	59.9822954936454	1	0.375
4	62	FALSE	NA	a	['R', 'Z', 'W', 'K', 'P', 'A', 'H', 'G', 'V', 'C', 'B', 'X', 'Y', 'S', 'T', 'U']	[1587, 2911, 2448, 1122, 1456, 697, 986, 944, 2245, 829, 760, 4000, 2670, 1731, 1888, 2059]	12	Present	NA	NA	PRESENT	0.34674501419067383	373.0799300670624	375.0845720767975	376.1345799445506	376.4845820902978	379.2022368907929	4.117664813995361	[373.10021209716797, 373.21705293655396, 374.1855640411377, 374.3685429096222, 375.1189410686493, 375.2356719970703, 375.35267996788025, 375.46932101249695, 375.5860860347748, 375.702782869339, 375.81965494155884, 375.93653106689453, 376.05336689949036, 376.1699869632721, 376.286985874176, 376.4038200378418, 376.5204219818115, 376.63719296455383, 376.7538719177246, 376.87092995643616, 376.9876549243927, 377.20223689079285]	[373.09836761343274, 373.21503428009277, 374.19803428009277, 374.36473428009276, 375.11473428009276, 375.2314009467528, 375.3480676134128, 375.46473428007283, 375.58140094673286, 375.6980676133929, 375.8147342800529, 375.9314009467129, 376.04806761337295, 376.164734280033, 376.281400946693, 376.398067613353, 376.51473428001304, 376.63140094667307, 376.7480676133331, 376.8647342799931, 376.98140094665314, 377.2147342799865]	2020_Nov_26_1105	59.9822954936454	1	0.375
4	63	FALSE	NN	a	['J', 'E', 'V', 'R', 'N', 'C', 'S', 'W', 'U', 'M', 'A', 'B', 'K', 'T', 'P', 'G']	[1029, 904, 2245, 1587, 1335, 829, 1731, 2448, 2059, 1224, 697, 760, 1122, 1888, 1456, 944]	8	Absent	NA	NA	PRESENT	0.8317470550537109	379.203115940094	381.20095014572144	381.78429134683455	382.1342934925818	385.31860399246216	4.117653846740723	[379.2233979701996, 379.3401589393616, 380.3019289970398, 380.4745590686798, 381.2421679496765, 381.3423218727112, 381.45907187461853, 381.5759620666504, 381.6925790309906, 381.8095588684082, 381.92613196372986, 382.04303002357483, 382.15975689888, 382.27657294273376, 382.3934950828552, 382.5100350379944, 382.62696290016174, 382.74358797073364, 382.8604919910431, 382.97724890708923, 383.09417390823364, 383.31860399246216]	[379.2147342799865, 379.3314009466465, 380.3144009466465, 380.4811009466465, 381.2311009466465, 381.34776761330653, 381.46443427996655, 381.5811009466266, 381.6977676132866, 381.8144342799466, 381.93110094660665, 382.04776761326667, 382.1644342799267, 382.2811009465867, 382.39776761324674, 382.51443427990677, 382.6311009465668, 382.7477676132268, 382.86443427988684, 382.98110094654686, 383.0977676132069, 383.33110094654023]	2020_Nov_26_1105	59.9822954936454	1	0.375
4	64	FALSE	NV	a	['T', 'Y', 'W', 'H', 'U', 'K', 'V', 'B', 'N', 'J', 'X', 'A', 'S', 'G', 'E', 'M']	[1888, 2670, 2448, 986, 2059, 1122, 2245, 760, 1335, 1029, 4000, 697, 1731, 944, 904, 1224]	11	Present	NA	NA	NONE	-1	385.3095440864563	387.31708002090454	388.25042026832335	388.6004224140705	391.4530680179596	4.135987997055054	[385.32982993125916, 385.4465320110321, 386.4182929992676, 386.5979290008545, 387.3486180305481, 387.46539187431335, 387.58224606513977, 387.69897389411926, 387.8159918785095, 387.9326410293579, 388.04926204681396, 388.16610407829285, 388.28282499313354, 388.399710893631, 388.51646399497986, 388.63338804244995, 388.7502188682556, 388.8668580055237, 388.98362588882446, 389.1005480289459, 389.21715807914734, 389.4349699020386]	[385.33110094654023, 385.44776761320026, 386.43076761320026, 386.59746761320025, 387.34746761320025, 387.4641342798603, 387.5808009465203, 387.6974676131803, 387.81413427984035, 387.93080094650037, 388.0474676131604, 388.1641342798204, 388.28080094648044, 388.39746761314046, 388.5141342798005, 388.6308009464605, 388.74746761312053, 388.86413427978056, 388.9808009464406, 389.0974676131006, 389.21413427976063, 389.447467613094]	2020_Nov_26_1105	59.9822954936454	1	0.375
4	65	FALSE	NN	a	['A', 'G', 'Y', 'H', 'N', 'P', 'C', 'E', 'T', 'J', 'V', 'B', 'S', 'U', 'K', 'W']	[697, 944, 2670, 986, 1335, 1456, 829, 904, 1888, 1029, 2245, 760, 1731, 2059, 1122, 2448]	10	Absent	NA	NA	NONE	-1	391.4493961334229	393.43351912498474	394.25019270574353	394.6001946130722	397.5594398975372	4.12592077255249	[391.46967792510986, 391.56973910331726, 392.5346579551697, 392.7210819721222, 393.4718179702759, 393.5886650085449, 393.70552802085876, 393.822359085083, 393.939022064209, 394.05612301826477, 394.17266297340393, 394.2894060611725, 394.40617394447327, 394.50611090660095, 394.62293100357056, 394.73971700668335, 394.8564729690552, 394.9733340740204, 395.09008288383484, 395.206866979599, 395.3238899707794, 395.55133605003357]	[391.447467613094, 391.564134279754, 392.547134279754, 392.713834279754, 393.463834279754, 393.580500946414, 393.69716761307404, 393.81383427973407, 393.9305009463941, 394.0471676130541, 394.16383427971414, 394.28050094637416, 394.3971676130342, 394.5138342796942, 394.63050094635423, 394.74716761301426, 394.8638342796743, 394.9805009463343, 395.0971676129943, 395.21383427965435, 395.3305009463144, 395.5638342796477]	2020_Nov_26_1105	59.9822954936454	1	0.375
4	66	FALSE	AA	a	['H', 'T', 'Z', 'E', 'R', 'C', 'N', 'K', 'surprise', 'A', 'G', 'X', 'J', 'U', 'B', 'M']	[986, 1888, 2911, 904, 1587, 829, 1335, 1122, 'stimAuditory/all_stimAuditory/108.wav', 697, 944, 4000, 1029, 2059, 760, 1224]	12	Present	stimAuditory/all_stimAuditory/119.wav	NA	PRESENT	0.2383871078491211	397.555899143219	399.5501000881195	400.6001070021983	400.9501091479455	403.6677029132843	4.117602825164795	[397.576180934906, 397.67641592025757, 398.6510241031647, 398.8275239467621, 399.5782868862152, 399.6951608657837, 399.811970949173, 399.92863607406616, 400.04563903808594, 400.1621789932251, 400.27923607826233, 400.3960030078888, 400.5125160217285, 400.6295030117035, 400.74627804756165, 400.8629479408264, 400.97981786727905, 401.09650588035583, 401.2132399082184, 401.33017206192017, 401.44699692726135, 401.6677029132843]	[397.5638342796477, 397.68050094630775, 398.66350094630775, 398.83020094630774, 399.58020094630774, 399.69686761296776, 399.8135342796278, 399.9302009462878, 400.04686761294784, 400.16353427960786, 400.2802009462679, 400.3968676129279, 400.51353427958793, 400.63020094624795, 400.746867612908, 400.863534279568, 400.980200946228, 401.09686761288805, 401.21353427954807, 401.3302009462081, 401.4468676128681, 401.68020094620147]	2020_Nov_26_1105	59.9822954936454	1	0.375
4	67	FALSE	NV	a	['R', 'W', 'T', 'N', 'C', 'P', 'A', 'E', 'Y', 'X', 'U', 'B', 'J', 'K', 'M', 'H']	[1587, 2448, 1888, 1335, 829, 1456, 697, 904, 2670, 4000, 2059, 760, 1029, 1122, 1224, 986]	10	Present	NA	NA	PRESENT	1.0028738975524902	403.6623480319977	405.66624999046326	406.48292476331494	406.8329266706436	409.7840700149536	4.1178200244903564	[403.6826310157776, 403.7993919849396, 404.7673919200897, 404.9510040283203, 405.70133805274963, 405.81840896606445, 405.93499994277954, 406.05185198783875, 406.1686260700226, 406.28566694259644, 406.40246295928955, 406.5192070007324, 406.63588094711304, 406.75267791748047, 406.86946296691895, 406.9862780570984, 407.10281896591187, 407.21971893310547, 407.33649706840515, 407.4534549713135, 407.5700509548187, 407.7840700149536]	[403.68020094620147, 403.7968676128615, 404.7798676128615, 404.9465676128615, 405.6965676128615, 405.8132342795215, 405.92990094618153, 406.04656761284156, 406.1632342795016, 406.2799009461616, 406.3965676128216, 406.51323427948165, 406.6299009461417, 406.7465676128017, 406.8632342794617, 406.97990094612175, 407.09656761278177, 407.2132342794418, 407.3299009461018, 407.44656761276184, 407.56323427942186, 407.7965676127552]	2020_Nov_26_1105	59.9822954936454	1	0.375
4	68	FALSE	NA	a	['A', 'W', 'Y', 'S', 'Z', 'C', 'T', 'X', 'G', 'U', 'M', 'R', 'H', 'N', 'J', 'B']	[697, 2448, 2670, 1731, 2911, 829, 1888, 4000, 944, 2059, 1224, 1587, 986, 1335, 1029, 760]	8	Present	NA	NA	ABSENT	1.848114013671875	409.7858350276947	411.7825310230255	412.3658724625572	412.71587436988585	415.90043592453	4.117904901504517	[409.8061170578003, 409.905886888504, 410.88375997543335, 411.0571370124817, 411.80782294273376, 411.92487597465515, 412.0416889190674, 412.1583170890808, 412.27532386779785, 412.3919780254364, 412.50894689559937, 412.6254029273987, 412.74221992492676, 412.85885310173035, 412.9758520126343, 413.09271001815796, 413.20934200286865, 413.3262228965759, 413.44292092323303, 413.5598289966583, 413.6765298843384, 413.90043592453003]	[409.7965676127552, 409.91323427941524, 410.89623427941524, 411.06293427941523, 411.81293427941523, 411.92960094607525, 412.0462676127353, 412.1629342793953, 412.2796009460553, 412.39626761271535, 412.5129342793754, 412.6296009460354, 412.7462676126954, 412.86293427935544, 412.97960094601547, 413.0962676126755, 413.2129342793355, 413.32960094599554, 413.44626761265556, 413.5629342793156, 413.6796009459756, 413.91293427930896]	2020_Nov_26_1105	59.9822954936454	1	0.375
4	69	FALSE	NV	a	['C', 'U', 'G', 'R', 'B', 'J', 'K', 'X', 'M', 'N', 'A', 'H', 'E', 'W', 'T', 'Y']	[829, 2059, 944, 1587, 760, 1029, 1122, 4000, 1224, 1335, 697, 986, 904, 2448, 1888, 2670]	8	Present	NA	NA	PRESENT	1.2287449836730957	415.8921229839325	417.8991060256958	418.4824462731346	418.8324484188818	422.01680397987366	4.117697954177856	[415.91240406036377, 416.0290548801422, 417.00012707710266, 417.1804699897766, 417.93109798431396, 418.04794096946716, 418.1648659706116, 418.2815670967102, 418.3984019756317, 418.5151309967041, 418.6320559978485, 418.74877309799194, 418.86566495895386, 418.98236298561096, 419.098974943161, 419.2158110141754, 419.3325870037079, 419.44953298568726, 419.5662999153137, 419.68301701545715, 419.79995107650757, 420.01680302619934]	[415.91293427930896, 416.029600945969, 417.012600945969, 417.179300945969, 417.929300945969, 418.045967612629, 418.162634279289, 418.27930094594905, 418.39596761260907, 418.5126342792691, 418.6293009459291, 418.74596761258914, 418.86263427924916, 418.9793009459092, 419.0959676125692, 419.21263427922923, 419.32930094588926, 419.4459676125493, 419.5626342792093, 419.67930094586933, 419.79596761252935, 420.0293009458627]	2020_Nov_26_1105	59.9822954936454	1	0.375
4	70	FALSE	NV	a	['U', 'R', 'S', 'J', 'W', 'Y', 'N', 'E', 'K', 'P', 'X', 'Z', 'B', 'H', 'M', 'C']	[2059, 1587, 1731, 1029, 2448, 2670, 1335, 904, 1122, 1456, 4000, 2911, 760, 986, 1224, 829]	11	Present	NA	NA	PRESENT	1.1061739921569824	422.0153169631958	424.0155780315399	424.9489194710516	425.2989213783802	428.13316893577576	4.11759090423584	[422.0355989933014, 422.15286803245544, 423.1164929866791, 423.3036298751831, 424.05437302589417, 424.1543951034546, 424.27103996276855, 424.38784289360046, 424.5047540664673, 424.6214950084686, 424.7383749485016, 424.8550798892975, 424.97186493873596, 425.0889558792114, 425.20545506477356, 425.3221960067749, 425.4389820098877, 425.55586791038513, 425.67263102531433, 425.7894449234009, 425.90620398521423, 426.13316893577576]	[422.0293009458627, 422.1459676125227, 423.12896761252273, 423.2956676125227, 424.0456676125227, 424.16233427918274, 424.27900094584277, 424.3956676125028, 424.5123342791628, 424.62900094582284, 424.74566761248286, 424.8623342791429, 424.9790009458029, 425.09566761246293, 425.21233427912296, 425.329000945783, 425.445667612443, 425.562334279103, 425.67900094576305, 425.7956676124231, 425.9123342790831, 426.14566761241645]	2020_Nov_26_1105	59.9822954936454	1	0.375
4	71	FALSE	NA	a	['W', 'G', 'B', 'U', 'M', 'A', 'C', 'X', 'R', 'J', 'V', 'S', 'P', 'K', 'N', 'Y']	[2448, 944, 760, 2059, 1224, 697, 829, 4000, 1587, 1029, 2245, 1731, 1456, 1122, 1335, 2670]	8	Present	NA	NA	PRESENT	1.6865129470825195	428.12174010276794	430.1320331096649	430.715374310778	431.06537550285094	434.2495369911194	4.117503881454468	[428.14202308654785, 428.2589020729065, 429.2328610420227, 429.4101209640503, 430.16073298454285, 430.2775659561157, 430.39451694488525, 430.5111999511719, 430.6280961036682, 430.7448000907898, 430.86151790618896, 430.9783389568329, 431.09527587890625, 431.2119369506836, 431.32881689071655, 431.44552993774414, 431.56224608421326, 431.6791410446167, 431.79589891433716, 431.91273188591003, 432.02957797050476, 432.2495369911194]	[428.14566761241645, 428.26233427907647, 429.2453342790765, 429.41203427907647, 430.16203427907647, 430.2787009457365, 430.3953676123965, 430.51203427905654, 430.62870094571656, 430.7453676123766, 430.8620342790366, 430.97870094569663, 431.09536761235665, 431.2120342790167, 431.3287009456767, 431.4453676123367, 431.56203427899675, 431.6787009456568, 431.7953676123168, 431.9120342789768, 432.02870094563684, 432.2620342789702]	2020_Nov_26_1105	59.9822954936454	1	0.375
4	72	FALSE	NN	a	['S', 'J', 'W', 'N', 'Z', 'Y', 'G', 'H', 'K', 'C', 'M', 'T', 'A', 'B', 'R', 'U']	[1731, 1029, 2448, 1335, 2911, 2670, 944, 986, 1122, 829, 1224, 1888, 697, 760, 1587, 2059]	11	Absent	NA	NA	PRESENT	1.115067958831787	434.2450139522553	436.2483570575714	437.1816973049902	437.5316994507374	440.3659029006958	4.11754584312439	[434.26529598236084, 434.38205099105835, 435.3492269515991, 435.53369307518005, 436.2839560508728, 436.40076994895935, 436.517786026001, 436.6345090866089, 436.75131702423096, 436.8680920600891, 436.98484802246094, 437.1016309261322, 437.21827697753906, 437.33510088920593, 437.45205998420715, 437.5688760280609, 437.6854169368744, 437.80225586891174, 437.91914987564087, 438.03577399253845, 438.15270709991455, 438.3659019470215]	[434.2620342789702, 434.3787009456302, 435.3617009456302, 435.5284009456302, 436.2784009456302, 436.39506761229023, 436.51173427895026, 436.6284009456103, 436.7450676122703, 436.8617342789303, 436.97840094559035, 437.0950676122504, 437.2117342789104, 437.3284009455704, 437.44506761223045, 437.56173427889047, 437.6784009455505, 437.7950676122105, 437.91173427887054, 438.02840094553056, 438.1450676121906, 438.37840094552394]	2020_Nov_26_1105	59.9822954936454	1	0.375
4	73	FALSE	NA	a	['B', 'W', 'P', 'T', 'M', 'N', 'K', 'U', 'J', 'Z', 'X', 'G', 'C', 'H', 'Y', 'E']	[760, 2448, 1456, 1888, 1224, 1335, 1122, 2059, 1029, 2911, 4000, 944, 829, 986, 2670, 904]	11	Present	NA	NA	PRESENT	0.1362931728363037	440.3512849807739	442.3645191192627	443.2978593666815	443.6478612740101	446.4822700023651	4.117750883102417	[440.3715660572052, 440.48833107948303, 441.4655930995941, 441.6397759914398, 442.39034509658813, 442.50721192359924, 442.6240870952606, 442.7408928871155, 442.85758805274963, 442.9744029045105, 443.091304063797, 443.2081980705261, 443.32495498657227, 443.4415419101715, 443.5586099624634, 443.6751489639282, 443.79196190834045, 443.90886402130127, 444.02551198005676, 444.14237809181213, 444.2592680454254, 444.4822690486908]	[440.37840094552394, 440.49506761218396, 441.47806761218396, 441.64476761218395, 442.39476761218395, 442.511434278844, 442.628100945504, 442.744767612164, 442.86143427882405, 442.9781009454841, 443.0947676121441, 443.2114342788041, 443.32810094546414, 443.44476761212417, 443.5614342787842, 443.6781009454442, 443.79476761210424, 443.91143427876426, 444.0281009454243, 444.1447676120843, 444.26143427874433, 444.4947676120777]	2020_Nov_26_1105	59.9822954936454	1	0.375
4	74	FALSE	NA	a	['V', 'B', 'N', 'Z', 'S', 'C', 'J', 'G', 'P', 'H', 'E', 'Y', 'X', 'W', 'U', 'K']	[2245, 760, 1335, 2911, 1731, 829, 1029, 944, 1456, 986, 904, 2670, 4000, 2448, 2059, 1122]	13	Present	NA	NA	PRESENT	0.6131691932678223	446.47491002082825	448.4807810783386	449.64745561275174	449.99745775849897	452.59863686561584	4.117855787277222	[446.49519300460815, 446.6116099357605, 447.58195996284485, 447.7630889415741, 448.51366901397705, 448.63048005104065, 448.74720191955566, 448.86406087875366, 448.9810070991516, 449.0976469516754, 449.2144010066986, 449.331346988678, 449.4479880332947, 449.5648629665375, 449.68160700798035, 449.7983820438385, 449.9151680469513, 450.03190898895264, 450.14885902404785, 450.26556491851807, 450.382257938385, 450.5986359119415]	[446.4947676120777, 446.6114342787377, 447.5944342787377, 447.7611342787377, 448.5111342787377, 448.6278009453977, 448.74446761205775, 448.86113427871777, 448.9778009453778, 449.0944676120378, 449.21113427869784, 449.32780094535786, 449.4444676120179, 449.5611342786779, 449.67780094533794, 449.79446761199796, 449.911134278658, 450.027800945318, 450.14446761197803, 450.26113427863805, 450.3778009452981, 450.6111342786314]	2020_Nov_26_1105	59.9822954936454	1	0.375
4	75	FALSE	NA	a	['Y', 'A', 'J', 'S', 'H', 'E', 'T', 'X', 'V', 'W', 'N', 'B', 'Z', 'M', 'P', 'G']	[2670, 697, 1029, 1731, 986, 904, 1888, 4000, 2245, 2448, 1335, 760, 2911, 1224, 1456, 944]	8	Present	NA	NA	NONE	-1	452.59787011146545	454.59752011299133	455.1808613141045	455.5308634598517	458.7246050834656	4.127084970474243	[452.61815094947815, 452.73480796813965, 453.6983308792114, 453.8859910964966, 454.63691091537476, 454.736918926239, 454.85366892814636, 454.97047686576843, 455.0872700214386, 455.20400500297546, 455.3208110332489, 455.4375538825989, 455.5543909072876, 455.67126202583313, 455.788232088089, 455.9048550128937, 456.02191495895386, 456.13856506347656, 456.255224943161, 456.3719608783722, 456.4888710975647, 456.71500396728516]	[452.6111342786314, 452.72780094529145, 453.71080094529145, 453.87750094529144, 454.62750094529144, 454.74416761195147, 454.8608342786115, 454.9775009452715, 455.09416761193154, 455.21083427859156, 455.3275009452516, 455.4441676119116, 455.56083427857163, 455.67750094523166, 455.7941676118917, 455.9108342785517, 456.0275009452117, 456.14416761187175, 456.2608342785318, 456.3775009451918, 456.4941676118518, 456.72750094518517]	2020_Nov_26_1105	59.9822954936454	1	0.375
4	76	FALSE	NA	a	['N', 'Z', 'A', 'S', 'T', 'R', 'B', 'W', 'P', 'E', 'Y', 'X', 'C', 'U', 'V', 'H']	[1335, 2911, 697, 1731, 1888, 1587, 760, 2448, 1456, 904, 2670, 4000, 829, 2059, 2245, 986]	12	Present	NA	NA	PRESENT	1.2388160228729248	458.72077894210815	460.7135729789734	461.7635820388194	462.113583946148	464.8313698768616	4.117796897888184	[458.74106097221375, 458.8414418697357, 459.8146929740906, 459.9926118850708, 460.7433340549469, 460.860111951828, 460.9770679473877, 461.0936470031738, 461.2105920314789, 461.3273320198059, 461.44410610198975, 461.5609130859375, 461.6775178909302, 461.7945430278778, 461.91121792793274, 462.028107881546, 462.1448209285736, 462.2617359161377, 462.37841796875, 462.49525809288025, 462.6119918823242, 462.8313698768616]	[458.72750094518517, 458.8441676118452, 459.8271676118452, 459.9938676118452, 460.7438676118452, 460.8605342785052, 460.97720094516524, 461.09386761182526, 461.2105342784853, 461.3272009451453, 461.44386761180533, 461.56053427846535, 461.6772009451254, 461.7938676117854, 461.9105342784454, 462.02720094510545, 462.1438676117655, 462.2605342784255, 462.3772009450855, 462.49386761174554, 462.61053427840557, 462.8438676117389]	2020_Nov_26_1105	59.9822954936454	1	0.375
4	77	FALSE	NV	a	['P', 'U', 'A', 'M', 'W', 'E', 'J', 'V', 'G', 'X', 'K', 'C', 'S', 'Y', 'T', 'B']	[1456, 2059, 697, 1224, 2448, 904, 1029, 2245, 944, 4000, 1122, 829, 1731, 2670, 1888, 760]	10	Present	NA	NA	PRESENT	0.25939202308654785	464.8275320529938	466.82997703552246	467.6466506162813	467.9966527620285	470.9477369785309	4.117759943008423	[464.84781289100647, 464.96437406539917, 465.9310610294342, 466.1161639690399, 466.8664789199829, 466.98343992233276, 467.100084066391, 467.21689891815186, 467.33376288414, 467.45056200027466, 467.5671260356903, 467.68412494659424, 467.800843000412, 467.9177780151367, 468.0344250202179, 468.1513729095459, 468.26819586753845, 468.38473105430603, 468.501748085022, 468.61822605133057, 468.73538088798523, 468.94773602485657]	[464.8438676117389, 464.96053427839894, 465.94353427839894, 466.11023427839893, 466.86023427839893, 466.97690094505896, 467.093567611719, 467.210234278379, 467.32690094503903, 467.44356761169905, 467.5602342783591, 467.6769009450191, 467.7935676116791, 467.91023427833915, 468.02690094499917, 468.1435676116592, 468.2602342783192, 468.37690094497924, 468.49356761163926, 468.6102342782993, 468.7269009449593, 468.96023427829266]	2020_Nov_26_1105	59.9822954936454	1	0.375
4	78	FALSE	NA	a	['C', 'G', 'S', 'J', 'P', 'V', 'Z', 'U', 'A', 'H', 'X', 'N', 'W', 'M', 'R', 'B']	[829, 944, 1731, 1029, 1456, 2245, 2911, 2059, 697, 986, 4000, 1335, 2448, 1224, 1587, 760]	11	Present	NA	NA	PRESENT	0.5928390026092529	470.9338960647583	472.9462070465088	473.8795484860205	474.2295503933491	477.0641028881073	4.117895841598511	[470.9541780948639, 471.0710279941559, 472.0474269390106, 472.22235798835754, 472.9729619026184, 473.0898299217224, 473.2066969871521, 473.32338404655457, 473.4401409626007, 473.557009935379, 473.6736559867859, 473.79058289527893, 473.90742802619934, 474.0241940021515, 474.1411089897156, 474.2578709125519, 474.3744258880615, 474.49144101142883, 474.6082489490509, 474.72497391700745, 474.8416109085083, 475.064101934433]	[470.96023427829266, 471.0769009449527, 472.0599009449527, 472.2266009449527, 472.9766009449527, 473.0932676116127, 473.2099342782727, 473.32660094493275, 473.4432676115928, 473.5599342782528, 473.6766009449128, 473.79326761157284, 473.90993427823287, 474.0266009448929, 474.1432676115529, 474.25993427821294, 474.37660094487296, 474.493267611533, 474.609934278193, 474.72660094485303, 474.84326761151306, 475.0766009448464]	2020_Nov_26_1105	59.9822954936454	1	0.375
4	79	FALSE	NV	a	['W', 'E', 'N', 'B', 'R', 'V', 'T', 'J', 'X', 'M', 'A', 'C', 'G', 'Z', 'P', 'K']	[2448, 904, 1335, 760, 1587, 2245, 1888, 1029, 4000, 1224, 697, 829, 944, 2911, 1456, 1122]	9	Present	NA	NA	PRESENT	0.33328700065612793	477.0573151111603	479.0627560615539	479.7627641677457	480.11276607507426	483.1804699897766	4.117713928222656	[477.0775969028473, 477.19410395622253, 478.16379594802856, 478.3453919887543, 479.0960988998413, 479.21311497688293, 479.32981610298157, 479.4466230869293, 479.56328892707825, 479.6802430152893, 479.7971000671387, 479.91386008262634, 480.03037691116333, 480.14750695228577, 480.2641088962555, 480.3809769153595, 480.4976370334625, 480.61461210250854, 480.7312469482422, 480.84808707237244, 480.96502709388733, 481.1804699897766]	[477.0766009448464, 477.1932676115064, 478.17626761150643, 478.3429676115064, 479.0929676115064, 479.20963427816645, 479.32630094482647, 479.4429676114865, 479.5596342781465, 479.67630094480654, 479.79296761146657, 479.9096342781266, 480.0263009447866, 480.14296761144664, 480.25963427810666, 480.3763009447667, 480.4929676114267, 480.60963427808673, 480.72630094474675, 480.8429676114068, 480.9596342780668, 481.19296761140015]	2020_Nov_26_1105	59.9822954936454	1	0.375
4	80	FALSE	VV	a	['H', 'U', 'M', 'T', 'Z', 'K', 'surprise', 'V', 'Y', 'X', 'G', 'E', 'A', 'S', 'W', 'B']	[986, 2059, 1224, 1888, 2911, 1122, 'stimAuditory/all_stimAuditory/206.wav', 2245, 2670, 4000, 944, 904, 697, 1731, 2448, 760]	10	Present	NA	NA	PRESENT	0.754612922668457	483.1803891658783	485.1789920330048	485.9956668058565	486.3456677595108	605.9513189792633	120.77232694625854	[483.2006709575653, 483.31736993789673, 484.28016090393066, 484.45188093185425, 485.2194550037384, 485.31933093070984, 485.4360899925232, 485.55292987823486, 485.66988706588745, 485.7865719795227, 485.90345287323, 486.02022790908813, 486.13703298568726, 486.253781080246, 486.3707060813904, 486.4873640537262, 486.6040790081024, 486.72102308273315, 486.8376929759979, 486.9546420574188, 487.0717670917511, 487.296835899353]	[483.19296761140015, 483.3096342780602, 484.2926342780602, 484.45933427806017, 485.20933427806017, 485.3260009447202, 485.4426676113802, 485.55933427804024, 485.67600094470026, 485.7926676113603, 485.9093342780203, 486.02600094468033, 486.14266761134036, 486.2593342780004, 486.3760009446604, 486.4926676113204, 486.60933427798045, 486.7260009446405, 486.8426676113005, 486.9593342779605, 487.07600094462055, 487.3093342779539]	2020_Nov_26_1105	59.9822954936454	1	0.375
