participant	trial_num	practice	task	condition	RSVP	RAP	probePos	probe_presence	surprise_sound	surprise_img	probe_response	probe_resp_time	first_fixation_time	trial_start_time	surprise_start_time	probe_start_time	trial_end_time	trial_duration	actualEventTimes	plannedEventTimes	date	framerate	marker_vol	RAP_vol
4	1	FALSE	NV	v	['E', 'N', 'Y', 'U', 'A', 'R', 'J', 'P', 'C', 'V', 'W', 'S', 'G', 'X', 'K', 'B']	[904, 1335, 2670, 2059, 697, 1587, 1029, 1456, 829, 2245, 2448, 1731, 944, 4000, 1122, 760]	14	Present	NA	NA	PRESENT	0.3470170497894287	2.1457672119140625e-6	1.9905381202697752	3.2726011276245117	3.622286081314087	6.10387110710144	4.113332986831665	[0.0193939208984375, 0.11948895454406738, 1.1036570072174072, 1.2706151008605957, 2.021282911300659, 2.1380228996276855, 2.254913091659546, 2.371994972229004, 2.4887490272521973, 2.605457067489624, 2.7222959995269775, 2.838901996612549, 2.9558959007263184, 3.072504997253418, 3.189232110977173, 3.3060460090637207, 3.4229581356048584, 3.53971004486084, 3.6566309928894043, 3.7731919288635254, 3.8900809288024902, 4.103872060775757]	[1.9073486328125e-06, 0.11666857401529947, 1.0996685740152994, 1.2663685740152995, 2.0163685740152992, 2.133035240681966, 2.2497019073486326, 2.3663685740152993, 2.483035240681966, 2.5997019073486327, 2.7163685740152994, 2.833035240681966, 2.949701907348633, 3.0663685740152995, 3.183035240681966, 3.299701907348633, 3.4163685740152996, 3.5330352406819663, 3.649701907348633, 3.7663685740152997, 3.8830352406819664, 4.1163685740153]	2020_Nov_26_1128	59.849801299933645	1	1
4	2	FALSE	NA	v	['C', 'U', 'B', 'V', 'W', 'J', 'E', 'G', 'X', 'S', 'N', 'T', 'K', 'R', 'P', 'Z']	[829, 2059, 760, 2245, 2448, 1029, 904, 944, 4000, 1731, 1335, 1888, 1122, 1587, 1456, 2911]	9	Present	NA	NA	PRESENT	0.08039999008178711	6.106747150421143	8.103937149047852	8.80444622039795	9.15433120727539	12.220237970352173	4.116300821304321	[6.126137971878052, 6.225712060928345, 7.210137128829956, 7.3768861293792725, 8.144452095031738, 8.26210904121399, 8.378329992294312, 8.47807002067566, 8.61215090751648, 8.711587905883789, 8.828366994857788, 8.945208072662354, 9.061952114105225, 9.178776979446411, 9.295530080795288, 9.429603099822998, 9.52916693687439, 9.645868062973022, 9.762681007385254, 9.879451990127563, 9.996333122253418, 10.220237970352173]	[6.1163685740153, 6.233035240681966, 7.216035240681966, 7.382735240681965, 8.132735240681965, 8.249401907348632, 8.3660685740153, 8.482735240681967, 8.599401907348634, 8.716068574015301, 8.832735240681968, 8.949401907348635, 9.066068574015302, 9.18273524068197, 9.299401907348637, 9.416068574015304, 9.532735240681971, 9.649401907348638, 9.766068574015305, 9.882735240681972, 9.99940190734864, 10.232735240681972]	2020_Nov_26_1128	59.849801299933645	1	1
4	3	FALSE	NA	v	['Z', 'B', 'T', 'N', 'W', 'P', 'Y', 'E', 'A', 'X', 'R', 'C', 'K', 'U', 'V', 'M']	[2911, 760, 1888, 1335, 2448, 1456, 2670, 904, 697, 4000, 1587, 829, 1122, 2059, 2245, 1224]	10	Present	NA	NA	PRESENT	0.10081195831298828	12.212618112564089	14.220266103744509	15.037437200546265	15.387368202209473	18.336604118347168	4.116338014602661	[12.232008934020996, 12.348851919174194, 13.333368062973022, 13.500021934509277, 14.25089693069458, 14.367554903030396, 14.484333992004395, 14.601150035858154, 14.717927932739258, 14.834764957427979, 14.951471090316772, 15.068253993988037, 15.185231924057007, 15.301871061325073, 15.41861891746521, 15.535517930984497, 15.652267932891846, 15.769274950027466, 15.885942935943604, 16.00261402130127, 16.119367122650146, 16.336604118347168]	[12.232735240681972, 12.34940190734864, 13.33240190734864, 13.49910190734864, 14.24910190734864, 14.365768574015307, 14.482435240681975, 14.599101907348642, 14.715768574015309, 14.832435240681976, 14.949101907348643, 15.06576857401531, 15.182435240681977, 15.299101907348645, 15.415768574015312, 15.532435240681979, 15.649101907348646, 15.765768574015313, 15.88243524068198, 15.999101907348647, 16.115768574015313, 16.349101907348647]	2020_Nov_26_1128	59.849801299933645	1	1
4	4	FALSE	NN	v	['A', 'K', 'N', 'W', 'Y', 'B', 'V', 'E', 'H', 'P', 'J', 'R', 'G', 'M', 'S', 'U']	[697, 1122, 1335, 2448, 2670, 760, 2245, 904, 986, 1456, 1029, 1587, 944, 1224, 1731, 2059]	14	Absent	NA	NA	ABSENT	0.8340120315551758	18.335714101791385	20.33688807487488	21.62045621871948	21.970190048217773	24.4529709815979	4.1160829067230225	[18.355106115341187, 18.47187304496765, 19.456455945968628, 19.623537063598633, 20.37400197982788, 20.49066996574402, 20.607342958450317, 20.72418999671936, 20.840949058532715, 20.95773696899414, 21.074676036834717, 21.19132113456726, 21.30816912651062, 21.424942016601562, 21.54200005531311, 21.65845012664795, 21.775501012802124, 21.892159938812256, 22.008979082107544, 22.126118898391724, 22.2257981300354, 22.4529709815979]	[18.349101907348647, 18.465768574015314, 19.448768574015315, 19.615468574015313, 20.365468574015313, 20.48213524068198, 20.598801907348648, 20.715468574015315, 20.832135240681982, 20.94880190734865, 21.065468574015316, 21.182135240681983, 21.29880190734865, 21.415468574015318, 21.532135240681985, 21.648801907348652, 21.76546857401532, 21.882135240681986, 21.998801907348653, 22.11546857401532, 22.232135240681988, 22.465468574015322]	2020_Nov_26_1128	59.849801299933645	1	1
4	5	FALSE	NV	v	['P', 'K', 'M', 'H', 'V', 'G', 'W', 'R', 'B', 'U', 'T', 'S', 'X', 'N', 'A', 'Y']	[1456, 1122, 1224, 986, 2245, 944, 2448, 1587, 760, 2059, 1888, 1731, 4000, 1335, 697, 2670]	13	Present	NA	NA	PRESENT	0.4466068744659424	24.44208812713623	26.453011989593502	27.620156049728394	27.970224142074585	30.569338083267212	4.116326093673706	[24.461479902267456, 24.57825493812561, 25.562619924545288, 25.72935390472412, 26.48023509979248, 26.597109079360962, 26.71377205848694, 26.830538988113403, 26.94735312461853, 27.064207077026367, 27.18097496032715, 27.29781699180603, 27.41454005241394, 27.531402111053467, 27.64810800552368, 27.76498293876648, 27.88163709640503, 27.99857997894287, 28.11520791053772, 28.231969118118286, 28.348834991455078, 28.56933903694153]	[24.465468574015322, 24.58213524068199, 25.56513524068199, 25.73183524068199, 26.48183524068199, 26.598501907348655, 26.715168574015323, 26.83183524068199, 26.948501907348657, 27.065168574015324, 27.18183524068199, 27.29850190734866, 27.415168574015325, 27.531835240681993, 27.64850190734866, 27.765168574015327, 27.881835240681994, 27.99850190734866, 28.11516857401533, 28.231835240681995, 28.348501907348663, 28.581835240681997]	2020_Nov_26_1128	59.849801299933645	1	1
4	6	FALSE	AV	v	['J', 'W', 'P', 'M', 'C', 'Z', 'H', 'K', 'R', 'G', 'surprise', 'T', 'V', 'X', 'B', 'E']	[1029, 2448, 1456, 1224, 829, 2911, 986, 1122, 1587, 944, 'stimAuditory/all_stimAuditory/209.wav', 1888, 2245, 4000, 760, 904]	14	Present	stimAuditory/all_stimAuditory/209.wav	stimVisual/all_stimVisual/117.jpg	PRESENT	1.6030728816986084	30.565263986587524	32.56921315193176	33.85269904136658	34.20298504829407	36.68570399284363	4.116490840911865	[30.584655046463013, 30.701292991638184, 31.68595004081726, 31.852642059326172, 32.6032829284668, 32.720232009887695, 32.83691191673279, 32.95380210876465, 33.07046103477478, 33.18733811378479, 33.30398607254028, 33.420814037323, 33.53762102127075, 33.6543390750885, 33.77157402038574, 33.88801097869873, 34.00500297546387, 34.12172508239746, 34.23856210708618, 34.35508894920349, 34.47199296951294, 34.685704946517944]	[30.581835240681997, 30.698501907348664, 31.681501907348665, 31.848201907348663, 32.59820190734867, 32.714868574015334, 32.831535240682, 32.94820190734867, 33.064868574015335, 33.181535240682, 33.29820190734867, 33.41486857401534, 33.531535240682004, 33.64820190734867, 33.76486857401534, 33.881535240682005, 33.99820190734867, 34.11486857401534, 34.23153524068201, 34.348201907348674, 34.46486857401534, 34.698201907348675]	2020_Nov_26_1128	59.849801299933645	1	1
4	7	FALSE	NV	v	['A', 'T', 'P', 'K', 'G', 'Z', 'H', 'Y', 'S', 'R', 'V', 'C', 'E', 'X', 'N', 'J']	[697, 1888, 1456, 1122, 944, 2911, 986, 2670, 1731, 1587, 2245, 829, 904, 4000, 1335, 1029]	14	Present	NA	NA	PRESENT	0.16835498809814453	36.68840718269348	38.68543100357056	39.969173192977905	40.319207191467285	42.80207109451294	4.116640090942383	[36.70779895782471, 36.80765390396118, 37.79226994514465, 37.95907711982727, 38.7264940738678, 38.82640790939331, 38.943275928497314, 39.060054063797, 39.17689800262451, 39.293643951416016, 39.4104700088501, 39.527209997177124, 39.643983125686646, 39.76093792915344, 39.87755298614502, 39.99457597732544, 40.111151933670044, 40.22799897193909, 40.34473991394043, 40.461689949035645, 40.57847595214844, 40.80207109451294]	[36.698201907348675, 36.81486857401534, 37.79786857401534, 37.96456857401534, 38.71456857401534, 38.831235240682005, 38.94790190734867, 39.06456857401534, 39.18123524068201, 39.297901907348674, 39.41456857401534, 39.53123524068201, 39.647901907348675, 39.76456857401534, 39.88123524068201, 39.99790190734868, 40.114568574015344, 40.23123524068201, 40.34790190734868, 40.464568574015345, 40.58123524068201, 40.81456857401535]	2020_Nov_26_1128	59.849801299933645	1	1
4	8	FALSE	NV	v	['G', 'W', 'S', 'B', 'A', 'T', 'V', 'J', 'Z', 'X', 'K', 'E', 'M', 'U', 'R', 'C']	[944, 2448, 1731, 760, 697, 1888, 2245, 1029, 2911, 4000, 1122, 904, 1224, 2059, 1587, 829]	10	Present	NA	NA	NONE	-1	42.7947301864624	44.8020601272583	45.61868619918823	45.96866822242737	48.937196016311646	4.135135889053345	[42.81412100791931, 42.930954933166504, 43.915704011917114, 44.08195090293884, 44.8328640460968, 44.949695110321045, 45.06633710861206, 45.183286905288696, 45.30006194114685, 45.416712045669556, 45.5336639881134, 45.65031599998474, 45.76722502708435, 45.88404297828674, 46.00088095664978, 46.11764097213745, 46.23444104194641, 46.35122990608215, 46.46803593635559, 46.58468508720398, 46.70170593261719, 46.918437004089355]	[42.81456857401535, 42.931235240682014, 43.91423524068201, 44.08093524068201, 44.83093524068201, 44.94760190734868, 45.064268574015344, 45.18093524068201, 45.29760190734868, 45.414268574015345, 45.53093524068201, 45.64760190734868, 45.76426857401535, 45.880935240682014, 45.99760190734868, 46.11426857401535, 46.230935240682015, 46.34760190734868, 46.46426857401535, 46.58093524068202, 46.697601907348684, 46.93093524068202]	2020_Nov_26_1128	59.849801299933645	1	1
4	9	FALSE	VA	v	['G', 'S', 'H', 'T', 'M', 'N', 'surprise', 'Y', 'C', 'X', 'K', 'V', 'W', 'A', 'U', 'E']	[944, 1731, 986, 1888, 1224, 1335, 'stimAuditory/all_stimAuditory/121.wav', 2670, 829, 4000, 1122, 2245, 2448, 697, 2059, 904]	10	Present	NA	stimVisual/all_stimVisual/213.jpg	PRESENT	0.19405102729797363	48.93440318107605	50.91807198524475	51.73528218269348	52.08506798744202	55.03480410575867	4.116732120513916	[48.953794956207275, 49.054080963134766, 50.03844404220581, 50.20525002479553, 50.95592403411865, 51.072710037231445, 51.18963313102722, 51.306241035461426, 51.42313098907471, 51.54002094268799, 51.65678906440735, 51.77335500717163, 51.89019989967346, 52.00703001022339, 52.123915910720825, 52.24073791503906, 52.357540130615234, 52.474117040634155, 52.591059923172, 52.70795512199402, 52.8078670501709, 53.03480291366577]	[48.93093524068202, 49.047601907348685, 50.03060190734868, 50.19730190734868, 50.94730190734868, 51.06396857401535, 51.180635240682015, 51.29730190734868, 51.41396857401535, 51.53063524068202, 51.647301907348684, 51.76396857401535, 51.88063524068202, 51.997301907348685, 52.11396857401535, 52.23063524068202, 52.34730190734869, 52.463968574015354, 52.58063524068202, 52.69730190734869, 52.813968574015355, 53.04730190734869]	2020_Nov_26_1128	59.849801299933645	1	1
4	10	FALSE	NA	v	['T', 'U', 'W', 'H', 'Y', 'Z', 'J', 'B', 'E', 'R', 'A', 'K', 'M', 'X', 'C', 'N']	[1888, 2059, 2448, 986, 2670, 2911, 1029, 760, 904, 1587, 697, 1122, 1224, 4000, 829, 1335]	14	Present	NA	NA	ABSENT	1.0709781646728516	55.02405309677124	57.03428602218628	58.318207025527954	58.668089151382446	61.1511709690094	4.11688494682312	[55.043445110321045, 55.16047406196594, 56.14478611946106, 56.31172013282776, 57.0621600151062, 57.17915892601013, 57.29584312438965, 57.412822008132935, 57.52947998046875, 57.64637303352356, 57.762941122055054, 57.87997913360596, 57.99660396575928, 58.113332986831665, 58.230266094207764, 58.34698510169983, 58.463863134384155, 58.58063292503357, 58.69740009307861, 58.81421709060669, 58.93098306655884, 59.1511709690094]	[55.04730190734869, 55.16396857401536, 56.146968574015354, 56.31366857401535, 57.06366857401535, 57.18033524068202, 57.29700190734869, 57.413668574015354, 57.53033524068202, 57.64700190734869, 57.763668574015355, 57.88033524068202, 57.99700190734869, 58.11366857401536, 58.230335240682024, 58.34700190734869, 58.46366857401536, 58.580335240682025, 58.69700190734869, 58.81366857401536, 58.93033524068203, 59.16366857401536]	2020_Nov_26_1128	59.849801299933645	1	1
4	11	FALSE	NA	v	['G', 'B', 'E', 'N', 'H', 'W', 'T', 'X', 'K', 'M', 'C', 'S', 'A', 'R', 'J', 'U']	[944, 760, 904, 1335, 986, 2448, 1888, 4000, 1122, 1224, 829, 1731, 697, 1587, 1029, 2059]	8	Present	NA	NA	PRESENT	0.41149401664733887	61.14720606803894	63.1507580280304	63.73491215705872	64.084564208984375	67.26753807067871	4.116780042648315	[61.166598081588745, 61.283462047576904, 62.267833948135376, 62.434788942337036, 63.18576407432556, 63.302310943603516, 63.41894197463989, 63.5358989238739, 63.652652978897095, 63.76951599121094, 63.88622498512268, 64.00281691551208, 64.119784116745, 64.23656392097473, 64.35337710380554, 64.47006511688232, 64.58694195747375, 64.7036440372467, 64.82055902481079, 64.9373390674591, 65.05400204658508, 65.2675371170044]	[61.16366857401536, 61.28033524068203, 62.263335240682025, 62.430035240682024, 63.180035240682024, 63.29670190734869, 63.41336857401536, 63.530035240682025, 63.64670190734869, 63.76336857401536, 63.88003524068203, 63.996701907348694, 64.11336857401535, 64.23003524068201, 64.34670190734867, 64.46336857401533, 64.580035240682, 64.69670190734865, 64.81336857401531, 64.93003524068197, 65.04670190734863, 65.28003524068197]	2020_Nov_26_1128	59.849801299933645	1	1
4	12	FALSE	NV	v	['V', 'B', 'R', 'E', 'C', 'H', 'W', 'X', 'Y', 'G', 'A', 'K', 'M', 'Z', 'T', 'U']	[2245, 760, 1587, 904, 829, 986, 2448, 4000, 2670, 944, 697, 1122, 1224, 2911, 1888, 2059]	8	Present	NA	NA	PRESENT	0.3684689998626709	67.25354504585266	69.2671070098877	69.85099411010742	70.2008261680603	73.38390302658081	4.116796016693115	[67.27293705940247, 67.38964796066284, 68.37427711486816, 68.54086399078369, 69.30864095687866, 69.40841794013977, 69.52523612976074, 69.64203405380249, 69.75875306129456, 69.87555193901062, 69.9923779964447, 70.10911893844604, 70.22594904899597, 70.342777967453, 70.45967292785645, 70.5763669013977, 70.69305801391602, 70.81013107299805, 70.92668199539185, 71.04347491264343, 71.16055202484131, 71.38390302658081]	[67.28003524068197, 67.39670190734863, 68.37970190734863, 68.54640190734864, 69.29640190734864, 69.4130685740153, 69.52973524068196, 69.64640190734862, 69.76306857401528, 69.87973524068194, 69.9964019073486, 70.11306857401526, 70.22973524068192, 70.34640190734858, 70.46306857401524, 70.5797352406819, 70.69640190734856, 70.81306857401522, 70.92973524068188, 71.04640190734854, 71.1630685740152, 71.39640190734853]	2020_Nov_26_1128	59.849801299933645	1	1
4	13	FALSE	NN	v	['W', 'Z', 'A', 'V', 'U', 'P', 'Y', 'G', 'T', 'S', 'M', 'R', 'J', 'H', 'N', 'C']	[2448, 2911, 697, 2245, 2059, 1456, 2670, 944, 1888, 1731, 1224, 1587, 1029, 986, 1335, 829]	12	Absent	NA	NA	ABSENT	0.48515915870666504	73.37710404396057	75.38336610794067	76.43386816978455	76.7842001914978	79.50027108192444	4.116904973983765	[73.39649701118469, 73.51299595832825, 74.49724507331848, 74.66406393051147, 75.41476798057556, 75.5317850112915, 75.6484010219574, 75.76507902145386, 75.88205194473267, 76.04874801635742, 76.11571907997131, 76.2322130203247, 76.349200963974, 76.46602201461792, 76.5829119682312, 76.69944500923157, 76.81640791893005, 76.93299007415771, 77.04990911483765, 77.16658401489258, 77.28351902961731, 77.50027108192444]	[73.39640190734853, 73.5130685740152, 74.4960685740152, 74.6627685740152, 75.4127685740152, 75.52943524068186, 75.64610190734852, 75.76276857401518, 75.87943524068184, 75.9961019073485, 76.11276857401516, 76.22943524068182, 76.34610190734848, 76.46276857401514, 76.5794352406818, 76.69610190734846, 76.81276857401512, 76.92943524068178, 77.04610190734844, 77.1627685740151, 77.27943524068176, 77.5127685740151]	2020_Nov_26_1128	59.849801299933645	1	1
4	14	FALSE	NN	v	['R', 'G', 'J', 'N', 'C', 'M', 'P', 'U', 'W', 'H', 'Y', 'A', 'E', 'T', 'V', 'Z']	[1587, 944, 1029, 1335, 829, 1224, 1456, 2059, 2448, 986, 2670, 697, 904, 1888, 2245, 2911]	10	Absent	NA	NA	ABSENT	0.8343660831451416	79.4997181892395	81.49986219406128	82.3171751499176	82.6669020652771	85.61663699150085	4.116774797439575	[79.51910901069641, 79.6359920501709, 80.62034511566162, 80.78720211982727, 81.53797698020935, 81.6546459197998, 81.77151989936829, 81.88824009895325, 82.00499510765076, 82.1218490600586, 82.23886895179749, 82.35528111457825, 82.47219204902649, 82.58906197547913, 82.70575404167175, 82.82261610031128, 82.9394600391388, 83.0564079284668, 83.17312908172607, 83.28978705406189, 83.38985991477966, 83.61663794517517]	[79.5127685740151, 79.62943524068176, 80.61243524068176, 80.77913524068177, 81.52913524068177, 81.64580190734843, 81.76246857401509, 81.87913524068175, 81.99580190734841, 82.11246857401507, 82.22913524068173, 82.34580190734839, 82.46246857401505, 82.57913524068171, 82.69580190734837, 82.81246857401503, 82.92913524068169, 83.04580190734835, 83.16246857401501, 83.27913524068167, 83.39580190734833, 83.62913524068166]	2020_Nov_26_1128	59.849801299933645	1	1
4	15	FALSE	NV	v	['M', 'K', 'P', 'T', 'N', 'S', 'J', 'B', 'X', 'C', 'Y', 'V', 'Z', 'G', 'R', 'H']	[1224, 1122, 1456, 1888, 1335, 1731, 1029, 760, 4000, 829, 2670, 2245, 2911, 944, 1587, 986]	9	Present	NA	NA	PRESENT	0.5669739246368408	85.6059730052948	87.61651611328125	88.31673121452332	88.66661810874939	91.73300409317017	4.116487979888916	[85.6253650188446, 85.74248695373535, 86.72673010826111, 86.89338302612305, 87.64412808418274, 87.76091003417969, 87.87781405448914, 87.99476099014282, 88.11150908470154, 88.22836399078369, 88.34503102302551, 88.46163010597229, 88.57861495018005, 88.6954140663147, 88.81215190887451, 88.92885208129883, 89.04588890075684, 89.16247296333313, 89.2795250415802, 89.39589405059814, 89.51306295394897, 89.73300409317017]	[85.62913524068166, 85.74580190734832, 86.72880190734833, 86.89550190734833, 87.64550190734833, 87.76216857401499, 87.87883524068165, 87.99550190734831, 88.11216857401497, 88.22883524068163, 88.3455019073483, 88.46216857401495, 88.57883524068161, 88.69550190734827, 88.81216857401493, 88.9288352406816, 89.04550190734825, 89.16216857401491, 89.27883524068157, 89.39550190734823, 89.5121685740149, 89.74550190734823]	2020_Nov_26_1128	59.849801299933645	1	1
4	16	FALSE	NV	v	['R', 'B', 'Y', 'S', 'M', 'N', 'Z', 'V', 'C', 'W', 'P', 'G', 'T', 'X', 'K', 'J']	[1587, 760, 2670, 1731, 1224, 1335, 2911, 2245, 829, 2448, 1456, 944, 1888, 4000, 1122, 1029]	14	Present	NA	NA	ABSENT	1.3715369701385498	91.72910618782043	93.73260807991028	95.01650619506836	95.36630606651306	97.8493709564209	4.11676287651062	[91.74849796295166, 91.86535692214966, 92.8496150970459, 93.01688694953918, 93.76733708381653, 93.88412809371948, 94.00097513198853, 94.11774802207947, 94.23448491096497, 94.35125207901001, 94.46815490722656, 94.58485794067383, 94.70176291465759, 94.81852602958679, 94.9353461265564, 95.05197095870972, 95.16887712478638, 95.28565502166748, 95.40239405632019, 95.51921010017395, 95.63595509529114, 95.84937000274658]	[91.74550190734823, 91.86216857401489, 92.84516857401489, 93.0118685740149, 93.7618685740149, 93.87853524068156, 93.99520190734822, 94.11186857401488, 94.22853524068154, 94.3452019073482, 94.46186857401486, 94.57853524068152, 94.69520190734818, 94.81186857401484, 94.9285352406815, 95.04520190734816, 95.16186857401482, 95.27853524068148, 95.39520190734814, 95.5118685740148, 95.62853524068146, 95.86186857401479]	2020_Nov_26_1128	59.849801299933645	1	1
4	17	FALSE	NN	v	['M', 'K', 'B', 'Y', 'V', 'W', 'E', 'J', 'U', 'N', 'H', 'C', 'R', 'P', 'S', 'T']	[1224, 1122, 760, 2670, 2245, 2448, 904, 1029, 2059, 1335, 986, 829, 1587, 1456, 1731, 1888]	12	Absent	NA	NA	NONE	-1	97.83541917800903	99.84902501106262	100.8996992111206	101.2496440410614	103.97829794883728	4.129272937774658	[97.85480999946594, 97.97181510925293, 98.95620393753052, 99.1230080127716, 99.89041709899902, 99.99041295051575, 100.10719609260559, 100.2240309715271, 100.34079313278198, 100.45757412910461, 100.5744080543518, 100.69111490249634, 100.8079080581665, 100.92470002174377, 101.04153800010681, 101.15830707550049, 101.27523803710938, 101.39207911491394, 101.50887393951416, 101.62543392181396, 101.74252796173096, 101.9657371044159]	[97.86186857401479, 97.97853524068145, 98.96153524068146, 99.12823524068146, 99.87823524068146, 99.99490190734812, 100.11156857401478, 100.22823524068144, 100.3449019073481, 100.46156857401476, 100.57823524068142, 100.69490190734808, 100.81156857401474, 100.9282352406814, 101.04490190734806, 101.16156857401472, 101.27823524068138, 101.39490190734804, 101.5115685740147, 101.62823524068136, 101.74490190734802, 101.97823524068136]	2020_Nov_26_1128	59.849801299933645	1	1
4	18	FALSE	NV	v	['S', 'P', 'H', 'U', 'B', 'E', 'Z', 'J', 'W', 'M', 'N', 'Y', 'X', 'R', 'K', 'T']	[1731, 1456, 986, 2059, 760, 904, 2911, 1029, 2448, 1224, 1335, 2670, 4000, 1587, 1122, 1888]	13	Present	NA	NA	PRESENT	0.14157414436340332	103.97525119781494	105.96520805358888	107.13252520561218	107.48252201080322	110.08210396766664	4.116895914077759	[103.99464297294617, 104.09498000144958, 105.0790901184082, 105.24593997001648, 105.9967520236969, 106.11351013183594, 106.23034310340881, 106.34726810455322, 106.46404695510864, 106.58071804046631, 106.69752311706543, 106.81426692008972, 106.93120312690735, 107.04782605171204, 107.16475009918213, 107.28131413459778, 107.39835906028748, 107.51502704620361, 107.63189697265625, 107.74860191345215, 107.86541104316711, 108.08210396766663]	[103.97823524068136, 104.09490190734802, 105.07790190734802, 105.24460190734803, 105.99460190734803, 106.11126857401469, 106.22793524068135, 106.34460190734801, 106.46126857401467, 106.57793524068133, 106.69460190734799, 106.81126857401465, 106.92793524068131, 107.04460190734797, 107.16126857401463, 107.27793524068129, 107.39460190734795, 107.51126857401461, 107.62793524068127, 107.74460190734793, 107.86126857401459, 108.09460190734792]	2020_Nov_26_1128	59.849801299933645	1	1
4	19	FALSE	AA	v	['V', 'S', 'G', 'T', 'A', 'J', 'E', 'surprise', 'H', 'M', 'X', 'W', 'Y', 'R', 'N', 'Z']	[2245, 1731, 944, 1888, 697, 1029, 904, 'stimAuditory/all_stimAuditory/102.wav', 986, 1224, 4000, 2448, 2670, 1587, 1335, 2911]	11	Present	stimAuditory/all_stimAuditory/121.wav	stimVisual/all_stimVisual/103.jpg	PRESENT	0.362576961517334	110.08170819282532	112.08163619041444	113.01561212539671	113.3653440475464	116.19847011566162	4.116833925247192	[110.10109996795654, 110.21774196624756, 111.20234513282776, 111.3691201210022, 112.11988401412964, 112.23684692382812, 112.35341191291809, 112.47010111808777, 112.58714008331299, 112.70371890068054, 112.82068991661072, 112.93731808662415, 113.05427694320679, 113.17105293273926, 113.28784894943237, 113.4045979976654, 113.52143597602844, 113.63825798034668, 113.75480699539185, 113.87184190750122, 113.97217607498169, 114.19847011566162]	[110.09460190734792, 110.21126857401458, 111.19426857401459, 111.36096857401459, 112.11096857401459, 112.22763524068125, 112.34430190734791, 112.46096857401457, 112.57763524068123, 112.69430190734789, 112.81096857401455, 112.92763524068121, 113.04430190734787, 113.16096857401453, 113.27763524068119, 113.39430190734785, 113.51096857401451, 113.62763524068117, 113.74430190734783, 113.86096857401449, 113.97763524068115, 114.21096857401449]	2020_Nov_26_1128	59.849801299933645	1	1
4	20	FALSE	NA	v	['N', 'Y', 'R', 'K', 'W', 'G', 'S', 'V', 'A', 'M', 'B', 'X', 'U', 'Z', 'H', 'E']	[1335, 2670, 1587, 1122, 2448, 944, 1731, 2245, 697, 1224, 760, 4000, 2059, 2911, 986, 904]	12	Present	NA	NA	PRESENT	1.687079906463623	116.18802118301392	118.1982491016388	119.24852204322816	119.59871101379396	122.31483793258668	4.116588830947876	[116.20741295814514, 116.32432889938354, 117.30877709388733, 117.47539401054382, 118.22611403465271, 118.343092918396, 118.45979905128479, 118.5765860080719, 118.69344902038574, 118.81007194519043, 118.92695713043213, 119.04372596740723, 119.16054010391235, 119.27727198600769, 119.3939208984375, 119.51085710525513, 119.62781000137329, 119.74439311027527, 119.86139512062073, 119.97805190086365, 120.09497594833374, 120.31483912467957]	[116.21096857401449, 116.32763524068115, 117.31063524068115, 117.47733524068116, 118.22733524068116, 118.34400190734782, 118.46066857401448, 118.57733524068114, 118.6940019073478, 118.81066857401446, 118.92733524068112, 119.04400190734778, 119.16066857401444, 119.2773352406811, 119.39400190734776, 119.51066857401442, 119.62733524068108, 119.74400190734774, 119.8606685740144, 119.97733524068106, 120.09400190734772, 120.32733524068105]	2020_Nov_26_1128	59.849801299933645	1	1
4	21	FALSE	NV	v	['H', 'Z', 'A', 'Y', 'M', 'E', 'N', 'T', 'X', 'C', 'G', 'R', 'B', 'W', 'S', 'U']	[986, 2911, 697, 2670, 1224, 904, 1335, 1888, 4000, 829, 944, 1587, 760, 2448, 1731, 2059]	9	Present	NA	NA	PRESENT	0.11579513549804688	122.31125116348268	124.31452918052672	125.01481604576112	125.36501407623292	128.4312040805817	4.116674900054932	[122.33064198493958, 122.44736194610596, 123.43157196044922, 123.59865713119507, 124.34956908226013, 124.4660210609436, 124.58297300338745, 124.69986009597778, 124.8166151046753, 124.93337512016296, 125.05016613006592, 125.16679406166077, 125.28376698493958, 125.40039491653442, 125.51706790924072, 125.63420605659485, 125.7508020401001, 125.86765193939209, 125.98439598083496, 126.10123109817505, 126.21796011924744, 126.43120408058167]	[122.32733524068105, 122.44400190734771, 123.42700190734772, 123.59370190734772, 124.34370190734772, 124.46036857401438, 124.57703524068104, 124.6937019073477, 124.81036857401436, 124.92703524068102, 125.04370190734768, 125.16036857401434, 125.277035240681, 125.39370190734766, 125.51036857401432, 125.62703524068098, 125.74370190734764, 125.8603685740143, 125.97703524068096, 126.09370190734762, 126.21036857401428, 126.44370190734762]	2020_Nov_26_1128	59.849801299933645	1	1
4	22	FALSE	NA	v	['R', 'P', 'J', 'B', 'W', 'T', 'Z', 'E', 'X', 'N', 'A', 'S', 'H', 'G', 'C', 'V']	[1587, 1456, 1029, 760, 2448, 1888, 2911, 904, 4000, 1335, 697, 1731, 986, 944, 829, 2245]	9	Present	NA	NA	PRESENT	0.19315695762634277	128.4173321723938	130.4308581352234	131.13132405281067	131.48115515708923	134.5475709438324	4.116712808609009	[128.4367229938507, 128.55357694625854, 129.53789710998535, 129.70483708381653, 130.47226309776306, 130.57233309745789, 130.68912506103516, 130.8058979511261, 130.92271900177002, 131.03954195976257, 131.1563811302185, 131.27308797836304, 131.39004397392273, 131.50689792633057, 131.62359189987183, 131.74053502082825, 131.85726690292358, 131.9739089012146, 132.09083104133606, 132.20738911628723, 132.32435393333435, 132.54756999015808]	[128.44370190734762, 128.5603685740143, 129.5433685740143, 129.7100685740143, 130.4600685740143, 130.57673524068096, 130.69340190734763, 130.8100685740143, 130.92673524068098, 131.04340190734766, 131.16006857401433, 131.276735240681, 131.39340190734768, 131.51006857401435, 131.62673524068103, 131.7434019073477, 131.86006857401438, 131.97673524068105, 132.09340190734773, 132.2100685740144, 132.32673524068107, 132.5600685740144]	2020_Nov_26_1128	59.849801299933645	1	1
4	23	FALSE	NV	v	['R', 'Y', 'W', 'M', 'U', 'B', 'C', 'A', 'H', 'V', 'J', 'K', 'X', 'Z', 'T', 'G']	[1587, 2670, 2448, 1224, 2059, 760, 829, 697, 986, 2245, 1029, 1122, 4000, 2911, 1888, 944]	13	Present	NA	NA	PRESENT	0.821713924407959	134.5409460067749	136.54703521728516	137.71463012695312	138.06423115730286	140.6639380455017	4.116902828216553	[134.5603380203247, 134.67689394950867, 135.6612069606781, 135.82799911499023, 136.5787389278412, 136.6954629421234, 136.8124599456787, 136.92902612686157, 137.0459201335907, 137.16278791427612, 137.27946090698242, 137.3961820602417, 137.51309204101562, 137.63000106811523, 137.74661207199097, 137.8632619380951, 137.980318069458, 138.0970549583435, 138.2137849330902, 138.33072996139526, 138.44733095169067, 138.6639380455017]	[134.5600685740144, 134.67673524068107, 135.65973524068107, 135.82643524068106, 136.57643524068106, 136.69310190734774, 136.8097685740144, 136.9264352406811, 137.04310190734776, 137.15976857401444, 137.2764352406811, 137.39310190734778, 137.50976857401446, 137.62643524068113, 137.7431019073478, 137.85976857401448, 137.97643524068116, 138.09310190734783, 138.2097685740145, 138.32643524068118, 138.44310190734785, 138.67643524068117]	2020_Nov_26_1128	59.849801299933645	1	1
4	24	FALSE	NV	v	['K', 'U', 'C', 'P', 'W', 'S', 'N', 'R', 'Z', 'B', 'H', 'E', 'X', 'T', 'Y', 'J']	[1122, 2059, 829, 1456, 2448, 1731, 1335, 1587, 2911, 760, 986, 904, 4000, 1888, 2670, 1029]	13	Present	NA	NA	PRESENT	0.8268599510192871	140.66366505622864	142.6635570526123	143.83085918426514	144.18065905570984	146.78030395507812	4.11674690246582	[140.68305802345276, 140.7999939918518, 141.7843759059906, 141.95104694366455, 142.70179104804993, 142.81862092018127, 142.93541502952576, 143.05225801467896, 143.16907811164856, 143.2859230041504, 143.40248107910156, 143.51943612098694, 143.63608193397522, 143.75300908088684, 143.86976313591003, 143.9869019985199, 144.10328602790833, 144.22009897232056, 144.33678007125854, 144.45375204086304, 144.55382204055786, 144.7803030014038]	[140.67643524068117, 140.79310190734785, 141.77610190734785, 141.94280190734784, 142.69280190734784, 142.80946857401452, 142.9261352406812, 143.04280190734787, 143.15946857401454, 143.2761352406812, 143.3928019073479, 143.50946857401456, 143.62613524068124, 143.7428019073479, 143.85946857401458, 143.97613524068126, 144.09280190734793, 144.2094685740146, 144.32613524068128, 144.44280190734796, 144.55946857401463, 144.79280190734795]	2020_Nov_26_1128	59.849801299933645	1	1
4	25	FALSE	NA	v	['C', 'R', 'N', 'J', 'K', 'M', 'Y', 'T', 'X', 'P', 'V', 'E', 'S', 'W', 'U', 'B']	[829, 1587, 1335, 1029, 1122, 1224, 2670, 1888, 4000, 1456, 2245, 904, 1731, 2448, 2059, 760]	9	Present	NA	NA	ABSENT	1.5035068988800049	146.76997804641724	148.7800271511078	149.48053121566772	149.83050513267517	152.89667105674744	4.116643905639648	[146.78937101364136, 146.90610599517822, 147.89066100120544, 148.05745601654053, 148.8080439567566, 148.92484593391418, 149.04188704490662, 149.15846395492554, 149.2754340171814, 149.39193511009216, 149.5090720653534, 149.6256980895996, 149.742525100708, 149.85928201675415, 149.9761939048767, 150.09285402297974, 150.20971703529358, 150.32648992538452, 150.44321203231812, 150.55996894836426, 150.67697596549988, 150.89667010307312]	[146.79280190734795, 146.90946857401462, 147.89246857401463, 148.05916857401462, 148.80916857401462, 148.9258352406813, 149.04250190734797, 149.15916857401464, 149.27583524068132, 149.392501907348, 149.50916857401467, 149.62583524068134, 149.74250190734801, 149.8591685740147, 149.97583524068136, 150.09250190734804, 150.2091685740147, 150.32583524068139, 150.44250190734806, 150.55916857401473, 150.6758352406814, 150.90916857401473]	2020_Nov_26_1128	59.849801299933645	1	1
4	26	FALSE	NA	v	['P', 'V', 'G', 'S', 'E', 'M', 'N', 'X', 'B', 'Y', 'A', 'Z', 'J', 'W', 'K', 'H']	[1456, 2245, 944, 1731, 904, 1224, 1335, 4000, 760, 2670, 697, 2911, 1029, 2448, 1122, 986]	8	Present	NA	NA	ABSENT	1.6040921211242676	152.8931860923767	154.89626717567444	155.48001098632812	155.82995414733887	159.01303791999817	4.1167707443237305	[152.9125781059265, 153.0291509628296, 154.01393008232117, 154.18054604530334, 154.93130898475647, 155.04811906814575, 155.1648290157318, 155.28166007995605, 155.39828610420227, 155.51538610458374, 155.63208603858948, 155.74879503250122, 155.8655240535736, 155.98240113258362, 156.09920597076416, 156.21590209007263, 156.33262300491333, 156.44962000846863, 156.56637907028198, 156.68321204185486, 156.7998490333557, 157.01303791999817]	[152.90916857401473, 153.0258352406814, 154.0088352406814, 154.1755352406814, 154.9255352406814, 155.04220190734807, 155.15886857401475, 155.27553524068142, 155.3922019073481, 155.50886857401477, 155.62553524068144, 155.74220190734812, 155.8588685740148, 155.97553524068147, 156.09220190734814, 156.20886857401482, 156.3255352406815, 156.44220190734816, 156.55886857401484, 156.6755352406815, 156.7922019073482, 157.0255352406815]	2020_Nov_26_1128	59.849801299933645	1	1
4	27	FALSE	NN	v	['K', 'C', 'R', 'G', 'A', 'Y', 'U', 'J', 'W', 'S', 'B', 'E', 'P', 'Z', 'H', 'T']	[1122, 829, 1587, 944, 697, 2670, 2059, 1029, 2448, 1731, 760, 904, 1456, 2911, 986, 1888]	9	Absent	NA	NA	ABSENT	0.5292379856109619	159.01626110076904	161.01274299621582	161.7131052017212	162.06304621696472	165.12940311431885	4.116660118103027	[159.03565311431885, 159.1355369091034, 160.120187997818, 160.28685998916626, 161.0544309616089, 161.15439105033875, 161.27105402946472, 161.3879270553589, 161.50471806526184, 161.62173700332642, 161.73833203315735, 161.85514402389526, 161.97178101539612, 162.08867692947388, 162.2056429386139, 162.3223659992218, 162.43921494483948, 162.55581092834473, 162.67256498336792, 162.78941297531128, 162.90636610984802, 163.12940311431885]	[159.0255352406815, 159.14220190734818, 160.12520190734818, 160.29190190734818, 161.04190190734818, 161.15856857401485, 161.27523524068152, 161.3919019073482, 161.50856857401487, 161.62523524068155, 161.74190190734822, 161.8585685740149, 161.97523524068157, 162.09190190734824, 162.20856857401492, 162.3252352406816, 162.44190190734827, 162.55856857401494, 162.67523524068162, 162.7919019073483, 162.90856857401496, 163.14190190734828]	2020_Nov_26_1128	59.849801299933645	1	1
4	28	FALSE	NN	v	['W', 'E', 'H', 'A', 'G', 'T', 'B', 'S', 'V', 'C', 'P', 'K', 'M', 'Y', 'U', 'J']	[2448, 904, 986, 697, 944, 1888, 760, 1731, 2245, 829, 1456, 1122, 1224, 2670, 2059, 1029]	8	Absent	NA	NA	ABSENT	0.643347978591919	165.12284898757937	167.12939500808716	168.38771104812622	168.4319450855255	171.2457709312439	4.116375923156738	[165.14224100112915, 165.2588369846344, 166.24324202537537, 166.41008305549622, 167.16072607040405, 167.27737092971802, 167.3943691253662, 167.511146068573, 167.62798309326172, 168.41356992721558, 168.43044805526733, 168.4478371143341, 168.46371698379517, 168.48054790496826, 168.49733805656433, 168.5138509273529, 168.56389808654785, 168.6808750629425, 168.79756498336792, 168.91438102722168, 169.03130507469177, 169.2457709312439]	[165.14190190734828, 165.25856857401496, 166.24156857401496, 166.40826857401495, 167.15826857401495, 167.27493524068163, 167.3916019073483, 167.50826857401498, 167.62493524068165, 167.74160190734833, 167.858268574015, 167.97493524068167, 168.09160190734835, 168.20826857401502, 168.3249352406817, 168.44160190734837, 168.55826857401505, 168.67493524068172, 168.7916019073484, 168.90826857401507, 169.02493524068174, 169.25826857401506]	2020_Nov_26_1128	59.849801299933645	1	1
4	29	FALSE	NA	v	['K', 'U', 'E', 'N', 'S', 'H', 'V', 'W', 'M', 'Y', 'X', 'P', 'A', 'T', 'C', 'Z']	[1122, 2059, 904, 1335, 1731, 986, 2245, 2448, 1224, 2670, 4000, 1456, 697, 1888, 829, 2911]	11	Present	NA	NA	PRESENT	0.6807639598846436	171.24768018722534	173.24535608291626	174.1790850162506	174.52918004989624	177.3621380329132	4.116781949996948	[171.26707100868225, 171.38379502296448, 172.35125613212585, 172.5180881023407, 173.28566813468933, 173.40269494056702, 173.51917004585266, 173.6361699104309, 173.75287294387817, 173.86966609954834, 173.96956491470337, 174.08639693260193, 174.2032449245453, 174.3200809955597, 174.43688297271729, 174.55367493629456, 174.67042803764343, 174.7871971130371, 174.90407395362854, 175.02107906341553, 175.13777208328247, 175.3621380329132]	[171.25826857401506, 171.37493524068174, 172.35793524068174, 172.52463524068173, 173.27463524068173, 173.3913019073484, 173.50796857401508, 173.62463524068176, 173.74130190734843, 173.8579685740151, 173.97463524068178, 174.09130190734845, 174.20796857401513, 174.3246352406818, 174.44130190734847, 174.55796857401515, 174.67463524068182, 174.7913019073485, 174.90796857401517, 175.02463524068185, 175.14130190734852, 175.37463524068184]	2020_Nov_26_1128	59.849801299933645	1	1
4	30	FALSE	VV	v	['Y', 'U', 'Z', 'K', 'surprise', 'B', 'W', 'X', 'E', 'S', 'M', 'C', 'P', 'G', 'N', 'H']	[2670, 2059, 2911, 1122, 'stimAuditory/all_stimAuditory/223.wav', 760, 2448, 4000, 904, 1731, 1224, 829, 1456, 944, 1335, 986]	8	Present	NA	stimVisual/all_stimVisual/121.jpg	PRESENT	0.30133986473083496	177.35422015190125	179.3618361949921	179.94585704803467	180.29591608047485	183.4785039424896	4.116667747497559	[177.37361192703247, 177.49023699760437, 178.47453212738037, 178.64157509803772, 179.39228105545044, 179.50905990600586, 179.62575507164001, 179.7425889968872, 179.85927295684814, 179.97607111930847, 180.09288001060486, 180.20990896224976, 180.32666993141174, 180.44409203529358, 180.56006002426147, 180.67704606056213, 180.79387998580933, 180.91068196296692, 181.02732300758362, 181.14423394203186, 181.26093411445618, 181.47850394248962]	[177.37463524068184, 177.49130190734851, 178.47430190734852, 178.6410019073485, 179.3910019073485, 179.50766857401518, 179.62433524068186, 179.74100190734853, 179.8576685740152, 179.97433524068188, 180.09100190734856, 180.20766857401523, 180.3243352406819, 180.44100190734858, 180.55766857401525, 180.67433524068193, 180.7910019073486, 180.90766857401528, 181.02433524068195, 181.14100190734862, 181.2576685740153, 181.49100190734862]	2020_Nov_26_1128	59.849801299933645	1	1
4	31	FALSE	NA	v	['W', 'G', 'R', 'C', 'T', 'A', 'H', 'M', 'S', 'J', 'V', 'X', 'Y', 'Z', 'N', 'P']	[2448, 944, 1587, 829, 1888, 697, 986, 1224, 1731, 1029, 2245, 4000, 2670, 2911, 1335, 1456]	12	Present	NA	NA	PRESENT	0.3626978397369385	183.47737908363345	185.47802019119263	186.52868819236755	186.87864017486572	189.59487104415896	4.116850852966309	[183.49677205085754, 183.61366200447083, 184.59806394577026, 184.7647819519043, 185.51573204994202, 185.6323869228363, 185.7492160797119, 185.86593413352966, 185.982684135437, 186.09948301315308, 186.21621894836426, 186.3329041004181, 186.44987297058105, 186.56667590141296, 186.6833679676056, 186.80037212371826, 186.91705513000488, 187.0339801311493, 187.15073800086975, 187.26752305030823, 187.36756992340088, 187.59487199783325]	[183.49100190734862, 183.6076685740153, 184.5906685740153, 184.7573685740153, 185.5073685740153, 185.62403524068196, 185.74070190734864, 185.8573685740153, 185.97403524068199, 186.09070190734866, 186.20736857401533, 186.324035240682, 186.44070190734868, 186.55736857401536, 186.67403524068203, 186.7907019073487, 186.90736857401538, 187.02403524068205, 187.14070190734873, 187.2573685740154, 187.37403524068208, 187.6073685740154]	2020_Nov_26_1128	59.849801299933645	1	1
4	32	FALSE	NN	v	['Z', 'H', 'S', 'E', 'R', 'V', 'T', 'A', 'Y', 'U', 'C', 'B', 'P', 'N', 'G', 'W']	[2911, 986, 1731, 904, 1587, 2245, 1888, 697, 2670, 2059, 829, 760, 1456, 1335, 944, 2448]	13	Absent	NA	NA	ABSENT	0.5431780815124512	189.5839171409607	191.59458208084104	192.76211309432983	193.11165499687195	195.71123790740967	4.1166558265686035	[189.60331010818481, 189.72004294395447, 190.7043240070343, 190.8713150024414, 191.62193393707275, 191.73892903327942, 191.8556969165802, 191.97233390808105, 192.08928298950195, 192.20599603652954, 192.3228690624237, 192.43960404396057, 192.55641293525696, 192.6732211112976, 192.79008412361145, 192.90679001808167, 193.02372002601624, 193.1403980255127, 193.2572660446167, 193.37401509284973, 193.49063992500305, 193.71123695373535]	[189.6073685740154, 189.72403524068207, 190.70703524068207, 190.87373524068207, 191.62373524068207, 191.74040190734874, 191.85706857401541, 191.9737352406821, 192.09040190734876, 192.20706857401544, 192.3237352406821, 192.4404019073488, 192.55706857401546, 192.67373524068213, 192.7904019073488, 192.90706857401548, 193.02373524068216, 193.14040190734883, 193.2570685740155, 193.37373524068218, 193.49040190734885, 193.72373524068217]	2020_Nov_26_1128	59.849801299933645	1	1
4	33	FALSE	AN	v	['Z', 'J', 'Y', 'R', 'U', 'G', 'E', 'S', 'H', 'C', 'surprise', 'W', 'K', 'T', 'V', 'A']	[2911, 1029, 2670, 1587, 2059, 944, 904, 1731, 986, 829, 'stimAuditory/all_stimAuditory/116.wav', 2448, 1122, 1888, 2245, 697]	14	Absent	stimAuditory/all_stimAuditory/102.wav	stimVisual/all_stimVisual/107.jpg	PRESENT	0.32353806495666504	195.70748209953308	197.7109022140503	198.9946501255035	199.34466099739075	201.82760405540463	4.11670184135437	[195.72687292099, 195.8433871269226, 196.8277621269226, 196.9946300983429, 197.74536895751953, 197.86225008964539, 197.978905916214, 198.0957019329071, 198.21239399909973, 198.32935905456543, 198.4459249973297, 198.56287503242493, 198.67952394485474, 198.796462059021, 198.91306805610657, 199.03007912635803, 199.14684391021729, 199.2637059688568, 199.38032913208008, 199.49729299545288, 199.61404705047607, 199.82760405540466]	[195.72373524068217, 195.84040190734885, 196.82340190734885, 196.99010190734884, 197.74010190734884, 197.85676857401552, 197.9734352406822, 198.09010190734887, 198.20676857401554, 198.32343524068222, 198.4401019073489, 198.55676857401556, 198.67343524068224, 198.7901019073489, 198.9067685740156, 199.02343524068226, 199.14010190734894, 199.2567685740156, 199.37343524068228, 199.49010190734896, 199.60676857401563, 199.84010190734895]	2020_Nov_26_1128	59.849801299933645	1	1
4	34	FALSE	NA	v	['K', 'P', 'J', 'U', 'G', 'S', 'A', 'B', 'Y', 'W', 'X', 'M', 'E', 'V', 'N', 'Z']	[1122, 1456, 1029, 2059, 944, 1731, 697, 760, 2670, 2448, 4000, 1224, 904, 2245, 1335, 2911]	11	Present	NA	NA	PRESENT	0.3530879020690918	201.8303120136261	203.82717204093933	204.76095819473267	205.11095118522644	207.9439709186554	4.1167988777160645	[201.8497109413147, 201.94962906837463, 202.93409705162048, 203.10118699073792, 203.86852407455444, 203.96850299835205, 204.08532309532166, 204.2020709514618, 204.31881594657898, 204.43560099601746, 204.5524570941925, 204.66923689842224, 204.78605008125305, 204.90298891067505, 205.01984190940857, 205.13654208183289, 205.25323104858398, 205.37016701698303, 205.48680710792542, 205.60376000404358, 205.72061395645142, 205.94396996498108]	[201.84010190734895, 201.95676857401563, 202.93976857401563, 203.10646857401562, 203.85646857401562, 203.9731352406823, 204.08980190734897, 204.20646857401564, 204.32313524068232, 204.439801907349, 204.55646857401567, 204.67313524068234, 204.78980190734902, 204.9064685740157, 205.02313524068236, 205.13980190734904, 205.2564685740157, 205.3731352406824, 205.48980190734906, 205.60646857401574, 205.7231352406824, 205.95646857401573]	2020_Nov_26_1128	59.849801299933645	1	1
4	35	FALSE	NN	v	['R', 'T', 'N', 'V', 'K', 'Y', 'S', 'Z', 'E', 'M', 'C', 'U', 'J', 'B', 'P', 'H']	[1587, 1888, 1335, 2245, 1122, 2670, 1731, 2911, 904, 1224, 829, 2059, 1029, 760, 1456, 986]	10	Absent	NA	NA	ABSENT	0.24544906616210935	207.93687415122983	209.94379901885983	210.760715007782	211.11071920394895	214.0603380203247	4.116539001464844	[207.95626497268677, 208.07298493385315, 209.05741906166077, 209.22435212135315, 209.97494292259216, 210.09185695648193, 210.20876002311707, 210.32550692558289, 210.44269704818726, 210.55902004241943, 210.6759090423584, 210.7926540374756, 210.90931701660156, 211.02654504776, 211.14298605918884, 211.2599139213562, 211.37659096717834, 211.49370694160461, 211.6103150844574, 211.72708797454834, 211.84371089935303, 212.0603380203247]	[207.95646857401573, 208.0731352406824, 209.0561352406824, 209.2228352406824, 209.9728352406824, 210.08950190734907, 210.20616857401575, 210.32283524068242, 210.4395019073491, 210.55616857401577, 210.67283524068245, 210.78950190734912, 210.9061685740158, 211.02283524068247, 211.13950190734914, 211.25616857401582, 211.3728352406825, 211.48950190734917, 211.60616857401584, 211.7228352406825, 211.8395019073492, 212.0728352406825]	2020_Nov_26_1128	59.849801299933645	1	1
4	36	FALSE	NV	v	['W', 'V', 'H', 'K', 'T', 'S', 'E', 'J', 'Y', 'A', 'P', 'B', 'X', 'Z', 'U', 'C']	[2448, 2245, 986, 1122, 1888, 1731, 904, 1029, 2670, 697, 1456, 760, 4000, 2911, 2059, 829]	13	Present	NA	NA	PRESENT	0.2748830318450928	214.06022810935977	216.0599501132965	217.2273120880127	217.5770242214203	220.17670392990112	4.116753816604614	[214.07962012290955, 214.1962490081787, 215.18093991279602, 215.34738898277283, 216.09822010993958, 216.21514105796814, 216.33193492889404, 216.44875693321228, 216.5654559135437, 216.68239903450012, 216.79909992218018, 216.91583895683289, 217.0326759815216, 217.14950704574585, 217.2663221359253, 217.3831090927124, 217.49999690055847, 217.61666893959045, 217.73348093032837, 217.8500690460205, 217.95020198822021, 218.17670392990112]	[214.0728352406825, 214.18950190734918, 215.1725019073492, 215.33920190734918, 216.08920190734918, 216.20586857401585, 216.32253524068253, 216.4392019073492, 216.55586857401588, 216.67253524068255, 216.78920190734922, 216.9058685740159, 217.02253524068257, 217.13920190734925, 217.25586857401592, 217.3725352406826, 217.48920190734927, 217.60586857401594, 217.72253524068262, 217.8392019073493, 217.95586857401597, 218.1892019073493]	2020_Nov_26_1128	59.849801299933645	1	1
4	37	FALSE	NN	v	['V', 'E', 'R', 'U', 'J', 'Y', 'P', 'A', 'B', 'W', 'M', 'K', 'H', 'T', 'Z', 'C']	[2245, 904, 1587, 2059, 1029, 2670, 1456, 697, 760, 2448, 1224, 1122, 986, 1888, 2911, 829]	10	Absent	NA	NA	NONE	-1	220.1667721271515	222.17635917663577	222.99344420433044	223.3435981273651	226.3096649646759	4.133305788040161	[220.1861629486084, 220.30270099639893, 221.2870969772339, 221.4541630744934, 222.20484495162964, 222.32157492637634, 222.43854093551636, 222.55513191223145, 222.67211198806763, 222.7888560295105, 222.90563201904297, 223.0225169658661, 223.13913798332214, 223.25613594055176, 223.3727090358734, 223.48966193199158, 223.6062741279602, 223.723158121109, 223.83988094329834, 223.9567129611969, 224.07346105575562, 224.29307007789612]	[220.1892019073493, 220.30586857401596, 221.28886857401596, 221.45556857401596, 222.20556857401596, 222.32223524068263, 222.4389019073493, 222.55556857401598, 222.67223524068265, 222.78890190734933, 222.905568574016, 223.02223524068268, 223.13890190734935, 223.25556857401602, 223.3722352406827, 223.48890190734937, 223.60556857401605, 223.72223524068272, 223.8389019073494, 223.95556857401607, 224.07223524068274, 224.30556857401606]	2020_Nov_26_1128	59.849801299933645	1	1
4	38	FALSE	NV	v	['Y', 'A', 'J', 'U', 'W', 'G', 'Z', 'S', 'X', 'B', 'E', 'M', 'T', 'P', 'C', 'V']	[2670, 697, 1029, 2059, 2448, 944, 2911, 1731, 4000, 760, 904, 1224, 1888, 1456, 829, 2245]	9	Present	NA	NA	PRESENT	0.15605807304382324	226.30647802352905	228.2925910949707	228.993310213089	229.34310007095337	232.40943813323975	4.116847038269043	[226.32586908340454, 226.4260609149933, 227.41055512428284, 227.5772581100464, 228.32806301116943, 228.44497394561768, 228.5623049736023, 228.67852902412415, 228.79524993896484, 228.9122519493103, 229.02874207496643, 229.14563512802124, 229.2623541355133, 229.37927412986755, 229.4959499835968, 229.61271405220032, 229.7295789718628, 229.8465130329132, 229.96322298049927, 230.0799400806427, 230.19689011573792, 230.40943813323975]	[226.30556857401606, 226.42223524068274, 227.40523524068274, 227.57193524068273, 228.32193524068273, 228.4386019073494, 228.55526857401608, 228.67193524068276, 228.78860190734943, 228.9052685740161, 229.02193524068278, 229.13860190734945, 229.25526857401613, 229.3719352406828, 229.48860190734948, 229.60526857401615, 229.72193524068282, 229.8386019073495, 229.95526857401617, 230.07193524068285, 230.18860190734952, 230.42193524068284]	2020_Nov_26_1128	59.849801299933645	1	1
4	39	FALSE	AA	v	['V', 'Z', 'N', 'R', 'C', 'W', 'M', 'G', 'P', 'surprise', 'A', 'B', 'X', 'Y', 'J', 'S']	[2245, 2911, 1335, 1587, 829, 2448, 1224, 944, 1456, 'stimAuditory/all_stimAuditory/122.wav', 697, 760, 4000, 2670, 1029, 1731]	13	Present	stimAuditory/all_stimAuditory/223.wav	stimVisual/all_stimVisual/202.jpg	ABSENT	1.7532110214233398	232.39632415771484	234.40926313400269	235.57632112503052	235.9264621734619	238.52580404281616	4.116540908813477	[232.41571497917175, 232.53252291679382, 233.51697611808777, 233.68398809432983, 234.4513430595398, 234.55130100250244, 234.66807794570923, 234.78498196601868, 234.90170907974243, 235.01859402656555, 235.1352059841156, 235.25225496292114, 235.3688280582428, 235.50257992744446, 235.60261297225952, 235.71938610076904, 235.83600091934204, 235.95342898368835, 236.06964302062988, 236.18661904335022, 236.30341696739197, 236.52580404281616]	[232.42193524068284, 232.53860190734952, 233.52160190734952, 233.6883019073495, 234.4383019073495, 234.5549685740162, 234.67163524068286, 234.78830190734953, 234.9049685740162, 235.02163524068288, 235.13830190734956, 235.25496857401623, 235.3716352406829, 235.48830190734958, 235.60496857401625, 235.72163524068293, 235.8383019073496, 235.95496857401628, 236.07163524068295, 236.18830190734963, 236.3049685740163, 236.53830190734962]	2020_Nov_26_1128	59.849801299933645	1	1
4	40	FALSE	NA	v	['A', 'W', 'G', 'U', 'M', 'Y', 'K', 'E', 'J', 'B', 'X', 'S', 'H', 'V', 'R', 'N']	[697, 2448, 944, 2059, 1224, 2670, 1122, 904, 1029, 760, 4000, 1731, 986, 2245, 1587, 1335]	11	Present	NA	NA	NONE	-1	238.51964902877808	240.5257170200348	241.45919704437256	241.8092131614685	244.66232109069824	4.136604070663452	[238.53904104232788, 238.6558539867401, 239.6403341293335, 239.8071219921112, 240.5577130317688, 240.67464113235474, 240.79144597053528, 240.90828609466553, 241.0249900817871, 241.14189505577087, 241.25860691070557, 241.3753480911255, 241.49234104156494, 241.609139919281, 241.72585701942444, 241.84253001213074, 241.95957398414612, 242.07608008384705, 242.19309997558594, 242.3098111152649, 242.42668199539185, 242.6421709060669]	[238.53830190734962, 238.6549685740163, 239.6379685740163, 239.8046685740163, 240.5546685740163, 240.67133524068296, 240.78800190734964, 240.9046685740163, 241.021335240683, 241.13800190734966, 241.25466857401634, 241.371335240683, 241.48800190734968, 241.60466857401636, 241.72133524068303, 241.8380019073497, 241.95466857401638, 242.07133524068306, 242.18800190734973, 242.3046685740164, 242.42133524068308, 242.6546685740164]	2020_Nov_26_1128	59.849801299933645	1	1
4	41	FALSE	NN	v	['H', 'U', 'R', 'P', 'A', 'G', 'S', 'C', 'B', 'Z', 'Y', 'N', 'T', 'J', 'V', 'W']	[986, 2059, 1587, 1456, 697, 944, 1731, 829, 760, 2911, 2670, 1335, 1888, 1029, 2245, 2448]	13	Absent	NA	NA	ABSENT	0.5552561283111572	244.65949511528015	246.6418070793152	247.808886051178	248.15884709358215	250.7585380077362	4.1167309284210205	[244.67888712882996, 244.7791850566864, 245.76362109184265, 245.9135091304779, 246.68143391609192, 246.79772210121155, 246.91471791267395, 247.0314929485321, 247.14835000038147, 247.26523900032043, 247.38185596466064, 247.49863409996033, 247.61564302444458, 247.73213410377502, 247.84912991523743, 247.9658739566803, 248.0825629234314, 248.18266797065735, 248.29939889907837, 248.41624093055725, 248.53315496444702, 248.7585380077362]	[244.6546685740164, 244.77133524068307, 245.75433524068308, 245.92103524068307, 246.67103524068307, 246.78770190734974, 246.90436857401642, 247.0210352406831, 247.13770190734976, 247.25436857401644, 247.3710352406831, 247.4877019073498, 247.60436857401646, 247.72103524068314, 247.8377019073498, 247.95436857401648, 248.07103524068316, 248.18770190734983, 248.3043685740165, 248.42103524068318, 248.53770190734986, 248.77103524068318]	2020_Nov_26_1128	59.849801299933645	1	1
4	42	FALSE	VN	v	['V', 'W', 'P', 'H', 'surprise', 'U', 'K', 'M', 'C', 'J', 'G', 'E', 'S', 'A', 'Y', 'B']	[2245, 2448, 1456, 986, 'stimAuditory/all_stimAuditory/208.wav', 2059, 1122, 1224, 829, 1029, 944, 904, 1731, 697, 2670, 760]	8	Absent	NA	stimVisual/all_stimVisual/106.jpg	PRESENT	0.22377300262451172	250.749507188797	252.7582061290741	253.34204006195068	253.69200921058655	256.8749039173126	4.116697788238525	[250.76889896392822, 250.88546705245972, 251.8700840473175, 252.03687810897827, 252.78762006759644, 252.90448713302612, 253.02137804031372, 253.1380090713501, 253.27158498764038, 253.3716869354248, 253.4884569644928, 253.60527205467224, 253.72193002700806, 253.8389229774475, 253.95553398132324, 254.07247495651245, 254.18913912773132, 254.30603790283203, 254.42283391952515, 254.53943800926208, 254.65646409988403, 254.8749029636383]	[250.77103524068318, 250.88770190734985, 251.87070190734985, 252.03740190734985, 252.78740190734985, 252.90406857401652, 253.0207352406832, 253.13740190734987, 253.25406857401654, 253.37073524068322, 253.4874019073499, 253.60406857401657, 253.72073524068324, 253.8374019073499, 253.9540685740166, 254.07073524068326, 254.18740190734994, 254.3040685740166, 254.42073524068329, 254.53740190734996, 254.65406857401663, 254.88740190734995]	2020_Nov_26_1128	59.849801299933645	1	1
4	43	FALSE	NV	v	['S', 'B', 'H', 'P', 'G', 'W', 'N', 'C', 'M', 'X', 'Y', 'E', 'V', 'J', 'R', 'T']	[1731, 760, 986, 1456, 944, 2448, 1335, 829, 1224, 4000, 2670, 904, 2245, 1029, 1587, 1888]	10	Present	NA	NA	PRESENT	0.357072114944458	256.87289118766785	258.874409198761	259.691771030426	260.041748046875	262.99127101898193	4.116861820220947	[256.8922839164734, 257.00900411605835, 257.99326610565186, 258.1599991321564, 258.91071701049805, 259.02769708633423, 259.1445949077606, 259.26143312454224, 259.37801790237427, 259.4949429035187, 259.61174607276917, 259.7285580635071, 259.8452229499817, 259.9618399143219, 260.0789499282837, 260.19566106796265, 260.31251406669617, 260.4293279647827, 260.54603099823, 260.6627519130707, 260.76284408569336, 260.99127197265625]	[256.88740190734995, 257.0040685740166, 257.98706857401663, 258.1537685740166, 258.9037685740166, 259.0204352406833, 259.13710190735, 259.25376857401665, 259.3704352406833, 259.48710190735, 259.60376857401667, 259.72043524068334, 259.83710190735, 259.9537685740167, 260.07043524068337, 260.18710190735004, 260.3037685740167, 260.4204352406834, 260.53710190735006, 260.65376857401674, 260.7704352406834, 261.00376857401676]	2020_Nov_26_1128	59.849801299933645	1	1
4	44	FALSE	NV	v	['G', 'K', 'A', 'B', 'Y', 'N', 'H', 'T', 'C', 'S', 'V', 'E', 'R', 'X', 'Z', 'J']	[944, 1122, 697, 760, 2670, 1335, 986, 1888, 829, 1731, 2245, 904, 1587, 4000, 2911, 1029]	14	Present	NA	NA	PRESENT	0.5055990219116211	262.97921919822693	264.9910111427307	266.2748110294342	266.62497210502625	269.10763812065125	4.116626977920532	[262.99861097335815, 263.1152400970459, 264.0997519493103, 264.26675510406494, 265.03429198265076, 265.13415694236755, 265.2511160373688, 265.36777997016907, 265.48468112945557, 265.60137701034546, 265.7180790901184, 265.8350200653076, 265.95210003852844, 266.06871509552, 266.18526005744934, 266.30226707458496, 266.4188919067383, 266.535835981369, 266.652498960495, 266.76943612098694, 266.8860569000244, 267.10763907432556]	[263.00376857401676, 263.12043524068343, 264.10343524068344, 264.27013524068343, 265.02013524068343, 265.1368019073501, 265.2534685740168, 265.37013524068345, 265.4868019073501, 265.6034685740168, 265.7201352406835, 265.83680190735015, 265.9534685740168, 266.0701352406835, 266.1868019073502, 266.30346857401685, 266.4201352406835, 266.5368019073502, 266.65346857401687, 266.77013524068354, 266.8868019073502, 267.12013524068357]	2020_Nov_26_1128	59.849801299933645	1	1
4	45	FALSE	NN	v	['J', 'M', 'G', 'R', 'S', 'K', 'A', 'E', 'Z', 'W', 'C', 'H', 'U', 'P', 'V', 'B']	[1029, 1224, 944, 1587, 1731, 1122, 697, 904, 2911, 2448, 829, 986, 2059, 1456, 2245, 760]	11	Absent	NA	NA	ABSENT	0.7100720405578613	269.1022791862488	271.1071650981903	272.0411801338196	272.39100098609924	275.22400403022766	4.1168389320373535	[269.12167096138, 269.2386269569397, 270.2230820655823, 270.38983511924744, 271.140585899353, 271.2575979232788, 271.3743591308594, 271.49114203453064, 271.6078360080719, 271.72466802597046, 271.84137892723083, 271.9581160545349, 272.07503604888916, 272.19189190864563, 272.3085210323334, 272.42542004585266, 272.54230093955994, 272.65912199020386, 272.7758250236511, 272.89246797561646, 273.009437084198, 273.22400403022766]	[269.12013524068357, 269.23680190735024, 270.21980190735025, 270.38650190735024, 271.13650190735024, 271.2531685740169, 271.3698352406836, 271.48650190735026, 271.60316857401693, 271.7198352406836, 271.8365019073503, 271.95316857401696, 272.06983524068363, 272.1865019073503, 272.303168574017, 272.41983524068365, 272.5365019073503, 272.653168574017, 272.7698352406837, 272.88650190735035, 273.003168574017, 273.2365019073504]	2020_Nov_26_1128	59.849801299933645	1	1
4	46	FALSE	NV	v	['P', 'H', 'U', 'N', 'J', 'R', 'V', 'X', 'A', 'B', 'T', 'S', 'M', 'W', 'C', 'E']	[1456, 986, 2059, 1335, 1029, 1587, 2245, 4000, 697, 760, 1888, 1731, 1224, 2448, 829, 904]	8	Present	NA	NA	ABSENT	0.79547119140625	275.2258632183075	277.22389006614685	277.8079390525818	278.15739703178406	281.340371131897	4.116481065750122	[275.2452540397644, 275.36181592941284, 276.3298261165619, 276.4963629245758, 277.26387906074524, 277.38078808784485, 277.4974699020386, 277.61441802978516, 277.7310600280762, 277.8478729724884, 277.96476006507874, 278.0647020339966, 278.1814980506897, 278.29824709892273, 278.41502594947815, 278.53178000450134, 278.6486270427704, 278.76540303230286, 278.88211011886597, 278.9989769458771, 279.11593198776245, 279.340371131897]	[275.2365019073504, 275.35316857401705, 276.33616857401705, 276.50286857401704, 277.25286857401704, 277.3695352406837, 277.4862019073504, 277.60286857401707, 277.71953524068374, 277.8362019073504, 277.9528685740171, 278.06953524068376, 278.18620190735044, 278.3028685740171, 278.4195352406838, 278.53620190735046, 278.65286857401713, 278.7695352406838, 278.8862019073505, 279.00286857401716, 279.11953524068383, 279.3528685740172]	2020_Nov_26_1128	59.849801299933645	1	1
4	47	FALSE	NN	v	['P', 'Z', 'V', 'G', 'U', 'H', 'C', 'T', 'S', 'N', 'J', 'B', 'K', 'E', 'R', 'A']	[1456, 2911, 2245, 944, 2059, 986, 829, 1888, 1731, 1335, 1029, 760, 1122, 904, 1587, 697]	12	Absent	NA	NA	ABSENT	1.4239728450775146	281.3323872089386	283.3399682044983	284.3905510902405	284.74050998687744	287.4567379951477	4.116769790649414	[281.3517780303955, 281.4683721065521, 282.45287013053894, 282.61968207359314, 283.37038707733154, 283.48734307289124, 283.6039581298828, 283.72102403640747, 283.8374900817871, 283.9544630050659, 284.0712890625, 284.18811893463135, 284.3047020435333, 284.42165899276733, 284.5383620262146, 284.65539598464966, 284.77207493782043, 284.8889169692993, 285.00565099716187, 285.12249207496643, 285.23921298980713, 285.456738948822]	[281.3528685740172, 281.46953524068385, 282.45253524068386, 282.61923524068385, 283.36923524068385, 283.4859019073505, 283.6025685740172, 283.7192352406839, 283.83590190735055, 283.9525685740172, 284.0692352406839, 284.18590190735057, 284.30256857401724, 284.4192352406839, 284.5359019073506, 284.65256857401727, 284.76923524068394, 284.8859019073506, 285.0025685740173, 285.11923524068396, 285.23590190735064, 285.469235240684]	2020_Nov_26_1128	59.849801299933645	1	1
4	48	FALSE	AV	v	['J', 'W', 'Z', 'Y', 'P', 'surprise', 'G', 'N', 'X', 'M', 'A', 'C', 'T', 'U', 'S', 'H']	[1029, 2448, 2911, 2670, 1456, 'stimAuditory/all_stimAuditory/118.wav', 944, 1335, 4000, 1224, 697, 829, 1888, 2059, 1731, 986]	9	Present	stimAuditory/all_stimAuditory/116.wav	stimVisual/all_stimVisual/122.jpg	PRESENT	0.23734593391418457	287.4555962085724	289.45636200904846	290.1569402217865	290.5068850517273	293.5731039047241	4.116741895675659	[287.4749879837036, 287.59176206588745, 288.5761389732361, 288.74289202690125, 289.49357295036316, 289.61054611206055, 289.7273049354553, 289.8439950942993, 289.9609811306, 290.0776119232178, 290.19451093673706, 290.3113970756531, 290.42808294296265, 290.5447840690613, 290.6618010997772, 290.77849292755127, 290.8952989578247, 291.0120840072632, 291.1288990974426, 291.245512008667, 291.3454899787903, 291.5731029510498]	[287.469235240684, 287.58590190735066, 288.56890190735066, 288.73560190735066, 289.48560190735066, 289.60226857401733, 289.718935240684, 289.8356019073507, 289.95226857401735, 290.068935240684, 290.1856019073507, 290.3022685740174, 290.41893524068405, 290.5356019073507, 290.6522685740174, 290.7689352406841, 290.88560190735075, 291.0022685740174, 291.1189352406841, 291.23560190735077, 291.35226857401744, 291.5856019073508]	2020_Nov_26_1128	59.849801299933645	1	1
4	49	FALSE	NA	v	['W', 'R', 'B', 'U', 'E', 'V', 'Y', 'X', 'C', 'T', 'N', 'S', 'Z', 'K', 'M', 'J']	[2448, 1587, 760, 2059, 904, 2245, 2670, 4000, 829, 1888, 1335, 1731, 2911, 1122, 1224, 1029]	8	Present	NA	NA	ABSENT	0.6097049713134766	293.56203413009644	295.5730721950531	296.1564681529999	296.50675201416016	299.68947100639343	4.116398811340332	[293.58142495155334, 293.6981780529022, 294.68275213241577, 294.8493890762329, 295.6000499725342, 295.71705198287964, 295.8336730003357, 295.95103096961975, 296.06732392311096, 296.184210062027, 296.30094599723816, 296.41793394088745, 296.53479409217834, 296.6515419483185, 296.768089056015, 296.8851170539856, 297.0016989707947, 297.11851501464844, 297.2352669239044, 297.352117061615, 297.46896600723267, 297.68947100639343]	[293.5856019073508, 293.70226857401747, 294.68526857401747, 294.85196857401746, 295.60196857401746, 295.71863524068414, 295.8353019073508, 295.9519685740175, 296.06863524068416, 296.18530190735083, 296.3019685740175, 296.4186352406842, 296.53530190735086, 296.65196857401753, 296.7686352406842, 296.8853019073509, 297.00196857401755, 297.1186352406842, 297.2353019073509, 297.3519685740176, 297.46863524068425, 297.7019685740176]	2020_Nov_26_1128	59.849801299933645	1	1
4	50	FALSE	NN	v	['J', 'U', 'W', 'K', 'M', 'R', 'S', 'H', 'B', 'P', 'E', 'Z', 'Y', 'N', 'V', 'T']	[1029, 2059, 2448, 1122, 1224, 1587, 1731, 986, 760, 1456, 904, 2911, 2670, 1335, 2245, 1888]	10	Absent	NA	NA	ABSENT	0.7105228900909424	299.6853470802307	301.68906807899475	302.506236076355	302.85623002052307	305.80583810806274	4.116770029067993	[299.7047390937805, 299.8214910030365, 300.8058431148529, 300.9728219509125, 301.7234139442444, 301.8403871059418, 301.95698404312134, 302.0739850997925, 302.1906991004944, 302.30727910995483, 302.42439794540405, 302.5411550998688, 302.6579189300537, 302.7746961116791, 302.8915410041809, 303.00806307792664, 303.12513303756714, 303.2418260574341, 303.3587820529938, 303.47541093826294, 303.592169046402, 303.80583691596985]	[299.7019685740176, 299.8186352406843, 300.8016352406843, 300.96833524068427, 301.71833524068427, 301.83500190735094, 301.9516685740176, 302.0683352406843, 302.18500190735097, 302.30166857401764, 302.4183352406843, 302.535001907351, 302.65166857401766, 302.76833524068434, 302.885001907351, 303.0016685740177, 303.11833524068436, 303.23500190735103, 303.3516685740177, 303.4683352406844, 303.58500190735106, 303.8183352406844]	2020_Nov_26_1128	59.849801299933645	1	1
4	51	FALSE	NV	v	['M', 'Y', 'U', 'R', 'N', 'W', 'T', 'X', 'C', 'H', 'V', 'J', 'Z', 'G', 'B', 'A']	[1224, 2670, 2059, 1587, 1335, 2448, 1888, 4000, 829, 986, 2245, 1029, 2911, 944, 760, 697]	8	Present	NA	NA	PRESENT	0.2916300296783447	305.7916910648346	307.8054389953613	308.3892331123352	308.73920702934265	311.92220306396484	4.116764068603516	[305.8110821247101, 305.9278531074524, 306.9128429889679, 307.0793340206146, 307.8466911315918, 307.94671297073364, 308.0634961128235, 308.18031191825867, 308.29713010787964, 308.413871049881, 308.5306921005249, 308.64741611480713, 308.7642660140991, 308.88104605674744, 308.9978859424591, 309.1146249771118, 309.2314760684967, 309.348228931427, 309.4650490283966, 309.5819821357727, 309.69866490364075, 309.92220306396484]	[305.8183352406844, 305.9350019073511, 306.9180019073511, 307.0847019073511, 307.8347019073511, 307.95136857401775, 308.0680352406844, 308.1847019073511, 308.3013685740178, 308.41803524068445, 308.5347019073511, 308.6513685740178, 308.76803524068447, 308.88470190735114, 309.0013685740178, 309.1180352406845, 309.23470190735117, 309.35136857401784, 309.4680352406845, 309.5847019073512, 309.70136857401786, 309.9347019073512]	2020_Nov_26_1128	59.849801299933645	1	1
4	52	FALSE	AA	v	['J', 'G', 'T', 'B', 'S', 'Y', 'Z', 'N', 'surprise', 'V', 'H', 'X', 'P', 'M', 'C', 'K']	[1029, 944, 1888, 760, 1731, 2670, 2911, 1335, 'stimAuditory/all_stimAuditory/219.wav', 2245, 986, 4000, 1456, 1224, 829, 1122]	12	Present	stimAuditory/all_stimAuditory/122.wav	stimVisual/all_stimVisual/104.jpg	PRESENT	0.19166088104248047	311.9151680469513	313.9221360683441	314.97232699394226	315.32221007347107	318.0385711193085	4.1164350509643555	[311.9345600605011, 312.0511510372162, 313.0356960296631, 313.2024290561676, 313.95325899124146, 314.07011699676514, 314.1868441104889, 314.3037919998169, 314.4204320907593, 314.53738713264465, 314.65416193008423, 314.7708990573883, 314.8877019882202, 315.004497051239, 315.12125611305237, 315.23813104629517, 315.35485005378723, 315.4714469909668, 315.5884449481964, 315.70507192611694, 315.8218810558319, 316.0385699272156]	[311.9347019073512, 312.0513685740179, 313.0343685740179, 313.2010685740179, 313.9510685740179, 314.06773524068456, 314.18440190735123, 314.3010685740179, 314.4177352406846, 314.53440190735125, 314.6510685740179, 314.7677352406846, 314.8844019073513, 315.00106857401795, 315.1177352406846, 315.2344019073513, 315.351068574018, 315.46773524068465, 315.5844019073513, 315.701068574018, 315.81773524068467, 316.051068574018]	2020_Nov_26_1128	59.849801299933645	1	1
4	53	FALSE	NV	v	['S', 'J', 'C', 'N', 'Y', 'B', 'P', 'R', 'M', 'V', 'X', 'G', 'W', 'K', 'U', 'T']	[1731, 1029, 829, 1335, 2670, 760, 1456, 1587, 1224, 2245, 4000, 944, 2448, 1122, 2059, 1888]	11	Present	NA	NA	NONE	-1	318.0383701324463	320.0382881164551	320.9722101688385	321.32189416885376	324.16436195373535	4.126073837280273	[318.0577619075775, 318.1744239330292, 319.1589779853821, 319.325767993927, 320.0764789581299, 320.1933569908142, 320.31020498275757, 320.42697310447693, 320.54387497901917, 320.66040301322937, 320.77732610702515, 320.8938910961151, 321.01101899147034, 321.1275429725647, 321.24430799484253, 321.3613269329071, 321.478178024292, 321.59487104415894, 321.71173906326294, 321.8285701274872, 321.92837500572205, 322.1549379825592]	[318.051068574018, 318.1677352406847, 319.1507352406847, 319.3174352406847, 320.0674352406847, 320.18410190735136, 320.30076857401804, 320.4174352406847, 320.5341019073514, 320.65076857401806, 320.76743524068473, 320.8841019073514, 321.0007685740181, 321.11743524068476, 321.23410190735143, 321.3507685740181, 321.4674352406848, 321.58410190735145, 321.7007685740181, 321.8174352406848, 321.9341019073515, 322.1674352406848]	2020_Nov_26_1128	59.849801299933645	1	1
4	54	FALSE	NA	v	['H', 'P', 'T', 'S', 'G', 'N', 'B', 'U', 'Z', 'A', 'V', 'X', 'M', 'K', 'Y', 'E']	[986, 1456, 1888, 1731, 944, 1335, 760, 2059, 2911, 697, 2245, 4000, 1224, 1122, 2670, 904]	12	Present	NA	NA	NONE	-1	324.1614751815796	326.15452814102173	327.2052330970764	327.55498814582825	330.287339925766	4.132811784744263	[324.1808669567108, 324.28096890449524, 325.2655110359192, 325.4323809146881, 326.1832129955292, 326.29996490478516, 326.4165210723877, 326.53357100486755, 326.65018796920776, 326.7671251296997, 326.8838150501251, 327.0005280971527, 327.1173470020294, 327.23421907424927, 327.3511040210724, 327.46779799461365, 327.5845980644226, 327.7014389038086, 327.8182010650635, 327.9348440170288, 328.05178904533386, 328.2713041305542]	[324.1674352406848, 324.2841019073515, 325.2671019073515, 325.4338019073515, 326.1838019073515, 326.30046857401817, 326.41713524068484, 326.5338019073515, 326.6504685740182, 326.76713524068487, 326.88380190735154, 327.0004685740182, 327.1171352406849, 327.23380190735156, 327.35046857401824, 327.4671352406849, 327.5838019073516, 327.70046857401826, 327.81713524068493, 327.9338019073516, 328.0504685740183, 328.28380190735163]	2020_Nov_26_1128	59.849801299933645	1	1
4	55	FALSE	NA	v	['K', 'P', 'R', 'S', 'N', 'M', 'B', 'E', 'U', 'Y', 'C', 'H', 'X', 'Z', 'J', 'T']	[1122, 1456, 1587, 1731, 1335, 1224, 760, 904, 2059, 2670, 829, 986, 4000, 2911, 1029, 1888]	13	Present	NA	NA	PRESENT	0.4226250648498535	330.28460216522217	332.2707710266113	333.4382631778717	333.788348197937	336.38767099380493	4.1168999671936035	[330.3039939403534, 330.404403924942, 331.3887948989868, 331.55546402931213, 332.306272983551, 332.4231390953064, 332.5399739742279, 332.6565730571747, 332.7734899520874, 332.8903589248657, 333.0072240829468, 333.12393593788147, 333.24068999290466, 333.3573679924011, 333.4742329120636, 333.5911400318146, 333.7078790664673, 333.8245499134064, 333.941477060318, 334.05805110931396, 334.1750249862671, 334.3876700401306]	[330.28380190735163, 330.4004685740183, 331.3834685740183, 331.5501685740183, 332.3001685740183, 332.416835240685, 332.53350190735165, 332.6501685740183, 332.766835240685, 332.8835019073517, 333.00016857401835, 333.116835240685, 333.2335019073517, 333.35016857401837, 333.46683524068504, 333.5835019073517, 333.7001685740184, 333.81683524068507, 333.93350190735174, 334.0501685740184, 334.1668352406851, 334.40016857401844]	2020_Nov_26_1128	59.849801299933645	1	1
4	56	FALSE	VA	v	['W', 'A', 'S', 'P', 'V', 'surprise', 'J', 'N', 'X', 'K', 'E', 'U', 'T', 'H', 'B', 'M']	[2448, 697, 1731, 1456, 2245, 'stimAuditory/all_stimAuditory/216.wav', 1029, 1335, 4000, 1122, 904, 2059, 1888, 986, 760, 1224]	9	Present	NA	stimVisual/all_stimVisual/219.jpg	PRESENT	0.2759079933166504	336.37476420402527	338.3875961303711	339.0877001285553	339.43774914741516	342.50403809547424	4.116441965103149	[336.3941569328308, 336.5106899738312, 337.4952609539032, 337.6618869304657, 338.4295120239258, 338.5294530391693, 338.646301984787, 338.76306891441345, 338.8798611164093, 339.01346802711487, 339.11344599723816, 339.2304599285126, 339.3470809459686, 339.4640519618988, 339.580894947052, 339.6976330280304, 339.8143219947815, 339.93124890327454, 340.0478699207306, 340.1646249294281, 340.28149795532227, 340.50403904914856]	[336.40016857401844, 336.5168352406851, 337.4998352406851, 337.6665352406851, 338.4165352406851, 338.5332019073518, 338.64986857401846, 338.76653524068513, 338.8832019073518, 338.9998685740185, 339.11653524068515, 339.2332019073518, 339.3498685740185, 339.4665352406852, 339.58320190735185, 339.6998685740185, 339.8165352406852, 339.9332019073519, 340.04986857401855, 340.1665352406852, 340.2832019073519, 340.51653524068524]	2020_Nov_26_1128	59.849801299933645	1	1
4	57	FALSE	NN	v	['R', 'P', 'G', 'J', 'N', 'Y', 'M', 'W', 'H', 'V', 'T', 'U', 'B', 'C', 'S', 'A']	[1587, 1456, 944, 1029, 1335, 2670, 1224, 2448, 986, 2245, 1888, 2059, 760, 829, 1731, 697]	8	Absent	NA	NA	ABSENT	0.59236907958984375	342.4977660179138	344.50365114212036	345.08739018440247	345.43743109703064	348.62040400505066	4.116752862930298	[342.5171580314636, 342.6341609954834, 343.6185350418091, 343.78520011901855, 344.53605699539185, 344.6527729034424, 344.7696180343628, 344.8865671157837, 345.003191947937, 345.1201000213623, 345.2369210720062, 345.3536379337311, 345.4704039096832, 345.5873689651489, 345.70405101776123, 345.8206670284271, 345.93759393692017, 346.0545859336853, 346.1711549758911, 346.28780007362366, 346.40475606918335, 346.620404958725]	[342.51653524068524, 342.6332019073519, 343.6162019073519, 343.7829019073519, 344.5329019073519, 344.6495685740186, 344.76623524068526, 344.88290190735194, 344.9995685740186, 345.1162352406853, 345.23290190735196, 345.34956857401863, 345.4662352406853, 345.582901907352, 345.69956857401866, 345.81623524068533, 345.932901907352, 346.0495685740187, 346.16623524068535, 346.282901907352, 346.3995685740187, 346.63290190735205]	2020_Nov_26_1128	59.849801299933645	1	1
4	58	FALSE	NN	v	['Y', 'B', 'N', 'T', 'M', 'J', 'E', 'C', 'Z', 'W', 'G', 'V', 'P', 'S', 'H', 'K']	[2670, 760, 1335, 1888, 1224, 1029, 904, 829, 2911, 2448, 944, 2245, 1456, 1731, 986, 1122]	8	Absent	NA	NA	ABSENT	0.5016911029815674	348.62122321128845	350.6202931404114	351.2041552066803	351.5537700653076	354.73677110671997	4.116477966308594	[348.640615940094, 348.75712490081787, 349.7248229980469, 349.89168095588684, 350.6592080593109, 350.7761709690094, 350.89307498931885, 351.009712934494, 351.1265389919281, 351.2431471347809, 351.36017990112305, 351.47694993019104, 351.5935320854187, 351.71033692359924, 351.82710099220276, 351.94404697418213, 352.0609679222107, 352.16075110435486, 352.2942509651184, 352.39427399635315, 352.5112130641937, 352.7367699146271]	[348.63290190735205, 348.7495685740187, 349.7325685740187, 349.8992685740187, 350.6492685740187, 350.7659352406854, 350.88260190735207, 350.99926857401874, 351.1159352406854, 351.2326019073521, 351.34926857401877, 351.46593524068544, 351.5826019073521, 351.6992685740188, 351.81593524068546, 351.93260190735214, 352.0492685740188, 352.1659352406855, 352.28260190735216, 352.39926857401883, 352.5159352406855, 352.74926857401886]	2020_Nov_26_1128	59.849801299933645	1	1
4	59	FALSE	NN	v	['N', 'H', 'M', 'E', 'W', 'J', 'Z', 'G', 'T', 'K', 'A', 'C', 'B', 'Y', 'R', 'S']	[1335, 986, 1224, 904, 2448, 1029, 2911, 944, 1888, 1122, 697, 829, 760, 2670, 1587, 1731]	11	Absent	NA	NA	ABSENT	0.13005614280700684	354.7277240753174	356.73650002479553	357.6701591014862	358.0202040672302	360.8531379699707	4.116637945175171	[354.7471160888672, 354.86377811431885, 355.84833812713623, 356.0152499675751, 356.76568508148193, 356.8827679157257, 356.9994070529938, 357.116338968277, 357.23295497894287, 357.3498809337616, 357.46656107902527, 357.5834639072418, 357.7002680301666, 357.8171091079712, 357.93374395370483, 358.05074405670166, 358.1674339771271, 358.28439712524414, 358.401006937027, 358.51761507987976, 358.63450598716736, 358.8531379699707]	[354.74926857401886, 354.86593524068553, 355.84893524068553, 356.0156352406855, 356.7656352406855, 356.8823019073522, 356.9989685740189, 357.11563524068555, 357.2323019073522, 357.3489685740189, 357.4656352406856, 357.58230190735225, 357.6989685740189, 357.8156352406856, 357.93230190735227, 358.04896857401894, 358.1656352406856, 358.2823019073523, 358.39896857401897, 358.51563524068564, 358.6323019073523, 358.86563524068566]	2020_Nov_26_1128	59.849801299933645	1	1
4	60	FALSE	AN	v	['C', 'Y', 'B', 'K', 'Z', 'M', 'N', 'S', 'T', 'surprise', 'U', 'E', 'V', 'W', 'G', 'R']	[829, 2670, 760, 1122, 2911, 1224, 1335, 1731, 1888, 'stimAuditory/all_stimAuditory/114.wav', 2059, 904, 2245, 2448, 944, 1587]	13	Absent	stimAuditory/all_stimAuditory/208.wav	stimVisual/all_stimVisual/221.jpg	ABSENT	0.40789294242858887	360.8507630825043	362.8528180122375	364.02112007141113	364.369793176651	366.9695029258728	4.116684913635254	[360.8701560497284, 360.9870970249176, 361.9715619087219, 362.1383550167084, 362.88907194137573, 363.00587701797485, 363.1227750778198, 363.2393550872803, 363.3564341068268, 363.4731299877167, 363.5900180339813, 363.70676612854004, 363.8234689235687, 363.9402279853821, 364.0571479797363, 364.17381596565247, 364.2907021045685, 364.40747809410095, 364.5240650177002, 364.64105892181396, 364.7409830093384, 364.96950507164]	[360.86563524068566, 360.98230190735234, 361.96530190735234, 362.13200190735233, 362.88200190735233, 362.998668574019, 363.1153352406857, 363.23200190735236, 363.34866857401903, 363.4653352406857, 363.5820019073524, 363.69866857401905, 363.8153352406857, 363.9320019073524, 364.0486685740191, 364.16533524068575, 364.2820019073524, 364.3986685740191, 364.5153352406858, 364.63200190735245, 364.7486685740191, 364.98200190735247]	2020_Nov_26_1128	59.849801299933645	1	1
4	61	FALSE	NV	v	['B', 'J', 'T', 'S', 'W', 'N', 'V', 'X', 'E', 'C', 'P', 'H', 'A', 'Z', 'G', 'M']	[760, 1029, 1888, 1731, 2448, 1335, 2245, 4000, 904, 829, 1456, 986, 697, 2911, 944, 1224]	8	Present	NA	NA	PRESENT	0.17200303077697754	366.95772099494934	368.9692680835724	369.55286622047424	369.90292716026306	373.0858700275421	4.116601943969727	[366.97711300849915, 367.0936391353607, 368.0780460834503, 368.2447609901428, 369.01230001449585, 369.1125349998474, 369.22911310195923, 369.34612011909485, 369.46267199516296, 369.57946705818176, 369.69638991355896, 369.8132019042969, 369.92995500564575, 370.0468330383301, 370.16351199150085, 370.2804870605469, 370.39717507362366, 370.5140371322632, 370.63072395324707, 370.7473421096802, 370.8644120693207, 371.0858700275421]	[366.98200190735247, 367.09866857401914, 368.08166857401915, 368.24836857401914, 368.99836857401914, 369.1150352406858, 369.2317019073525, 369.34836857401916, 369.46503524068584, 369.5817019073525, 369.6983685740192, 369.81503524068586, 369.93170190735253, 370.0483685740192, 370.1650352406859, 370.28170190735256, 370.39836857401923, 370.5150352406859, 370.6317019073526, 370.74836857401925, 370.8650352406859, 371.0983685740193]	2020_Nov_26_1128	59.849801299933645	1	1
4	62	FALSE	NA	v	['Y', 'P', 'Z', 'J', 'T', 'S', 'A', 'K', 'N', 'V', 'H', 'R', 'W', 'X', 'M', 'U']	[2670, 1456, 2911, 1029, 1888, 1731, 697, 1122, 1335, 2245, 986, 1587, 2448, 4000, 1224, 2059]	14	Present	NA	NA	PRESENT	0.600693941116333	373.080815076828	375.0857322216034	376.3693850040436	376.7196171283722	379.20223808288574	4.116505861282349	[373.1002058982849, 373.21694898605347, 374.201297044754, 374.36801290512085, 375.1187319755554, 375.23578691482544, 375.35243797302246, 375.469083070755, 375.58609795570374, 375.702791929245, 375.8196289539337, 375.9363749027252, 376.0532441139221, 376.1700050830841, 376.2869040966034, 376.4035930633545, 376.5204939842224, 376.63707208633423, 376.75410890579224, 376.87062096595764, 376.9878270626068, 377.20223593711853]	[373.0983685740193, 373.21503524068595, 374.19803524068595, 374.36473524068595, 375.11473524068595, 375.2314019073526, 375.3480685740193, 375.46473524068597, 375.58140190735264, 375.6980685740193, 375.814735240686, 375.93140190735267, 376.04806857401934, 376.164735240686, 376.2814019073527, 376.39806857401936, 376.51473524068604, 376.6314019073527, 376.7480685740194, 376.86473524068606, 376.98140190735273, 377.2147352406861]	2020_Nov_26_1128	59.849801299933645	1	1
4	63	FALSE	NV	v	['A', 'B', 'M', 'U', 'H', 'J', 'G', 'X', 'V', 'R', 'C', 'K', 'Y', 'Z', 'T', 'S']	[697, 760, 1224, 2059, 986, 1029, 944, 4000, 2245, 1587, 829, 1122, 2670, 2911, 1888, 1731]	8	Present	NA	NA	ABSENT	0.5020627975463867	379.20388412475586	381.2018210887909	381.78567719459534	382.1357572078705	385.31860303878784	4.116781949996948	[379.22327494621277, 379.3399429321289, 380.30770111083984, 380.4745669364929, 381.24238204956055, 381.3588590621948, 381.4755549430847, 381.5923569202423, 381.70934200286865, 381.8262770175934, 381.92605900764465, 382.0596179962158, 382.1595630645752, 382.27642607688904, 382.3932890892029, 382.51000595092773, 382.62681102752686, 382.7435579299927, 382.86025309562683, 382.97715401649475, 383.0941119194031, 383.31860399246216]	[379.2147352406861, 379.33140190735276, 380.31440190735276, 380.48110190735275, 381.23110190735275, 381.3477685740194, 381.4644352406861, 381.5811019073528, 381.69776857401945, 381.8144352406861, 381.9311019073528, 382.04776857401947, 382.16443524068615, 382.2811019073528, 382.3977685740195, 382.51443524068617, 382.63110190735284, 382.7477685740195, 382.8644352406862, 382.98110190735287, 383.09776857401954, 383.3311019073529]	2020_Nov_26_1128	59.849801299933645	1	1
4	64	FALSE	VV	v	['S', 'H', 'M', 'G', 'A', 'C', 'surprise', 'J', 'U', 'X', 'K', 'B', 'Y', 'E', 'V', 'T']	[1731, 986, 1224, 944, 697, 829, 'stimAuditory/all_stimAuditory/220.wav', 1029, 2059, 4000, 1122, 760, 2670, 904, 2245, 1888]	10	Present	NA	stimVisual/all_stimVisual/200.jpg	PRESENT	0.4663848876953125	385.31047916412354	387.318510055542	388.1352860927582	388.4857361316681	391.4349710941314	4.1164610385894775	[385.32986998558044, 385.4465970993042, 386.43093490600586, 386.59777998924255, 387.3488681316376, 387.46545696258545, 387.58217310905457, 387.6991090774536, 387.81584000587463, 387.9326820373535, 388.0659930706024, 388.16600012779236, 388.2830970287323, 388.3998329639435, 388.51662492752075, 388.6333339214325, 388.75016713142395, 388.86687994003296, 388.983745098114, 389.1003761291504, 389.2173240184784, 389.43497109413147]	[385.3311019073529, 385.44776857401956, 386.43076857401957, 386.59746857401956, 387.34746857401956, 387.46413524068623, 387.5808019073529, 387.6974685740196, 387.81413524068626, 387.93080190735293, 388.0474685740196, 388.1641352406863, 388.28080190735295, 388.3974685740196, 388.5141352406863, 388.630801907353, 388.74746857401965, 388.8641352406863, 388.980801907353, 389.0974685740197, 389.21413524068635, 389.4474685740197]	2020_Nov_26_1128	59.849801299933645	1	1
4	65	FALSE	NV	v	['S', 'J', 'Z', 'E', 'P', 'Y', 'H', 'R', 'C', 'V', 'B', 'X', 'K', 'M', 'T', 'W']	[1731, 1029, 2911, 904, 1456, 2670, 986, 1587, 829, 2245, 760, 4000, 1122, 1224, 1888, 2448]	12	Present	NA	NA	ABSENT	1.327862024307251	391.43362402915955	393.43470001220703	394.4852101802826	394.83546209335327	397.5513379573822	4.116637945175171	[391.45301604270935, 391.57000494003296, 392.55424904823303, 392.721204996109, 393.47178506851196, 393.58897399902344, 393.7056109905243, 393.8222680091858, 393.93919491767883, 394.0559940338135, 394.1726839542389, 394.28959703445435, 394.4060969352722, 394.52294397354126, 394.63986897468567, 394.756875038147, 394.8733949661255, 394.99033403396606, 395.10681796073914, 395.22385597229004, 395.32381296157837, 395.5513370037079]	[391.4474685740197, 391.56413524068637, 392.5471352406864, 392.71383524068636, 393.46383524068636, 393.58050190735304, 393.6971685740197, 393.8138352406864, 393.93050190735306, 394.04716857401974, 394.1638352406864, 394.2805019073531, 394.39716857401976, 394.51383524068643, 394.6305019073531, 394.7471685740198, 394.86383524068646, 394.98050190735313, 395.0971685740198, 395.2138352406865, 395.33050190735315, 395.5638352406865]	2020_Nov_26_1128	59.849801299933645	1	1
4	66	FALSE	NN	v	['J', 'A', 'U', 'Z', 'N', 'E', 'T', 'W', 'M', 'P', 'H', 'S', 'B', 'R', 'C', 'K']	[1029, 697, 2059, 2911, 1335, 904, 1888, 2448, 1224, 1456, 986, 1731, 760, 1587, 829, 1122]	11	Absent	NA	NA	ABSENT	0.65224289894104	397.5403800010681	399.55100107192993	400.4850091934204	400.83476400375366	403.6677041053772	4.116703033447266	[397.5597710609436, 397.67632699012756, 398.6608519554138, 398.8276059627533, 399.57824897766113, 399.6952950954437, 399.8119730949402, 399.9288730621338, 400.0455570220947, 400.16229009628296, 400.27926301956177, 400.395898103714, 400.51276898384094, 400.6295199394226, 400.7462320327759, 400.8632791042328, 400.9799349308014, 401.09684896469116, 401.2134850025177, 401.3303310871124, 401.4471890926361, 401.6677029132843]	[397.5638352406865, 397.6805019073532, 398.6635019073532, 398.83020190735317, 399.58020190735317, 399.69686857401985, 399.8135352406865, 399.9302019073532, 400.04686857401987, 400.16353524068654, 400.2802019073532, 400.3968685740199, 400.51353524068656, 400.63020190735324, 400.7468685740199, 400.8635352406866, 400.98020190735326, 401.09686857401994, 401.2135352406866, 401.3302019073533, 401.44686857401996, 401.6802019073533]	2020_Nov_26_1128	59.849801299933645	1	1
4	67	FALSE	NA	v	['H', 'E', 'T', 'C', 'B', 'U', 'S', 'X', 'V', 'Y', 'A', 'K', 'W', 'G', 'Z', 'M']	[986, 904, 1888, 829, 760, 2059, 1731, 4000, 2245, 2670, 697, 1122, 2448, 944, 2911, 1224]	8	Present	NA	NA	PRESENT	0.5451490879058838	403.6633281707764	405.6675510406494	406.2509369850158	406.601154088974	409.78407096862793	4.116519927978516	[403.6827199459076, 403.79975509643555, 404.78399991989136, 404.95093512535095, 405.7016849517822, 405.8182439804077, 405.9351921081543, 406.05192399024963, 406.1688320636749, 406.2856960296631, 406.40249490737915, 406.5191259384155, 406.6360960006714, 406.75269508361816, 406.86971497535706, 406.9868040084839, 407.10307097435, 407.2199549674988, 407.3368399143219, 407.4535150527954, 407.57041096687317, 407.7840700149536]	[403.6802019073533, 403.79686857402, 404.77986857402, 404.94656857402, 405.69656857402, 405.81323524068665, 405.9299019073533, 406.04656857402, 406.1632352406867, 406.27990190735335, 406.39656857402, 406.5132352406867, 406.62990190735337, 406.74656857402005, 406.8632352406867, 406.9799019073534, 407.09656857402007, 407.21323524068674, 407.3299019073534, 407.4465685740201, 407.56323524068677, 407.7965685740201]	2020_Nov_26_1128	59.849801299933645	1	1
4	68	FALSE	NV	v	['T', 'M', 'V', 'H', 'Y', 'C', 'S', 'P', 'E', 'W', 'Z', 'N', 'X', 'K', 'G', 'B']	[1888, 1224, 2245, 986, 2670, 829, 1731, 1456, 904, 2448, 2911, 1335, 4000, 1122, 944, 760]	13	Present	NA	NA	PRESENT	0.27816295623779297	409.7698922157288	411.7836911678314	412.95112800598145	413.3008689880371	415.9004371166229	4.116745948791504	[409.78928303718567, 409.906044960022, 410.89075207710266, 411.05740213394165, 411.82494497299194, 411.92487502098083, 412.0417010784149, 412.15845108032227, 412.2752571105957, 412.392058134079, 412.5088300704956, 412.62565994262695, 412.74250411987305, 412.85924911499023, 412.97604393959045, 413.09283804893494, 413.2095251083374, 413.3263850212097, 413.4432170391083, 413.5601499080658, 413.6770179271698, 413.9004371166229]	[409.7965685740201, 409.9132352406868, 410.8962352406868, 411.0629352406868, 411.8129352406868, 411.92960190735346, 412.04626857402013, 412.1629352406868, 412.2796019073535, 412.39626857402016, 412.51293524068683, 412.6296019073535, 412.7462685740202, 412.86293524068685, 412.9796019073535, 413.0962685740202, 413.2129352406869, 413.32960190735355, 413.4462685740202, 413.5629352406869, 413.6796019073536, 413.9129352406869]	2020_Nov_26_1128	59.849801299933645	1	1
4	69	FALSE	NV	v	['A', 'H', 'J', 'M', 'E', 'V', 'K', 'G', 'R', 'W', 'X', 'C', 'Y', 'T', 'S', 'P']	[697, 986, 1029, 1224, 904, 2245, 1122, 944, 1587, 2448, 4000, 829, 2670, 1888, 1731, 1456]	11	Present	NA	NA	PRESENT	0.17085814476013184	415.89312410354614	417.9001581668854	418.8338479995727	419.18411803245544	422.01680397987366	4.116645812988281	[415.91251611709595, 416.02957105636597, 417.01414799690247, 417.1807949542999, 417.9313840866089, 418.04827404022217, 418.16506910324097, 418.28178000450134, 418.39859199523926, 418.51555013656616, 418.63231897354126, 418.7489011287689, 418.8659451007843, 418.9825220108032, 419.0995900630951, 419.216068983078, 419.3327901363373, 419.44968008995056, 419.56657695770264, 419.6833851337433, 419.80009293556213, 420.016804933548]	[415.9129352406869, 416.0296019073536, 417.0126019073536, 417.1793019073536, 417.9293019073536, 418.04596857402026, 418.16263524068694, 418.2793019073536, 418.3959685740203, 418.51263524068696, 418.62930190735364, 418.7459685740203, 418.862635240687, 418.97930190735366, 419.09596857402033, 419.212635240687, 419.3293019073537, 419.44596857402036, 419.56263524068703, 419.6793019073537, 419.7959685740204, 420.0293019073537]	2020_Nov_26_1128	59.849801299933645	1	1
4	70	FALSE	NN	v	['R', 'Y', 'E', 'V', 'B', 'S', 'T', 'H', 'N', 'K', 'Z', 'G', 'W', 'A', 'J', 'M']	[1587, 2670, 904, 2245, 760, 1731, 1888, 986, 1335, 1122, 2911, 944, 2448, 697, 1029, 1224]	12	Absent	NA	NA	ABSENT	0.5920629501342773	422.0164201259613	424.016398191452	425.06691217422485	425.4171230792999	428.13317108154297	4.116772890090942	[422.03581190109253, 422.15260004997253, 423.13702297210693, 423.30379605293274, 424.05473494529724, 424.17151713371277, 424.2884039878845, 424.4050841331482, 424.5219349861145, 424.6388740539551, 424.75554609298706, 424.87231397628784, 424.98906803131104, 425.10586500167847, 425.2228260040283, 425.33955907821655, 425.4561789035797, 425.5730059146881, 425.6896960735321, 425.80668902397156, 425.9067049026489, 426.13317108154297]	[422.0293019073537, 422.1459685740204, 423.1289685740204, 423.2956685740204, 424.0456685740204, 424.16233524068707, 424.27900190735375, 424.3956685740204, 424.5123352406871, 424.62900190735377, 424.74566857402044, 424.8623352406871, 424.9790019073538, 425.09566857402046, 425.21233524068714, 425.3290019073538, 425.4456685740205, 425.56233524068716, 425.67900190735384, 425.7956685740205, 425.9123352406872, 426.14566857402053]	2020_Nov_26_1128	59.849801299933645	1	1
4	71	FALSE	NA	v	['J', 'G', 'Y', 'C', 'M', 'K', 'B', 'A', 'W', 'U', 'E', 'X', 'T', 'N', 'P', 'H']	[1029, 944, 2670, 829, 1224, 1122, 760, 697, 2448, 2059, 904, 4000, 1888, 1335, 1456, 986]	12	Present	NA	NA	ABSENT	1.1645588874816897	428.1232841014862	430.132835149765	431.18335819244385	431.5332601070404	434.2495379447937	4.1167027950286865	[428.14267802238464, 428.25936913490295, 429.2436800003052, 429.41040992736816, 430.1611030101776, 430.2781710624695, 430.39485692977905, 430.51179003715515, 430.62840008735657, 430.74513602256775, 430.86203694343567, 430.9789309501648, 431.0957040786743, 431.21246004104614, 431.32925295829773, 431.44586992263794, 431.5628321170807, 431.67947006225586, 431.7963991165161, 431.9130630493164, 432.03003907203674, 432.2495369911194]	[428.14566857402053, 428.2623352406872, 429.2453352406872, 429.4120352406872, 430.1620352406872, 430.2787019073539, 430.39536857402055, 430.5120352406872, 430.6287019073539, 430.7453685740206, 430.86203524068725, 430.9787019073539, 431.0953685740206, 431.21203524068727, 431.32870190735395, 431.4453685740206, 431.5620352406873, 431.67870190735397, 431.79536857402064, 431.9120352406873, 432.028701907354, 432.26203524068734]	2020_Nov_26_1128	59.849801299933645	1	1
4	72	FALSE	NA	v	['H', 'N', 'Z', 'S', 'A', 'G', 'W', 'X', 'T', 'P', 'Y', 'U', 'E', 'R', 'C', 'K']	[986, 1335, 2911, 1731, 697, 944, 2448, 4000, 1888, 1456, 2670, 2059, 904, 1587, 829, 1122]	8	Present	NA	NA	ABSENT	0.32918882369995117	434.2462251186371	436.2492411136627	436.8330571651459	437.18335700035095	440.3659040927887	4.116662979125977	[434.2656180858612, 434.3822820186615, 435.3669481277466, 435.5337779521942, 436.2844269275665, 436.40123295783997, 436.51815009117126, 436.6347510814667, 436.751748085022, 436.86852502822876, 436.98537707328796, 437.10197591781616, 437.21899700164795, 437.33557295799255, 437.45245003700256, 437.56924390792847, 437.68602108955383, 437.8027060031891, 437.9196181297302, 438.03685998916626, 438.1532120704651, 438.3659040927887]	[434.26203524068734, 434.378701907354, 435.361701907354, 435.528401907354, 436.278401907354, 436.3950685740207, 436.51173524068736, 436.62840190735403, 436.7450685740207, 436.8617352406874, 436.97840190735405, 437.09506857402073, 437.2117352406874, 437.3284019073541, 437.44506857402075, 437.5617352406874, 437.6784019073541, 437.7950685740208, 437.91173524068745, 438.0284019073541, 438.1450685740208, 438.37840190735415]	2020_Nov_26_1128	59.849801299933645	1	1
4	73	FALSE	VV	v	['E', 'T', 'W', 'V', 'C', 'K', 'J', 'Z', 'R', 'M', 'surprise', 'U', 'Y', 'X', 'H', 'B']	[904, 1888, 2448, 2245, 829, 1122, 1029, 2911, 1587, 1224, 'stimAuditory/all_stimAuditory/215.wav', 2059, 2670, 4000, 986, 760]	14	Present	NA	stimVisual/all_stimVisual/115.jpg	PRESENT	0.6864590644836426	440.35268211364746	442.3657619953155	443.64972615242	443.9993140697479	446.48227095603943	4.116508960723877	[440.37207412719727, 440.4890151023865, 441.4734699726105, 441.6401369571686, 442.407763004303, 442.50767397880554, 442.6245210170746, 442.7412579059601, 442.8581910133362, 442.97486209869385, 443.0918779373169, 443.20852994918823, 443.3254199028015, 443.4420750141144, 443.5755190849304, 443.6756191253662, 443.79255509376526, 443.9093909263611, 444.026123046875, 444.1427729129791, 444.25972294807434, 444.48227095603943]	[440.37840190735415, 440.4950685740208, 441.4780685740208, 441.6447685740208, 442.3947685740208, 442.5114352406875, 442.62810190735416, 442.74476857402084, 442.8614352406875, 442.9781019073542, 443.09476857402086, 443.21143524068754, 443.3281019073542, 443.4447685740209, 443.56143524068756, 443.67810190735423, 443.7947685740209, 443.9114352406876, 444.02810190735426, 444.14476857402093, 444.2614352406876, 444.49476857402095]	2020_Nov_26_1128	59.849801299933645	1	1
4	74	FALSE	NN	v	['U', 'N', 'R', 'P', 'T', 'B', 'W', 'V', 'C', 'S', 'J', 'A', 'H', 'Z', 'Y', 'E']	[2059, 1335, 1587, 1456, 1888, 760, 2448, 2245, 829, 1731, 1029, 697, 986, 2911, 2670, 904]	12	Absent	NA	NA	ABSENT	0.5710320472717285	446.4761919975281	448.4819641113281	449.5325810909271	449.8826742172241	452.59863805770874	4.116673946380615	[446.49558305740356, 446.61219000816345, 447.5966749191284, 447.76354813575745, 448.51463198661804, 448.63090896606445, 448.7479319572449, 448.864599943161, 448.98154497146606, 449.09820199012756, 449.21504497528076, 449.331759929657, 449.44863390922546, 449.5655589103699, 449.6820070743561, 449.7988910675049, 449.91580295562744, 450.03251910209656, 450.1492519378662, 450.2662811279297, 450.3829779624939, 450.59863901138306]	[446.49476857402095, 446.6114352406876, 447.59443524068763, 447.7611352406876, 448.5111352406876, 448.6278019073543, 448.74446857402097, 448.86113524068764, 448.9778019073543, 449.094468574021, 449.21113524068767, 449.32780190735434, 449.444468574021, 449.5611352406877, 449.67780190735436, 449.79446857402104, 449.9111352406877, 450.0278019073544, 450.14446857402106, 450.26113524068774, 450.3778019073544, 450.61113524068776]	2020_Nov_26_1128	59.849801299933645	1	1
4	75	FALSE	NN	v	['W', 'E', 'Y', 'C', 'T', 'J', 'U', 'Z', 'G', 'A', 'B', 'R', 'P', 'K', 'M', 'H']	[2448, 904, 2670, 829, 1888, 1029, 2059, 2911, 944, 697, 760, 1587, 1456, 1122, 1224, 986]	9	Absent	NA	NA	ABSENT	1.7683110237121582	452.59926199913025	454.598237991333	455.2991180419922	455.6487891674042	458.7150030136109	4.116765022277832	[452.6186559200287, 452.7356209754944, 453.70313000679016, 453.8699131011963, 454.6374931335449, 454.75430703163147, 454.8710310459137, 454.9881179332733, 455.10456800460815, 455.22167205810547, 455.3384780883789, 455.45498991012573, 455.57190704345703, 455.6886820793152, 455.8054211139679, 455.9223029613495, 456.03891706466675, 456.15589594841003, 456.2726900577545, 456.3895890712738, 456.48956990242004, 456.71500396728516]	[452.61113524068776, 452.72780190735443, 453.71080190735444, 453.87750190735443, 454.62750190735443, 454.7441685740211, 454.8608352406878, 454.97750190735445, 455.0941685740211, 455.2108352406878, 455.3275019073545, 455.44416857402115, 455.5608352406878, 455.6775019073545, 455.79416857402117, 455.91083524068785, 456.0275019073545, 456.1441685740212, 456.26083524068787, 456.37750190735454, 456.4941685740212, 456.72750190735456]	2020_Nov_26_1128	59.849801299933645	1	1
4	76	FALSE	NN	v	['E', 'H', 'S', 'P', 'Y', 'W', 'K', 'M', 'B', 'R', 'A', 'T', 'V', 'Z', 'C', 'U']	[904, 986, 1731, 1456, 2670, 2448, 1122, 1224, 760, 1587, 697, 1888, 2245, 2911, 829, 2059]	12	Absent	NA	NA	ABSENT	0.17305994033813477	458.70573115348816	460.7145462036133	461.7652461528778	462.1150810718536	464.83137106895447	4.1168248653411865	[458.7251250743866, 458.8421621322632, 459.82672095298767, 459.99324893951416, 460.74399495124817, 460.8609530925751, 460.97781205177307, 461.0944719314575, 461.2111909389496, 461.32819390296936, 461.4449291229248, 461.56154799461365, 461.67856192588806, 461.7951600551605, 461.91208600997925, 462.0287220478058, 462.14569902420044, 462.2622969150543, 462.3792679309845, 462.4958679676056, 462.6126379966736, 462.83137011528015]	[458.72750190735456, 458.84416857402124, 459.82716857402124, 459.99386857402123, 460.74386857402123, 460.8605352406879, 460.9772019073546, 461.09386857402126, 461.21053524068793, 461.3272019073546, 461.4438685740213, 461.56053524068795, 461.67720190735463, 461.7938685740213, 461.910535240688, 462.02720190735465, 462.1438685740213, 462.260535240688, 462.3772019073547, 462.49386857402135, 462.610535240688, 462.84386857402137]	2020_Nov_26_1128	59.849801299933645	1	1
4	77	FALSE	NV	v	['M', 'T', 'B', 'R', 'Z', 'J', 'K', 'H', 'W', 'A', 'U', 'P', 'C', 'X', 'E', 'S']	[1224, 1888, 760, 1587, 2911, 1029, 1122, 986, 2448, 697, 2059, 1456, 829, 4000, 904, 1731]	14	Present	NA	NA	PRESENT	0.546360969543457	464.8291170597077	466.8311250209808	468.11478209495544	468.4648401737213	470.9477379322052	4.116612911224365	[464.84850907325745, 464.96533203125, 465.94955706596375, 466.1164801120758, 466.8672630786896, 466.98408699035645, 467.1009500026703, 467.21766090393066, 467.33455991744995, 467.4512929916382, 467.56818199157715, 467.6849400997162, 467.8017740249634, 467.91854906082153, 468.0355019569397, 468.15207695961, 468.2688570022583, 468.38580298423767, 468.5024130344391, 468.6192491054535, 468.7191789150238, 468.9477369785309]	[464.84386857402137, 464.96053524068805, 465.94353524068805, 466.11023524068804, 466.86023524068804, 466.9769019073547, 467.0935685740214, 467.21023524068806, 467.32690190735474, 467.4435685740214, 467.5602352406881, 467.67690190735476, 467.79356857402144, 467.9102352406881, 468.0269019073548, 468.14356857402146, 468.26023524068813, 468.3769019073548, 468.4935685740215, 468.61023524068816, 468.72690190735483, 468.9602352406882]	2020_Nov_26_1128	59.849801299933645	1	1
4	78	FALSE	NA	v	['N', 'P', 'K', 'A', 'Z', 'B', 'M', 'Y', 'J', 'R', 'E', 'G', 'X', 'V', 'C', 'W']	[1335, 1456, 1122, 697, 2911, 760, 1224, 2670, 1029, 1587, 904, 944, 4000, 2245, 829, 2448]	13	Present	NA	NA	PRESENT	0.55069899559021	470.93552803993225	472.94743514060974	474.1144471168518	474.46458101272583	477.0641040802002	4.116668939590454	[470.95492005348206, 471.0716640949249, 472.05620098114014, 472.22298407554626, 472.9903790950775, 473.09073209762573, 473.2075140476227, 473.3243019580841, 473.44103598594666, 473.55771493911743, 473.6746098995209, 473.79130697250366, 473.908282995224, 474.0248210430145, 474.14187502861023, 474.25837993621826, 474.37544107437134, 474.4921860694885, 474.6087849140167, 474.72560811042786, 474.842355966568, 475.0641031265259]	[470.9602352406882, 471.07690190735485, 472.05990190735486, 472.22660190735485, 472.97660190735485, 473.0932685740215, 473.2099352406882, 473.32660190735487, 473.44326857402154, 473.5599352406882, 473.6766019073549, 473.79326857402157, 473.90993524068824, 474.0266019073549, 474.1432685740216, 474.25993524068826, 474.37660190735494, 474.4932685740216, 474.6099352406883, 474.72660190735496, 474.84326857402164, 475.076601907355]	2020_Nov_26_1128	59.849801299933645	1	1
4	79	FALSE	NA	v	['K', 'A', 'E', 'U', 'T', 'Y', 'S', 'C', 'P', 'J', 'B', 'H', 'G', 'X', 'N', 'V']	[1122, 697, 904, 2059, 1888, 2670, 1731, 829, 1456, 1029, 760, 986, 944, 4000, 1335, 2245]	14	Present	NA	NA	PRESENT	0.35521912574768066	477.05883407592773	479.0638611316681	480.3476140499115	480.6978440284729	483.1804709434509	4.116609811782837	[477.07822608947754, 477.1949269771576, 478.1797630786896, 478.34633803367615, 479.0971119403839, 479.2138180732727, 479.3307569026947, 479.44747591018677, 479.5643699169159, 479.6809709072113, 479.79769492149353, 479.9145829677582, 480.0315010547638, 480.14876794815063, 480.2650399208069, 480.3819100856781, 480.49862790107727, 480.61542105674744, 480.7322471141815, 480.849023103714, 480.9658410549164, 481.1804709434509]	[477.076601907355, 477.19326857402166, 478.17626857402166, 478.34296857402165, 479.09296857402165, 479.2096352406883, 479.326301907355, 479.4429685740217, 479.55963524068835, 479.676301907355, 479.7929685740217, 479.9096352406884, 480.02630190735505, 480.1429685740217, 480.2596352406884, 480.37630190735507, 480.49296857402175, 480.6096352406884, 480.7263019073551, 480.84296857402177, 480.95963524068844, 481.1929685740218]	2020_Nov_26_1128	59.849801299933645	1	1
