participant	trial_num	practice	task	condition	RSVP	RAP	probePos	probe_presence	surprise_sound	surprise_img	probe_response	probe_resp_time	first_fixation_time	trial_start_time	surprise_start_time	probe_start_time	trial_end_time	trial_duration	actualEventTimes	plannedEventTimes	date	framerate	marker_vol	RAP_vol
7	1	FALSE	NV	v	['E', 'G', 'P', 'M', 'B', 'Y', 'N', 'X', 'H', 'J', 'V', 'T', 'R', 'Z', 'U', 'C']	[904, 944, 1456, 1224, 760, 2670, 1335, 4000, 986, 1029, 2245, 1888, 1587, 2911, 2059, 829]	8	Present	NA	NA	PRESENT	0.05579113960266113	2.86102294921875e-6	1.9962809085845947	2.5774118900299072	2.9277799129486084	6.1038689613342285	4.107588052749634	[0.013965845108032227, 0.11406993865966797, 1.0987448692321777, 1.2653470039367676, 2.0329699516296387, 2.1328189373016357, 2.2497549057006836, 2.366503953933716, 2.483219861984253, 2.5999529361724854, 2.7167458534240723, 2.833603858947754, 2.950551986694336, 3.0671210289001465, 3.1839439868927, 3.3008060455322266, 3.4175989627838135, 3.534289836883545, 3.651136875152588, 3.767853021621704, 3.884737968444824, 4.103869915008545]	[9.5367431640625e-07, 0.11666762034098306, 1.099667620340983, 1.266367620340983, 2.016367620340983, 2.1330342870076495, 2.249700953674316, 2.366367620340983, 2.4830342870076496, 2.5997009536743163, 2.716367620340983, 2.8330342870076497, 2.9497009536743164, 3.066367620340983, 3.18303428700765, 3.2997009536743165, 3.416367620340983, 3.53303428700765, 3.6497009536743166, 3.7663676203409833, 3.88303428700765, 4.116367620340983]	2020_Nov_27_1348	59.95777243143023	1	1
7	2	FALSE	NA	v	['U', 'M', 'K', 'B', 'N', 'Z', 'Y', 'J', 'V', 'T', 'X', 'G', 'E', 'C', 'R', 'S']	[2059, 1224, 1122, 760, 1335, 2911, 2670, 1029, 2245, 1888, 4000, 944, 904, 829, 1587, 1731]	11	Present	NA	NA	PRESENT	0.37964797019958496	6.106395959854126	8.109229803085327	9.04284381866455	9.392817974090576	12.220237016677856	4.111007213592529	[6.120360851287842, 6.237186908721924, 7.2218639850616455, 7.388329982757568, 8.139098882675171, 8.256031036376953, 8.372719049453735, 8.489514827728271, 8.606300830841064, 8.723148822784424, 8.839813947677612, 8.956576824188232, 9.073633909225464, 9.190366983413696, 9.307169914245605, 9.423871040344238, 9.540798902511597, 9.65743899345398, 9.774322032928467, 9.891013860702515, 10.008256912231445, 10.220237970352173]	[6.116367620340983, 6.23303428700765, 7.216034287007649, 7.382734287007649, 8.132734287007649, 8.249400953674316, 8.366067620340983, 8.48273428700765, 8.599400953674317, 8.716067620340985, 8.832734287007652, 8.949400953674319, 9.066067620340986, 9.182734287007653, 9.29940095367432, 9.416067620340987, 9.532734287007655, 9.649400953674322, 9.766067620340989, 9.882734287007656, 9.999400953674323, 10.232734287007656]	2020_Nov_27_1348	59.95777243143023	1	1
7	3	FALSE	NN	v	['T', 'U', 'N', 'J', 'B', 'S', 'A', 'R', 'P', 'K', 'Z', 'E', 'Y', 'W', 'H', 'G']	[1888, 2059, 1335, 1029, 760, 1731, 697, 1587, 1456, 1122, 2911, 904, 2670, 2448, 986, 944]	10	Absent	NA	NA	PRESENT	1.3456189632415771	12.212762832641602	14.225275993347168	15.042799949645996	15.392727851867676	18.336602926254272	4.1113269329071045	[12.22672700881958, 12.343552827835083, 13.328137874603271, 13.494743824005127, 14.262269973754883, 14.362324953079224, 14.479120016098022, 14.595934867858887, 14.712662935256958, 14.829499006271362, 14.946339845657349, 15.063040971755981, 15.179772853851318, 15.296586036682129, 15.413435935974121, 15.530166864395142, 15.64701795578003, 15.763789892196655, 15.880544900894165, 15.997367858886719, 16.114130973815918, 16.33660387992859]	[12.232734287007656, 12.349400953674323, 13.332400953674323, 13.499100953674324, 14.249100953674324, 14.365767620340991, 14.482434287007658, 14.599100953674325, 14.715767620340992, 14.83243428700766, 14.949100953674327, 15.065767620340994, 15.182434287007661, 15.299100953674328, 15.415767620340995, 15.532434287007662, 15.64910095367433, 15.765767620340997, 15.882434287007664, 15.999100953674331, 16.115767620340996, 16.34910095367433]	2020_Nov_27_1348	59.95777243143023	1	1
7	4	FALSE	NN	v	['B', 'N', 'C', 'T', 'A', 'G', 'W', 'K', 'J', 'M', 'U', 'E', 'Y', 'P', 'R', 'V']	[760, 1335, 829, 1888, 697, 944, 2448, 1122, 1029, 1224, 2059, 904, 2670, 1456, 1587, 2245]	11	Absent	NA	NA	ABSENT	0.6379518508911133	18.335943937301636	20.341750860214233	21.27542996406555	21.625430822372437	24.45296883583069	4.111217975616455	[18.34990882873535, 18.466709852218628, 19.45116090774536, 19.6180260181427, 20.368631839752197, 20.485556840896606, 20.602318048477173, 20.719130039215088, 20.83586096763611, 20.952783823013306, 21.069463968276978, 21.186384916305542, 21.303228855133057, 21.419806957244873, 21.53662896156311, 21.65357494354248, 21.7703218460083, 21.886863946914673, 22.003780841827393, 22.120615005493164, 22.237473011016846, 22.452970027923584]	[18.34910095367433, 18.465767620340998, 19.448767620341, 19.615467620340997, 20.365467620340997, 20.482134287007664, 20.59880095367433, 20.715467620341, 20.832134287007666, 20.948800953674333, 21.065467620341, 21.182134287007667, 21.298800953674334, 21.415467620341, 21.53213428700767, 21.648800953674336, 21.765467620341003, 21.88213428700767, 21.998800953674337, 22.115467620341004, 22.23213428700767, 22.465467620341006]	2020_Nov_27_1348	59.95777243143023	1	1
7	5	FALSE	VA	v	['N', 'T', 'M', 'Y', 'S', 'V', 'C', 'R', 'surprise', 'K', 'H', 'X', 'E', 'B', 'W', 'G']	[1335, 1888, 1224, 2670, 1731, 2245, 829, 1587, 'stimAuditory/all_stimAuditory/112.wav', 1122, 986, 4000, 904, 760, 2448, 944]	12	Present	NA	stimVisual/all_stimVisual/217.jpg	PRESENT	0.5074701309204102	24.4592227935791	26.458249807357788	27.508391857147217	27.85832381248474	30.5693359375	4.111086130142212	[24.47318696975708, 24.5899498462677, 25.557294845581055, 25.724262952804565, 26.491981029510498, 26.608680963516235, 26.7256019115448, 26.84234595298767, 26.958977937698364, 27.075690031051636, 27.192550897598267, 27.309363842010498, 27.42591094970703, 27.54283595085144, 27.659814834594727, 27.77638292312622, 27.893126010894775, 28.010154962539673, 28.10994791984558, 28.226722955703735, 28.343791007995605, 28.569336891174316]	[24.465467620341006, 24.582134287007673, 25.565134287007673, 25.731834287007672, 26.481834287007672, 26.59850095367434, 26.715167620341006, 26.831834287007673, 26.94850095367434, 27.065167620341008, 27.181834287007675, 27.298500953674342, 27.41516762034101, 27.531834287007676, 27.648500953674343, 27.76516762034101, 27.881834287007678, 27.998500953674345, 28.115167620341012, 28.23183428700768, 28.348500953674346, 28.58183428700768]	2020_Nov_27_1348	59.95777243143023	1	1
7	6	FALSE	NV	v	['R', 'N', 'G', 'U', 'A', 'V', 'Z', 'C', 'W', 'X', 'K', 'J', 'H', 'B', 'S', 'M']	[1587, 1335, 944, 2059, 697, 2245, 2911, 829, 2448, 4000, 1122, 1029, 986, 760, 1731, 1224]	10	Present	NA	NA	PRESENT	0.43186211585998535	30.565623998641968	32.574376821517944	33.39153981208801	33.74162578582764	36.68570303916931	4.111326217651367	[30.579591035842896, 30.696178913116455, 31.680629014968872, 31.847506046295166, 32.59803795814514, 32.715028047561646, 32.831745862960815, 32.94898986816406, 33.065325021743774, 33.182042837142944, 33.29895091056824, 33.41584801673889, 33.53248381614685, 33.64936900138855, 33.766170024871826, 33.88292098045349, 33.99972081184387, 34.11650490760803, 34.233295917510986, 34.34995198249817, 34.46686387062073, 34.68570303916931]	[30.58183428700768, 30.698500953674348, 31.681500953674348, 31.848200953674347, 32.59820095367435, 32.71486762034102, 32.831534287007685, 32.94820095367435, 33.06486762034102, 33.181534287007686, 33.29820095367435, 33.41486762034102, 33.53153428700769, 33.648200953674355, 33.76486762034102, 33.88153428700769, 33.998200953674356, 34.11486762034102, 34.23153428700769, 34.34820095367436, 34.464867620341025, 34.69820095367436]	2020_Nov_27_1348	59.95777243143023	1	1
7	7	FALSE	NN	v	['G', 'E', 'B', 'C', 'W', 'A', 'S', 'H', 'M', 'N', 'Z', 'R', 'Y', 'V', 'J', 'T']	[944, 904, 760, 829, 2448, 697, 1731, 986, 1224, 1335, 2911, 1587, 2670, 2245, 1029, 1888]	8	Absent	NA	NA	ABSENT	0.396601915359497	36.68858981132507	38.690775871276855	39.27447891235352	39.62472701072693	42.80206894874573	4.111293077468872	[36.70255398750305, 36.819324016571045, 37.803504943847656, 37.97057890892029, 38.721176862716675, 38.83784484863281, 38.95490789413452, 39.07163381576538, 39.18840193748474, 39.30505990982056, 39.421963930130005, 39.53874492645264, 39.65572690963745, 39.77223086357117, 39.88924694061279, 40.00596284866333, 40.122798919677734, 40.23938584327698, 40.35638403892517, 40.47327995300293, 40.58994102478027, 40.802069902420044]	[36.69820095367436, 36.814867620341026, 37.79786762034102, 37.96456762034102, 38.71456762034102, 38.83123428700769, 38.947900953674356, 39.06456762034102, 39.18123428700769, 39.29790095367436, 39.414567620341025, 39.53123428700769, 39.64790095367436, 39.764567620341026, 39.88123428700769, 39.99790095367436, 40.11456762034103, 40.231234287007695, 40.34790095367436, 40.46456762034103, 40.581234287007696, 40.81456762034103]	2020_Nov_27_1348	59.95777243143023	1	1
7	8	FALSE	NA	v	['A', 'Y', 'J', 'U', 'V', 'P', 'Z', 'M', 'C', 'S', 'H', 'X', 'T', 'B', 'R', 'E']	[697, 2670, 1029, 2059, 2245, 1456, 2911, 1224, 829, 1731, 986, 4000, 1888, 760, 1587, 904]	12	Present	NA	NA	PRESENT	0.40180492401123047	42.79486083984375	44.807024002075195	45.85748481750488	46.20784091949463	48.918437004089355	4.11141300201416	[42.80882501602173, 42.925528049468994, 43.91030693054199, 44.07694888114929, 44.84440898895264, 44.94449496269226, 45.06121492385864, 45.17809796333313, 45.29466485977173, 45.411612033843994, 45.52844285964966, 45.64521789550781, 45.762089014053345, 45.87877583503723, 45.995476961135864, 46.11228585243225, 46.22907090187073, 46.34594798088074, 46.46256184577942, 46.579360008239746, 46.69623804092407, 46.918437004089355]	[42.81456762034103, 42.9312342870077, 43.914234287007694, 44.08093428700769, 44.83093428700769, 44.94760095367436, 45.06426762034103, 45.180934287007695, 45.29760095367436, 45.41426762034103, 45.530934287007696, 45.64760095367436, 45.76426762034103, 45.8809342870077, 45.997600953674365, 46.11426762034103, 46.2309342870077, 46.347600953674366, 46.46426762034103, 46.5809342870077, 46.69760095367437, 46.9309342870077]	2020_Nov_27_1348	59.95777243143023	1	1
7	9	FALSE	NA	v	['V', 'S', 'K', 'H', 'E', 'C', 'G', 'R', 'W', 'J', 'U', 'Z', 'P', 'X', 'A', 'T']	[2245, 1731, 1122, 986, 904, 829, 944, 1587, 2448, 1029, 2059, 2911, 1456, 4000, 697, 1888]	14	Present	NA	NA	PRESENT	0.26180195808410645	48.918028831481934	50.92385387420654	52.20723295211792	52.55737090110779	55.03480291366577	4.1109490394592285	[48.9320068359375, 49.048868894577026, 50.033190965652466, 50.19988203048706, 50.95063400268555, 51.067633867263794, 51.18442487716675, 51.30123996734619, 51.418067932128906, 51.53456687927246, 51.65142798423767, 51.768348932266235, 51.884986877441406, 52.00191593170166, 52.118610858917236, 52.235493898391724, 52.35227990150452, 52.469082832336426, 52.585734844207764, 52.70240497589111, 52.81934404373169, 53.03480291366577]	[48.9309342870077, 49.04760095367437, 50.030600953674366, 50.197300953674365, 50.947300953674365, 51.06396762034103, 51.1806342870077, 51.297300953674366, 51.41396762034103, 51.5306342870077, 51.64730095367437, 51.763967620341035, 51.8806342870077, 51.99730095367437, 52.113967620341036, 52.2306342870077, 52.34730095367437, 52.46396762034104, 52.580634287007705, 52.69730095367437, 52.81396762034104, 53.04730095367437]	2020_Nov_27_1348	59.95777243143023	1	1
7	10	FALSE	NN	v	['Z', 'K', 'V', 'E', 'M', 'J', 'R', 'A', 'G', 'Y', 'W', 'N', 'U', 'P', 'B', 'S']	[2911, 1122, 2245, 904, 1224, 1029, 1587, 697, 944, 2670, 2448, 1335, 2059, 1456, 760, 1731]	11	Absent	NA	NA	ABSENT	1.403591871261597	55.04115796089173	57.0401508808136	57.97386384010315	58.323792934417725	61.15117001533508	4.111019134521484	[55.05512285232544, 55.17171502113342, 56.13937187194824, 56.30619192123413, 57.07377290725708, 57.19063186645508, 57.30741882324219, 57.424299001693726, 57.540802001953125, 57.65779185295105, 57.774559020996094, 57.89144587516785, 58.00814700126648, 58.12470984458923, 58.24177098274231, 58.358633041381836, 58.45840787887573, 58.57518696784973, 58.69198799133301, 58.80877995491028, 58.92561101913452, 59.15116882324219]	[55.04730095367437, 55.16396762034104, 56.14696762034104, 56.313667620341036, 57.063667620341036, 57.1803342870077, 57.29700095367437, 57.41366762034104, 57.530334287007705, 57.64700095367437, 57.76366762034104, 57.880334287007706, 57.99700095367437, 58.11366762034104, 58.23033428700771, 58.347000953674375, 58.46366762034104, 58.58033428700771, 58.697000953674376, 58.81366762034104, 58.93033428700771, 59.163667620341045]	2020_Nov_27_1348	59.95777243143023	1	1
7	11	FALSE	NA	v	['K', 'H', 'Z', 'V', 'E', 'A', 'N', 'J', 'Y', 'W', 'U', 'M', 'X', 'S', 'R', 'C']	[1122, 986, 2911, 2245, 904, 697, 1335, 1029, 2670, 2448, 2059, 1224, 4000, 1731, 1587, 829]	13	Present	NA	NA	PRESENT	0.34409093856811523	61.14723086357117	63.15622282028198	64.3235399723053	64.67311000823975	67.26753687858582	4.111314058303833	[61.161195039749146, 61.278103828430176, 62.26254987716675, 62.42930197715759, 63.18031287193298, 63.29708790779114, 63.4136278629303, 63.53062987327576, 63.64717483520508, 63.76419496536255, 63.8809700012207, 63.99773097038269, 64.11441493034363, 64.23137998580933, 64.3479859828949, 64.46498203277588, 64.5815818309784, 64.69852185249329, 64.81521892547607, 64.93187594413757, 65.04888582229614, 65.26753783226013]	[61.163667620341045, 61.28033428700771, 62.26333428700771, 62.43003428700771, 63.18003428700771, 63.296700953674375, 63.41336762034104, 63.53003428700771, 63.646700953674376, 63.76336762034104, 63.88003428700771, 63.99670095367438, 64.11336762034104, 64.2300342870077, 64.34670095367436, 64.46336762034102, 64.58003428700768, 64.69670095367434, 64.813367620341, 64.93003428700766, 65.04670095367432, 65.28003428700765]	2020_Nov_27_1348	59.95777243143023	1	1
7	12	FALSE	AA	v	['M', 'B', 'P', 'G', 'S', 'H', 'T', 'K', 'V', 'W', 'surprise', 'N', 'R', 'X', 'J', 'U']	[1224, 760, 1456, 944, 1731, 986, 1888, 1122, 2245, 2448, 'stimAuditory/all_stimAuditory/219.wav', 1335, 1587, 4000, 1029, 2059]	14	Present	stimAuditory/all_stimAuditory/112.wav	stimVisual/all_stimVisual/215.jpg	PRESENT	0.597661018371582	67.27058792114258	69.27265286445618	70.55627298355103	70.90616393089294	73.38390302658081	4.111250162124634	[67.28455185890198, 67.40141582489014, 68.38573098182678, 68.5524230003357, 69.30316996574402, 69.41990399360657, 69.53691387176514, 69.65366291999817, 69.77027893066406, 69.88721084594727, 70.00398898124695, 70.12090682983398, 70.23756289482117, 70.35443186759949, 70.47114896774292, 70.58782601356506, 70.70477986335754, 70.82153987884521, 70.93835091590881, 71.05515503883362, 71.15506100654602, 71.38390302658081]	[67.28003428700765, 67.39670095367431, 68.37970095367432, 68.54640095367432, 69.29640095367432, 69.41306762034098, 69.52973428700764, 69.6464009536743, 69.76306762034096, 69.87973428700762, 69.99640095367428, 70.11306762034094, 70.2297342870076, 70.34640095367426, 70.46306762034092, 70.57973428700758, 70.69640095367424, 70.8130676203409, 70.92973428700756, 71.04640095367422, 71.16306762034088, 71.39640095367422]	2020_Nov_27_1348	59.95777243143023	1	1
7	13	FALSE	NN	v	['Y', 'M', 'P', 'A', 'T', 'G', 'C', 'H', 'R', 'N', 'Z', 'U', 'V', 'J', 'E', 'B']	[2670, 1224, 1456, 697, 1888, 944, 829, 986, 1587, 1335, 2911, 2059, 2245, 1029, 904, 760]	13	Absent	NA	NA	ABSENT	0.5301079750061035	73.37700295448303	75.3888099193573	76.55598592758179	76.90617489814758	79.50026893615723	4.111459016799927	[73.39096689224243, 73.5075569152832, 74.49193286895752, 74.65888285636902, 75.42633700370789, 75.52650189399719, 75.64308881759644, 75.7600839138031, 75.8766438961029, 75.99363493919373, 76.16038703918457, 76.22734594345093, 76.34390783309937, 76.46070504188538, 76.57745885848999, 76.6941180229187, 76.8110408782959, 76.92794299125671, 77.04464793205261, 77.16147589683533, 77.27820086479187, 77.50026893615723]	[73.39640095367422, 73.51306762034088, 74.49606762034088, 74.66276762034089, 75.41276762034089, 75.52943428700755, 75.6461009536742, 75.76276762034087, 75.87943428700753, 75.99610095367419, 76.11276762034085, 76.2294342870075, 76.34610095367417, 76.46276762034083, 76.57943428700749, 76.69610095367415, 76.81276762034081, 76.92943428700747, 77.04610095367413, 77.16276762034079, 77.27943428700745, 77.51276762034078]	2020_Nov_27_1348	59.95777243143023	1	1
7	14	FALSE	NN	v	['P', 'C', 'V', 'T', 'U', 'B', 'Y', 'N', 'A', 'K', 'M', 'W', 'H', 'G', 'E', 'R']	[1456, 829, 2245, 1888, 2059, 760, 2670, 1335, 697, 1122, 1224, 2448, 986, 944, 904, 1587]	11	Absent	NA	NA	ABSENT	1.454516887664795	79.49987387657166	81.5052478313446	82.43895983695984	82.78926086425781	85.61663699150085	4.11138916015625	[79.51383781433105, 79.63076400756836, 80.6152069568634, 80.78198289871216, 81.53262281417847, 81.64951992034912, 81.76634693145752, 81.8829698562622, 81.99996399879456, 82.1167459487915, 82.23342084884644, 82.35024690628052, 82.467041015625, 82.58361387252808, 82.70057797431946, 82.81743502616882, 82.93454694747925, 83.0510048866272, 83.16765785217285, 83.28452587127686, 83.4013888835907, 83.61663603782654]	[79.51276762034078, 79.62943428700744, 80.61243428700745, 80.77913428700745, 81.52913428700745, 81.64580095367411, 81.76246762034077, 81.87913428700743, 81.99580095367409, 82.11246762034075, 82.22913428700741, 82.34580095367407, 82.46246762034073, 82.57913428700739, 82.69580095367405, 82.81246762034071, 82.92913428700737, 83.04580095367403, 83.16246762034069, 83.27913428700735, 83.39580095367401, 83.62913428700735]	2020_Nov_27_1348	59.95777243143023	1	1
7	15	FALSE	NN	v	['P', 'V', 'R', 'K', 'N', 'W', 'G', 'Y', 'S', 'C', 'J', 'H', 'E', 'A', 'T', 'U']	[1456, 2245, 1587, 1122, 1335, 2448, 944, 2670, 1731, 829, 1029, 986, 904, 697, 1888, 2059]	11	Absent	NA	NA	ABSENT	0.6517810821533203	85.62306380271912	87.62187790870667	88.55543184280396	88.90536093711853	91.73300290107728	4.1111249923706055	[85.6370279788971, 85.75354599952698, 86.7213180065155, 86.8881368637085, 87.65575981140137, 87.77235984802246, 87.88932704925537, 88.00600504875183, 88.12282299995422, 88.23958683013916, 88.35660195350647, 88.4732449054718, 88.59017896652222, 88.70693898200989, 88.82376503944397, 88.9404149055481, 89.0403299331665, 89.15710592269897, 89.27389287948608, 89.40767502784729, 89.50758004188538, 89.73300194740295]	[85.62913428700735, 85.745800953674, 86.72880095367401, 86.89550095367402, 87.64550095367402, 87.76216762034068, 87.87883428700734, 87.995500953674, 88.11216762034066, 88.22883428700732, 88.34550095367398, 88.46216762034064, 88.5788342870073, 88.69550095367396, 88.81216762034062, 88.92883428700728, 89.04550095367394, 89.1621676203406, 89.27883428700726, 89.39550095367392, 89.51216762034058, 89.74550095367391]	2020_Nov_27_1348	59.95777243143023	1	1
7	16	FALSE	NA	v	['C', 'U', 'K', 'W', 'B', 'S', 'N', 'T', 'V', 'R', 'E', 'X', 'H', 'G', 'J', 'M']	[829, 2059, 1122, 2448, 760, 1731, 1335, 1888, 2245, 1587, 904, 4000, 986, 944, 1029, 1224]	12	Present	NA	NA	PRESENT	0.20839500427246097	91.72939491271973	93.73805785179138	94.78865599632265	95.13850378990172	97.84937000274658	4.1113121509552	[91.74335885047913, 91.86014199256897, 92.8446319103241, 93.01176881790161, 93.76197695732117, 93.8789598941803, 93.995609998703, 94.112548828125, 94.22922682762146, 94.34592485427856, 94.46293687820435, 94.57966995239258, 94.69652199745178, 94.81333589553833, 94.93001794815063, 95.0469720363617, 95.16379284858704, 95.28024196624756, 95.39718389511108, 95.51403093338013, 95.63084697723389, 95.84937000274658]	[91.74550095367391, 91.86216762034057, 92.84516762034058, 93.01186762034058, 93.76186762034058, 93.87853428700724, 93.9952009536739, 94.11186762034056, 94.22853428700722, 94.34520095367388, 94.46186762034054, 94.5785342870072, 94.69520095367386, 94.81186762034052, 94.92853428700718, 95.04520095367384, 95.1618676203405, 95.27853428700716, 95.39520095367382, 95.51186762034048, 95.62853428700714, 95.86186762034048]	2020_Nov_27_1348	59.95777243143023	1	1
7	17	FALSE	NN	v	['Z', 'R', 'S', 'N', 'B', 'C', 'P', 'M', 'H', 'T', 'U', 'W', 'J', 'V', 'G', 'Y']	[2911, 1587, 1731, 1335, 760, 829, 1456, 1224, 986, 1888, 2059, 2448, 1029, 2245, 944, 2670]	10	Absent	NA	NA	ABSENT	0.821868896484375	97.8525857925415	99.8546769618988	100.67156291007996	101.02158284187315	103.96573686599731	4.111059904098511	[97.86654996871948, 97.98334503173828, 98.96755194664001, 99.13451385498047, 99.8851888179779, 100.00185084342957, 100.1188440322876, 100.2356309890747, 100.3524580001831, 100.46920990943909, 100.5858850479126, 100.70273184776306, 100.819344997406, 100.93635487556458, 101.05314898490906, 101.17000603675842, 101.28674483299255, 101.40349698066711, 101.5203468799591, 101.63708686828613, 101.73698782920837, 101.965735912323]	[97.86186762034048, 97.97853428700714, 98.96153428700714, 99.12823428700715, 99.87823428700715, 99.9949009536738, 100.11156762034047, 100.22823428700713, 100.34490095367379, 100.46156762034045, 100.5782342870071, 100.69490095367377, 100.81156762034043, 100.92823428700709, 101.04490095367375, 101.1615676203404, 101.27823428700707, 101.39490095367373, 101.51156762034039, 101.62823428700705, 101.7449009536737, 101.97823428700704]	2020_Nov_27_1348	59.95777243143023	1	1
7	18	FALSE	AV	v	['R', 'U', 'K', 'Y', 'V', 'Z', 'W', 'M', 'E', 'J', 'surprise', 'H', 'S', 'X', 'G', 'T']	[1587, 2059, 1122, 2670, 2245, 2911, 2448, 1224, 904, 1029, 'stimAuditory/all_stimAuditory/104.wav', 986, 1731, 4000, 944, 1888]	14	Present	stimAuditory/all_stimAuditory/219.wav	stimVisual/all_stimVisual/0.jpg	PRESENT	0.3782010078430176	103.95893478393556	105.97077178955078	107.25454783439636	107.60438895225523	110.08210396766664	4.111332178115845	[103.97289991378784, 104.08958792686462, 105.07394981384277, 105.2406280040741, 106.00823903083801, 106.10840582847595, 106.22510600090027, 106.3419828414917, 106.45862197875977, 106.57558298110962, 106.69228982925415, 106.80897402763367, 106.92588901519775, 107.04268884658813, 107.17605686187744, 107.27627301216125, 107.39299893379211, 107.50968384742737, 107.62665390968323, 107.74329781532288, 107.86028099060059, 108.08210301399231]	[103.97823428700704, 104.0949009536737, 105.0779009536737, 105.24460095367371, 105.99460095367371, 106.11126762034037, 106.22793428700703, 106.34460095367369, 106.46126762034035, 106.57793428700701, 106.69460095367367, 106.81126762034033, 106.92793428700699, 107.04460095367365, 107.16126762034031, 107.27793428700697, 107.39460095367363, 107.51126762034029, 107.62793428700695, 107.74460095367361, 107.86126762034027, 108.0946009536736]	2020_Nov_27_1348	59.95777243143023	1	1
7	19	FALSE	NA	v	['E', 'U', 'V', 'W', 'R', 'K', 'C', 'X', 'P', 'T', 'Y', 'J', 'M', 'A', 'Z', 'H']	[904, 2059, 2245, 2448, 1587, 1122, 829, 4000, 1456, 1888, 2670, 1029, 1224, 697, 2911, 986]	8	Present	NA	NA	PRESENT	0.3903629779815674	110.08177900314332	112.08710289001463	112.6710968017578	113.02098488807678	116.19846987724304	4.1113669872283936	[110.09574294090271, 110.21292686462402, 111.19717502593994, 111.36378884315491, 112.11457085609436, 112.23159289360046, 112.34817004203796, 112.46483182907104, 112.58185195922852, 112.69863200187683, 112.81543397903442, 112.93219900131226, 113.04896187782288, 113.16570997238159, 113.28263187408447, 113.39920496940613, 113.51600694656372, 113.63289499282837, 113.74970602989197, 113.86647701263428, 113.98366594314575, 114.19846796989441]	[110.0946009536736, 110.21126762034027, 111.19426762034027, 111.36096762034028, 112.11096762034028, 112.22763428700694, 112.3443009536736, 112.46096762034026, 112.57763428700692, 112.69430095367358, 112.81096762034024, 112.9276342870069, 113.04430095367356, 113.16096762034022, 113.27763428700688, 113.39430095367354, 113.5109676203402, 113.62763428700686, 113.74430095367352, 113.86096762034018, 113.97763428700684, 114.21096762034017]	2020_Nov_27_1348	59.95777243143023	1	1
7	20	FALSE	NN	v	['G', 'W', 'U', 'B', 'R', 'P', 'A', 'Z', 'E', 'C', 'Y', 'K', 'S', 'N', 'H', 'J']	[944, 2448, 2059, 760, 1587, 1456, 697, 2911, 904, 829, 2670, 1122, 1731, 1335, 986, 1029]	13	Absent	NA	NA	ABSENT	0.4040749073028565	116.20507287979126	118.20335292816162	119.3707799911499	119.72097086906432	122.31483697891235	4.111484050750732	[116.21903800964355, 116.3356409072876, 117.3033299446106, 117.47009301185608, 118.23768496513367, 118.35463500022888, 118.47140884399414, 118.58817291259766, 118.70503091812134, 118.82168292999268, 118.93828582763672, 119.05527591705322, 119.17192101478577, 119.28866600990295, 119.40564489364624, 119.50562286376953, 119.62243103981018, 119.75612688064575, 119.85595893859863, 119.97275996208191, 120.08960795402527, 120.31483697891235]	[116.21096762034017, 116.32763428700683, 117.31063428700683, 117.47733428700684, 118.22733428700684, 118.3440009536735, 118.46066762034016, 118.57733428700682, 118.69400095367348, 118.81066762034014, 118.9273342870068, 119.04400095367346, 119.16066762034012, 119.27733428700678, 119.39400095367344, 119.5106676203401, 119.62733428700676, 119.74400095367342, 119.86066762034008, 119.97733428700674, 120.0940009536734, 120.32733428700674]	2020_Nov_27_1348	59.95777243143023	1	1
7	21	FALSE	NN	v	['Z', 'C', 'S', 'V', 'K', 'P', 'E', 'T', 'M', 'N', 'A', 'J', 'R', 'Y', 'G', 'W']	[2911, 829, 1731, 2245, 1122, 1456, 904, 1888, 1224, 1335, 697, 1029, 1587, 2670, 944, 2448]	11	Absent	NA	NA	ABSENT	0.48874711990356445	122.31143999099731	124.32023882865906	125.2538719177246	125.6038417816162	128.43120288848877	4.110964059829712	[122.32540392875671, 122.44214797019958, 123.42632102966309, 123.59326696395874, 124.34430694580078, 124.46099495887756, 124.57769799232483, 124.694571018219, 124.81130981445312, 124.92812085151672, 125.04492902755737, 125.1616530418396, 125.27841687202454, 125.3952169418335, 125.51205897331238, 125.62865591049194, 125.74557781219482, 125.86222696304321, 125.97921895980835, 126.09598302841187, 126.21277904510498, 126.43120193481445]	[122.32733428700674, 122.4440009536734, 123.4270009536734, 123.5937009536734, 124.3437009536734, 124.46036762034007, 124.57703428700673, 124.69370095367339, 124.81036762034005, 124.9270342870067, 125.04370095367337, 125.16036762034003, 125.27703428700669, 125.39370095367335, 125.51036762034, 125.62703428700667, 125.74370095367333, 125.86036762033999, 125.97703428700665, 126.0937009536733, 126.21036762033997, 126.4437009536733]	2020_Nov_27_1348	59.95777243143023	1	1
7	22	FALSE	VV	v	['E', 'Y', 'P', 'H', 'Z', 'M', 'T', 'B', 'V', 'N', 'surprise', 'G', 'K', 'X', 'J', 'S']	[904, 2670, 1456, 986, 2911, 1224, 1888, 760, 2245, 1335, 'stimAuditory/all_stimAuditory/122.wav', 944, 1122, 4000, 1029, 1731]	14	Present	NA	stimVisual/all_stimVisual/119.jpg	PRESENT	0.27011799812316895	128.43441200256348	130.43641090393066	131.72008991241455	132.07021498680115	134.54756999015808	4.111159086227417	[128.44837594032288, 128.5651798248291, 129.549654006958, 129.71645188331604, 130.46722888946533, 130.58377385139465, 130.70087385177612, 130.81738901138306, 130.93448400497437, 131.05093789100647, 131.16803002357483, 131.2848298549652, 131.40156483650208, 131.51818704605103, 131.63486790657043, 131.75178003311157, 131.86853885650635, 131.9853789806366, 132.10229992866516, 132.2190818786621, 132.31898498535156, 132.54756903648376]	[128.4437009536733, 128.56036762033997, 129.54336762033998, 129.71006762033997, 130.46006762033997, 130.57673428700664, 130.69340095367332, 130.81006762034, 130.92673428700667, 131.04340095367334, 131.16006762034002, 131.2767342870067, 131.39340095367336, 131.51006762034004, 131.6267342870067, 131.7434009536734, 131.86006762034006, 131.97673428700674, 132.0934009536734, 132.21006762034008, 132.32673428700676, 132.56006762034008]	2020_Nov_27_1348	59.95777243143023	1	1
7	23	FALSE	NA	v	['V', 'R', 'M', 'Y', 'K', 'J', 'B', 'N', 'Z', 'P', 'E', 'A', 'W', 'X', 'S', 'G']	[2245, 1587, 1224, 2670, 1122, 1029, 760, 1335, 2911, 1456, 904, 697, 2448, 4000, 1731, 944]	14	Present	NA	NA	PRESENT	0.3224179744720459	134.54106497764587	136.55279779434204	137.83657383918762	138.18626880645752	140.6639368534088	4.1111390590667725	[134.55502891540527, 134.67157793045044, 135.6559920310974, 135.82279801368713, 136.59026885032654, 136.69041681289673, 136.80700087547302, 136.92396092414856, 137.0406060218811, 137.1572699546814, 137.27428197860718, 137.39095091819763, 137.50789403915405, 137.62468886375427, 137.7414939403534, 137.85807704925537, 137.974937915802, 138.09171390533447, 138.20857501029968, 138.32529091835022, 138.4421648979187, 138.6639368534088]	[134.56006762034008, 134.67673428700675, 135.65973428700676, 135.82643428700675, 136.57643428700675, 136.69310095367342, 136.8097676203401, 136.92643428700677, 137.04310095367345, 137.15976762034012, 137.2764342870068, 137.39310095367347, 137.50976762034014, 137.62643428700682, 137.7431009536735, 137.85976762034016, 137.97643428700684, 138.0931009536735, 138.2097676203402, 138.32643428700686, 138.44310095367354, 138.67643428700686]	2020_Nov_27_1348	59.95777243143023	1	1
7	24	FALSE	NA	v	['C', 'B', 'H', 'K', 'V', 'A', 'R', 'T', 'J', 'U', 'M', 'Z', 'P', 'X', 'N', 'G']	[829, 760, 986, 1122, 2245, 697, 1587, 1888, 1029, 2059, 1224, 2911, 1456, 4000, 1335, 944]	14	Present	NA	NA	PRESENT	0.3693089485168457	140.66376900672913	142.6691689491272	143.95284986495972	144.302964925766	146.78030395507812	4.111135005950928	[140.67773485183716, 140.79466199874878, 141.77902793884277, 141.94578003883362, 142.69656586647034, 142.81328988075256, 142.93025994300842, 143.0468349456787, 143.16388392448425, 143.28051090240479, 143.58227682113647, 143.59896397590637, 143.63245487213135, 143.74940395355225, 143.86604690551758, 143.9832968711853, 144.09983491897583, 144.21659898757935, 144.3335280418396, 144.4502818584442, 144.56692385673523, 144.78030395507812]	[140.67643428700686, 140.79310095367353, 141.77610095367353, 141.94280095367353, 142.69280095367353, 142.8094676203402, 142.92613428700687, 143.04280095367355, 143.15946762034022, 143.2761342870069, 143.39280095367357, 143.50946762034025, 143.62613428700692, 143.7428009536736, 143.85946762034027, 143.97613428700694, 144.09280095367362, 144.2094676203403, 144.32613428700697, 144.44280095367364, 144.5594676203403, 144.79280095367363]	2020_Nov_27_1348	59.95777243143023	1	1
7	25	FALSE	NN	v	['C', 'T', 'H', 'Y', 'S', 'W', 'J', 'B', 'U', 'R', 'E', 'N', 'K', 'G', 'A', 'Z']	[829, 1888, 986, 2670, 1731, 2448, 1029, 760, 2059, 1587, 904, 1335, 1122, 944, 697, 2911]	14	Absent	NA	NA	ABSENT	0.36657190322875977	146.77186799049375	148.78567481040955	150.06920790672302	150.4192018508911	152.89666986465454	4.110995054244995	[146.7858328819275, 146.9026529788971, 147.88708400726318, 148.05394101142883, 148.82139682769775, 148.92150282859802, 149.03829097747803, 149.1550259590149, 149.271831035614, 149.38865995407104, 149.50547289848328, 149.62228083610535, 149.7390170097351, 149.8558428287506, 149.9726059436798, 150.08943891525269, 150.2061848640442, 150.3230538368225, 150.43973803520203, 150.55671286582947, 150.67344498634338, 150.89666986465454]	[146.79280095367363, 146.9094676203403, 147.8924676203403, 148.0591676203403, 148.8091676203403, 148.92583428700698, 149.04250095367365, 149.15916762034033, 149.275834287007, 149.39250095367368, 149.50916762034035, 149.62583428700702, 149.7425009536737, 149.85916762034037, 149.97583428700705, 150.09250095367372, 150.2091676203404, 150.32583428700707, 150.44250095367374, 150.55916762034042, 150.6758342870071, 150.9091676203404]	2020_Nov_27_1348	59.95777243143023	1	1
7	26	FALSE	AA	v	['C', 'U', 'A', 'K', 'surprise', 'W', 'Y', 'X', 'E', 'V', 'J', 'N', 'M', 'B', 'R', 'S']	[829, 2059, 697, 1122, 'stimAuditory/all_stimAuditory/109.wav', 2448, 2670, 4000, 904, 2245, 1029, 1335, 1224, 760, 1587, 1731]	8	Present	stimAuditory/all_stimAuditory/104.wav	stimVisual/all_stimVisual/113.jpg	PRESENT	0.35503697395324707	152.8953139781952	154.9021279811859	155.48569893836975	155.835590839386	159.01303696632385	4.1109089851379395	[152.9092779159546, 153.02606391906738, 154.01066303253174, 154.17729902267456, 154.92802596092224, 155.0448169708252, 155.1617169380188, 155.27835702896118, 155.39503693580627, 155.5120439529419, 155.62883496284485, 155.7455940246582, 155.8624668121338, 155.97924184799194, 156.09611082077026, 156.21278190612793, 156.32964897155762, 156.4464988708496, 156.56326699256897, 156.6799898147583, 156.79672503471375, 157.01303696632385]	[152.9091676203404, 153.0258342870071, 154.0088342870071, 154.17553428700708, 154.92553428700708, 155.04220095367376, 155.15886762034043, 155.2755342870071, 155.39220095367378, 155.50886762034045, 155.62553428700713, 155.7422009536738, 155.85886762034048, 155.97553428700715, 156.09220095367382, 156.2088676203405, 156.32553428700717, 156.44220095367385, 156.55886762034052, 156.6755342870072, 156.79220095367387, 157.0255342870072]	2020_Nov_27_1348	59.95777243143023	1	1
7	27	FALSE	NV	v	['A', 'C', 'G', 'Y', 'K', 'R', 'U', 'T', 'N', 'B', 'X', 'E', 'M', 'V', 'W', 'S']	[697, 829, 944, 2670, 1122, 1587, 2059, 1888, 1335, 760, 4000, 904, 1224, 2245, 2448, 1731]	11	Present	NA	NA	PRESENT	0.1763148307800293	159.01851797103882	161.01806688308716	161.95197296142578	162.30215501785278	165.12940287590027	4.11133599281311	[159.03248286247253, 159.14924097061157, 160.1338939666748, 160.30060291290283, 161.05138993263245, 161.16810703277588, 161.28477787971497, 161.40154194831848, 161.5185878276825, 161.6352939605713, 161.75196981430054, 161.86883783340454, 161.985533952713, 162.10244488716125, 162.2191560268402, 162.33609890937805, 162.45281386375427, 162.56975984573364, 162.6865358352661, 162.80308890342712, 162.9031698703766, 163.12940382957458]	[159.0255342870072, 159.14220095367386, 160.12520095367387, 160.29190095367386, 161.04190095367386, 161.15856762034053, 161.2752342870072, 161.39190095367388, 161.50856762034056, 161.62523428700723, 161.7419009536739, 161.85856762034058, 161.97523428700725, 162.09190095367393, 162.2085676203406, 162.32523428700728, 162.44190095367395, 162.55856762034063, 162.6752342870073, 162.79190095367397, 162.90856762034065, 163.14190095367397]	2020_Nov_27_1348	59.95777243143023	1	1
7	28	FALSE	NN	v	['E', 'Z', 'K', 'C', 'U', 'Y', 'B', 'R', 'N', 'T', 'J', 'P', 'M', 'G', 'A', 'H']	[904, 2911, 1122, 829, 2059, 2670, 760, 1587, 1335, 1888, 1029, 1456, 1224, 944, 697, 986]	13	Absent	NA	NA	ABSENT	0.7809350490570068	165.1255009174347	167.13469290733337	168.30154085159302	168.65179681777954	171.24576997756958	4.111077070236206	[165.139466047287, 165.25568795204163, 166.2402708530426, 166.40690183639526, 167.1578450202942, 167.2745418548584, 167.39149403572083, 167.5081980228424, 167.62510895729065, 167.7419068813324, 167.8586769104004, 167.97534704208374, 168.09222197532654, 168.20898389816284, 168.32558488845825, 168.4425609111786, 168.5593729019165, 168.6761770248413, 168.7928078174591, 168.90971398353577, 169.0266559123993, 169.24576902389526]	[165.14190095367397, 165.25856762034064, 166.24156762034065, 166.40826762034064, 167.15826762034064, 167.2749342870073, 167.391600953674, 167.50826762034066, 167.62493428700733, 167.741600953674, 167.85826762034068, 167.97493428700736, 168.09160095367403, 168.2082676203407, 168.32493428700738, 168.44160095367405, 168.55826762034073, 168.6749342870074, 168.79160095367408, 168.90826762034075, 169.02493428700743, 169.25826762034075]	2020_Nov_27_1348	59.95777243143023	1	1
7	29	FALSE	NA	v	['A', 'S', 'Y', 'E', 'W', 'R', 'H', 'G', 'Z', 'X', 'U', 'T', 'N', 'M', 'P', 'K']	[697, 1731, 2670, 904, 2448, 1587, 986, 944, 2911, 4000, 2059, 1888, 1335, 1224, 1456, 1122]	10	Present	NA	NA	PRESENT	0.23345398902893064	171.2483789920807	173.25093388557434	174.0678749084473	174.41814994812012	177.3621368408203	4.111202955245972	[171.2623438835144, 171.37892484664917, 172.36336398124695, 172.53033900260925, 173.28103685379028, 173.39787888526917, 173.51451683044434, 173.63153386116028, 173.74811482429504, 173.86510181427002, 173.98166799545288, 174.09864783287048, 174.2152488231659, 174.33231687545776, 174.44893598556519, 174.56570887565613, 174.6825840473175, 174.79943704605103, 174.91608381271362, 175.03339004516602, 175.14976501464844, 175.362135887146]	[171.25826762034075, 171.37493428700742, 172.35793428700742, 172.52463428700742, 173.27463428700742, 173.3913009536741, 173.50796762034076, 173.62463428700744, 173.7413009536741, 173.8579676203408, 173.97463428700746, 174.09130095367414, 174.2079676203408, 174.32463428700748, 174.44130095367416, 174.55796762034083, 174.6746342870075, 174.79130095367418, 174.90796762034086, 175.02463428700753, 175.1413009536742, 175.37463428700752]	2020_Nov_27_1348	59.95777243143023	1	1
7	30	FALSE	NA	v	['K', 'U', 'Z', 'A', 'G', 'T', 'P', 'R', 'E', 'C', 'S', 'M', 'N', 'X', 'W', 'H']	[1122, 2059, 2911, 697, 944, 1888, 1456, 1587, 904, 829, 1731, 1224, 1335, 4000, 2448, 986]	14	Present	NA	NA	PRESENT	0.28681397438049316	177.35473680496216	179.36707496643066	180.65086579322815	181.00114178657532	183.4785039424896	4.11142897605896	[177.36870002746582, 177.48553490638733, 178.47005581855774, 178.63674783706665, 179.4042730331421, 179.50438690185547, 179.6212010383606, 179.73778796195984, 179.8546450138092, 179.97145104408264, 180.08819198608398, 180.20503282546997, 180.32200694084167, 180.43866300582886, 180.55562686920166, 180.67238187789917, 180.78905296325684, 180.90589499473572, 181.02262496948242, 181.13956904411316, 181.25621485710144, 181.47850489616394]	[177.37463428700752, 177.4913009536742, 178.4743009536742, 178.6410009536742, 179.3910009536742, 179.50766762034087, 179.62433428700754, 179.74100095367422, 179.8576676203409, 179.97433428700757, 180.09100095367424, 180.2076676203409, 180.3243342870076, 180.44100095367426, 180.55766762034094, 180.6743342870076, 180.79100095367428, 180.90766762034096, 181.02433428700763, 181.1410009536743, 181.25766762034098, 181.4910009536743]	2020_Nov_27_1348	59.95777243143023	1	1
7	31	FALSE	NN	v	['J', 'H', 'Y', 'C', 'T', 'B', 'S', 'N', 'V', 'U', 'G', 'E', 'A', 'P', 'Z', 'R']	[1029, 986, 2670, 829, 1888, 760, 1731, 1335, 2245, 2059, 944, 904, 697, 1456, 2911, 1587]	8	Absent	NA	NA	ABSENT	0.4595010280609131	183.47810983657837	185.48362183570865	186.06739783287048	186.41721487045288	189.59486985206604	4.111248016357422	[183.49207496643066, 183.60879492759705, 184.59317183494568, 184.76019501686096, 185.51122498512268, 185.62772703170776, 185.74448204040527, 185.86128091812134, 185.97802186012268, 186.09487295150757, 186.2116458415985, 186.3285448551178, 186.44503498077393, 186.56212282180786, 186.6787338256836, 186.79560899734497, 186.91245889663696, 187.02898693084717, 187.145849943161, 187.26283884048462, 187.3796739578247, 187.59486985206604]	[183.4910009536743, 183.60766762034098, 184.59066762034098, 184.75736762034097, 185.50736762034097, 185.62403428700765, 185.74070095367432, 185.857367620341, 185.97403428700767, 186.09070095367434, 186.20736762034102, 186.3240342870077, 186.44070095367437, 186.55736762034104, 186.67403428700771, 186.7907009536744, 186.90736762034106, 187.02403428700774, 187.1407009536744, 187.25736762034109, 187.37403428700776, 187.60736762034108]	2020_Nov_27_1348	59.95777243143023	1	1
7	32	FALSE	NA	v	['W', 'U', 'Y', 'T', 'N', 'G', 'E', 'Z', 'K', 'R', 'B', 'X', 'M', 'H', 'S', 'A']	[2448, 2059, 2670, 1888, 1335, 944, 904, 2911, 1122, 1587, 760, 4000, 1224, 986, 1731, 697]	12	Present	NA	NA	ABSENT	1.6165368556976318	189.6014149188995	191.60007190704343	192.6504499912262	193.00093698501587	195.71123600006104	4.111164093017578	[189.61539101600647, 189.73211789131165, 190.69960689544678, 190.86644983291626, 191.6340458393097, 191.75107288360596, 191.8677179813385, 191.98490381240845, 192.10121703147888, 192.21801686286926, 192.3348560333252, 192.4516408443451, 192.5684199333191, 192.6850688457489, 192.80191588401794, 192.90199899673462, 193.03587889671326, 193.13553285598755, 193.2524218559265, 193.3691439628601, 193.48620200157166, 193.71123600006104]	[189.60736762034108, 189.72403428700775, 190.70703428700776, 190.87373428700775, 191.62373428700775, 191.74040095367442, 191.8570676203411, 191.97373428700777, 192.09040095367445, 192.20706762034112, 192.3237342870078, 192.44040095367447, 192.55706762034114, 192.67373428700782, 192.7904009536745, 192.90706762034117, 193.02373428700784, 193.14040095367451, 193.2570676203412, 193.37373428700786, 193.49040095367454, 193.72373428700786]	2020_Nov_27_1348	59.95777243143023	1	1
7	33	FALSE	AA	v	['Y', 'B', 'R', 'Z', 'P', 'H', 'A', 'G', 'V', 'surprise', 'E', 'C', 'X', 'J', 'K', 'W']	[2670, 760, 1587, 2911, 1456, 986, 697, 944, 2245, 'stimAuditory/all_stimAuditory/203.wav', 904, 829, 4000, 1029, 1122, 2448]	13	Present	stimAuditory/all_stimAuditory/122.wav	stimVisual/all_stimVisual/206.jpg	PRESENT	0.1573188304901123	195.7080318927765	197.71617889404297	198.88331985473633	199.23326301574707	201.82760286331177	4.111423969268799	[195.7219958305359, 195.83856582641602, 196.82293391227722, 196.98984789848328, 197.74066281318665, 197.85747599601746, 197.9743058681488, 198.09103798866272, 198.2078559398651, 198.32454800605774, 198.44144582748413, 198.5582070350647, 198.67485690116882, 198.80855202674866, 198.90866589546204, 199.02526092529297, 199.14207983016968, 199.2591278553009, 199.3756890296936, 199.4924988746643, 199.60928297042847, 199.82760190963745]	[195.72373428700786, 195.84040095367453, 196.82340095367454, 196.99010095367453, 197.74010095367453, 197.8567676203412, 197.97343428700788, 198.09010095367455, 198.20676762034122, 198.3234342870079, 198.44010095367457, 198.55676762034125, 198.67343428700792, 198.7901009536746, 198.90676762034127, 199.02343428700794, 199.14010095367462, 199.2567676203413, 199.37343428700797, 199.49010095367464, 199.60676762034132, 199.84010095367464]	2020_Nov_27_1348	59.95777243143023	1	1
7	34	FALSE	NN	v	['T', 'G', 'E', 'M', 'A', 'U', 'R', 'N', 'Z', 'Y', 'W', 'C', 'V', 'P', 'J', 'S']	[1888, 944, 904, 1224, 697, 2059, 1587, 1335, 2911, 2670, 2448, 829, 2245, 1456, 1029, 1731]	13	Absent	NA	NA	ABSENT	0.4427759647369385	201.83125281333923	203.8327958583832	204.99995183944705	205.3497319221497	207.94396996498108	4.1111741065979	[201.8452169895172, 201.96182703971863, 202.94629287719727, 203.1130850315094, 203.86388301849365, 203.98066091537476, 204.09758496284485, 204.2143108844757, 204.33109092712402, 204.44775295257568, 204.5645580291748, 204.68140387535095, 204.79835987091064, 204.91508889198303, 205.03201389312744, 205.14872002601624, 205.26544189453125, 205.38226795196533, 205.49892401695251, 205.61572885513306, 205.7158169746399, 205.94396901130676]	[201.84010095367464, 201.9567676203413, 202.9397676203413, 203.1064676203413, 203.8564676203413, 203.97313428700798, 204.08980095367465, 204.20646762034133, 204.323134287008, 204.43980095367468, 204.55646762034135, 204.67313428700803, 204.7898009536747, 204.90646762034137, 205.02313428700805, 205.13980095367472, 205.2564676203414, 205.37313428700807, 205.48980095367475, 205.60646762034142, 205.7231342870081, 205.9564676203414]	2020_Nov_27_1348	59.95777243143023	1	1
7	35	FALSE	NA	v	['E', 'U', 'N', 'J', 'M', 'B', 'Z', 'W', 'X', 'T', 'R', 'G', 'A', 'Y', 'V', 'K']	[904, 2059, 1335, 1029, 1224, 760, 2911, 2448, 4000, 1888, 1587, 944, 697, 2670, 2245, 1122]	9	Present	NA	NA	PRESENT	1.0551819801330566	207.93770098686215	209.9488170146942	210.6495440006256	210.99973678588867	214.0603368282318	4.111519813537598	[207.9516658782959, 208.06826400756836, 209.05276489257812, 209.21978187561035, 209.97033381462097, 210.08717584609985, 210.20387482643127, 210.32070589065552, 210.43754386901855, 210.55429196357727, 210.67115187644958, 210.78790283203125, 210.90480399131775, 211.02156901359558, 211.13822102546692, 211.2551908493042, 211.37181091308594, 211.48867988586426, 211.60544681549072, 211.72242999076843, 211.83914589881897, 212.0603380203247]	[207.9564676203414, 208.0731342870081, 209.0561342870081, 209.22283428700808, 209.97283428700808, 210.08950095367476, 210.20616762034143, 210.3228342870081, 210.43950095367478, 210.55616762034145, 210.67283428700813, 210.7895009536748, 210.90616762034148, 211.02283428700815, 211.13950095367483, 211.2561676203415, 211.37283428700817, 211.48950095367485, 211.60616762034152, 211.7228342870082, 211.83950095367487, 212.0728342870082]	2020_Nov_27_1348	59.95777243143023	1	1
7	36	FALSE	NV	v	['U', 'J', 'A', 'W', 'B', 'Z', 'T', 'C', 'H', 'R', 'X', 'K', 'Y', 'M', 'E', 'S']	[2059, 1029, 697, 2448, 760, 2911, 1888, 829, 986, 1587, 4000, 1122, 2670, 1224, 904, 1731]	11	Present	NA	NA	PRESENT	0.13969016075134277	214.06104493141177	216.06544184684753	216.99916791915896	217.3490779399872	220.1767029762268	4.1112611293792725	[214.07500886917114, 214.1916229724884, 215.17627596855164, 215.34278893470764, 216.09375596046448, 216.21046781539917, 216.32734203338623, 216.44417095184326, 216.5608148574829, 216.67775702476501, 216.79424691200256, 216.91125392913818, 217.0278558731079, 217.1449329853058, 217.26164984703064, 217.37837290763855, 217.49503684043884, 217.61201786994934, 217.72875094413757, 217.8456528186798, 217.96244287490845, 218.1767020225525]	[214.0728342870082, 214.18950095367487, 215.17250095367487, 215.33920095367486, 216.08920095367486, 216.20586762034154, 216.3225342870082, 216.43920095367488, 216.55586762034156, 216.67253428700823, 216.7892009536749, 216.90586762034158, 217.02253428700826, 217.13920095367493, 217.2558676203416, 217.37253428700828, 217.48920095367495, 217.60586762034163, 217.7225342870083, 217.83920095367498, 217.95586762034165, 218.18920095367497]	2020_Nov_27_1348	59.95777243143023	1	1
7	37	FALSE	NV	v	['B', 'U', 'G', 'P', 'S', 'M', 'T', 'X', 'J', 'N', 'C', 'V', 'H', 'K', 'W', 'Z']	[760, 2059, 944, 1456, 1731, 1224, 1888, 4000, 1029, 1335, 829, 2245, 986, 1122, 2448, 2911]	8	Present	NA	NA	PRESENT	0.5928859710693359	220.18416500091553	222.18208193778992	222.76591300964355	223.1155309677124	226.2930698394775	4.110987901687622	[220.19812893867493, 220.2980170249939, 221.28242182731628, 221.44944381713867, 222.21680092811584, 222.333753824234, 222.43374300003052, 222.55051684379578, 222.6672248840332, 222.8009388446808, 222.90085887908936, 223.01762104034424, 223.1343970298767, 223.25120902061462, 223.36793994903564, 223.48476886749268, 223.60154604911804, 223.71854496002197, 223.835186958313, 223.95198392868042, 224.06884384155273, 224.29306983947754]	[220.18920095367497, 220.30586762034164, 221.28886762034165, 221.45556762034164, 222.20556762034164, 222.3222342870083, 222.438900953675, 222.55556762034166, 222.67223428700834, 222.788900953675, 222.90556762034169, 223.02223428700836, 223.13890095367503, 223.2555676203417, 223.37223428700838, 223.48890095367506, 223.60556762034173, 223.7222342870084, 223.83890095367508, 223.95556762034175, 224.07223428700843, 224.30556762034175]	2020_Nov_27_1348	59.95777243143023	1	1
7	38	FALSE	NV	v	['S', 'B', 'G', 'R', 'U', 'Z', 'K', 'X', 'Y', 'V', 'J', 'T', 'M', 'E', 'P', 'C']	[1731, 760, 944, 1587, 2059, 2911, 1122, 4000, 2670, 2245, 1029, 1888, 1224, 904, 1456, 829]	8	Present	NA	NA	ABSENT	0.3817260265350342	226.2911159992218	228.2983479499817	228.88188886642456	229.231773853302	232.40943694114685	4.111088991165161	[226.3050799369812, 226.4213650226593, 227.40575098991394, 227.57274794578552, 228.32345700263977, 228.4402859210968, 228.5569109916687, 228.67387104034424, 228.79055404663086, 228.90746593475342, 229.0239748954773, 229.14109683036804, 229.2577929496765, 229.37454986572266, 229.4913740158081, 229.60812497138977, 229.72494387626648, 229.8418550491333, 229.95842504501343, 230.0755259990692, 230.19208884239197, 230.40943598747253]	[226.30556762034175, 226.42223428700842, 227.40523428700843, 227.57193428700842, 228.32193428700842, 228.4386009536751, 228.55526762034177, 228.67193428700844, 228.78860095367511, 228.9052676203418, 229.02193428700846, 229.13860095367514, 229.2552676203418, 229.3719342870085, 229.48860095367516, 229.60526762034183, 229.7219342870085, 229.83860095367518, 229.95526762034186, 230.07193428700853, 230.1886009536752, 230.42193428700853]	2020_Nov_27_1348	59.95777243143023	1	1
7	39	FALSE	NV	v	['Z', 'T', 'H', 'P', 'R', 'G', 'A', 'E', 'U', 'V', 'B', 'K', 'M', 'X', 'Y', 'S']	[2911, 1888, 986, 1456, 1587, 944, 697, 904, 2059, 2245, 760, 1122, 1224, 4000, 2670, 1731]	14	Present	NA	NA	PRESENT	1.7068150043487549	232.41401481628415	234.41445684432983	235.698157787323	236.04825282096863	238.52580404281616	4.111347198486328	[232.42797899246216, 232.5446708202362, 233.5290768146515, 233.69570803642273, 234.44657683372498, 234.56363081932068, 234.68037700653076, 234.7972378730774, 234.91383600234985, 235.03081893920898, 235.14746594429016, 235.26411890983582, 235.38117003440857, 235.49763989448547, 235.61461400985718, 235.7315149307251, 235.84814286231995, 235.96552395820618, 236.08189487457275, 236.19845294952393, 236.29858899116516, 236.52580404281616]	[232.42193428700853, 232.5386009536752, 233.5216009536752, 233.6883009536752, 234.4383009536752, 234.55496762034187, 234.67163428700854, 234.78830095367522, 234.9049676203419, 235.02163428700857, 235.13830095367524, 235.25496762034192, 235.3716342870086, 235.48830095367526, 235.60496762034194, 235.7216342870086, 235.8383009536753, 235.95496762034196, 236.07163428700864, 236.1883009536753, 236.30496762034198, 236.5383009536753]	2020_Nov_27_1348	59.95777243143023	1	1
7	40	FALSE	NA	v	['K', 'M', 'A', 'H', 'N', 'R', 'T', 'P', 'J', 'X', 'Z', 'C', 'S', 'Y', 'U', 'E']	[1122, 1224, 697, 986, 1335, 1587, 1888, 1456, 1029, 4000, 2911, 829, 1731, 2670, 2059, 904]	10	Present	NA	NA	PRESENT	0.34334897994995117	238.52060198783877	240.53104496002197	241.3482367992401	241.6978828907013	244.64216995239255	4.1111249923706055	[238.53456592559814, 238.65117001533508, 239.63545894622803, 239.8024778366089, 240.55307388305664, 240.67004489898682, 240.78677082061768, 240.9036979675293, 241.02051782608032, 241.13731789588928, 241.2539358139038, 241.3708598613739, 241.4874439239502, 241.60442900657654, 241.72104501724243, 241.8379259109497, 241.95464992523193, 242.0716109275818, 242.18837904930115, 242.30508589744568, 242.42182683944702, 242.64216995239258]	[238.5383009536753, 238.65496762034198, 239.63796762034198, 239.80466762034197, 240.55466762034197, 240.67133428700865, 240.78800095367532, 240.904667620342, 241.02133428700867, 241.13800095367534, 241.25466762034202, 241.3713342870087, 241.48800095367537, 241.60466762034204, 241.72133428700872, 241.8380009536754, 241.95466762034206, 242.07133428700874, 242.1880009536754, 242.3046676203421, 242.42133428700876, 242.65466762034208]	2020_Nov_27_1348	59.95777243143023	1	1
7	41	FALSE	AA	v	['J', 'Z', 'A', 'W', 'N', 'Y', 'surprise', 'E', 'B', 'X', 'P', 'G', 'C', 'H', 'R', 'K']	[1029, 2911, 697, 2448, 1335, 2670, 'stimAuditory/all_stimAuditory/106.wav', 904, 760, 4000, 1456, 944, 829, 986, 1587, 1122]	10	Present	stimAuditory/all_stimAuditory/109.wav	stimVisual/all_stimVisual/102.jpg	PRESENT	0.41997599601745605	244.64373898506165	246.64716482162476	247.46444988250732	247.81451082229617	250.758535861969	4.111371040344238	[244.65770292282104, 244.77457189559937, 245.75892782211304, 245.9257528781891, 246.67684197425842, 246.7932939529419, 246.90992784500122, 247.02701783180237, 247.14353704452515, 247.26033902168274, 247.3772258758545, 247.49391794204712, 247.61070585250854, 247.72741794586182, 247.84434700012207, 247.9612329006195, 248.07800483703613, 248.19467687606812, 248.31166887283325, 248.42828702926636, 248.54530501365662, 248.7585368156433]	[244.65466762034208, 244.77133428700876, 245.75433428700876, 245.92103428700875, 246.67103428700875, 246.78770095367543, 246.9043676203421, 247.02103428700877, 247.13770095367545, 247.25436762034212, 247.3710342870088, 247.48770095367547, 247.60436762034215, 247.72103428700882, 247.8377009536755, 247.95436762034217, 248.07103428700884, 248.18770095367552, 248.3043676203422, 248.42103428700887, 248.53770095367554, 248.77103428700886]	2020_Nov_27_1348	59.95777243143023	1	1
7	42	FALSE	NN	v	['S', 'U', 'H', 'B', 'A', 'G', 'C', 'R', 'E', 'P', 'K', 'T', 'W', 'Z', 'M', 'V']	[1731, 2059, 986, 760, 697, 944, 829, 1587, 904, 1456, 1122, 1888, 2448, 2911, 1224, 2245]	11	Absent	NA	NA	ABSENT	0.28904104232788086	250.75008893013	252.7634289264679	253.69733691215515	254.04760479927063	256.8749039173126	4.111474990844727	[250.7640528678894, 250.88088202476501, 251.86527585983276, 252.0322630405426, 252.79991602897644, 252.8997619152069, 253.01652598381042, 253.133309841156, 253.2500388622284, 253.3668520450592, 253.48372292518616, 253.6003909111023, 253.71743297576904, 253.8341088294983, 253.9508719444275, 254.06777691841125, 254.18446493148804, 254.30148601531982, 254.41799402236938, 254.5349259376526, 254.65166687965393, 254.8749029636383]	[250.77103428700886, 250.88770095367553, 251.87070095367554, 252.03740095367553, 252.78740095367553, 252.9040676203422, 253.02073428700888, 253.13740095367555, 253.25406762034223, 253.3707342870089, 253.48740095367558, 253.60406762034225, 253.72073428700892, 253.8374009536756, 253.95406762034227, 254.07073428700895, 254.18740095367562, 254.3040676203423, 254.42073428700897, 254.53740095367564, 254.65406762034232, 254.88740095367564]	2020_Nov_27_1348	59.95777243143023	1	1
7	43	FALSE	NN	v	['R', 'Y', 'G', 'W', 'M', 'S', 'Z', 'N', 'C', 'V', 'U', 'K', 'T', 'H', 'B', 'J']	[1587, 2670, 944, 2448, 1224, 1731, 2911, 1335, 829, 2245, 2059, 1122, 1888, 986, 760, 1029]	12	Absent	NA	NA	ABSENT	0.4139671325683594	256.87373399734497	258.8801498413086	259.9308638572693	260.2804479598999	262.99126982688904	4.111119985580444	[256.8876988887787, 257.00431394577026, 257.988657951355, 258.15536403656006, 258.90626192092896, 259.0230429172516, 259.1397759914398, 259.2566668987274, 259.37340903282166, 259.49016785621643, 259.60688304901123, 259.7239639759064, 259.84054493904114, 259.9572470188141, 260.0741639137268, 260.1910629272461, 260.3077199459076, 260.424556016922, 260.5412669181824, 260.65802788734436, 260.7749378681183, 260.99127197265625]	[256.88740095367564, 257.0040676203423, 257.9870676203423, 258.1537676203423, 258.9037676203423, 259.020434287009, 259.13710095367566, 259.25376762034233, 259.370434287009, 259.4871009536757, 259.60376762034235, 259.720434287009, 259.8371009536757, 259.9537676203424, 260.07043428700905, 260.1871009536757, 260.3037676203424, 260.4204342870091, 260.53710095367575, 260.6537676203424, 260.7704342870091, 261.00376762034244]	2020_Nov_27_1348	59.95777243143023	1	1
7	44	FALSE	VV	v	['B', 'M', 'E', 'G', 'Y', 'S', 'J', 'surprise', 'K', 'A', 'X', 'P', 'U', 'V', 'T', 'H']	[760, 1224, 904, 944, 2670, 1731, 1029, 'stimAuditory/all_stimAuditory/215.wav', 1122, 697, 4000, 1456, 2059, 2245, 1888, 986]	11	Present	NA	stimVisual/all_stimVisual/216.jpg	PRESENT	0.1391899585723877	262.9966537952423	264.99670791625977	265.9302318096161	266.280179977417	269.10763692855835	4.110929012298584	[263.0106189250946, 263.1275520324707, 264.1119499206543, 264.2785120010376, 265.02944588661194, 265.1462309360504, 265.2632369995117, 265.3798270225525, 265.49664282798767, 265.6133439540863, 265.73051500320435, 265.84719800949097, 265.96419882774353, 266.0805199146271, 266.19735884666443, 266.3142819404602, 266.4310338497162, 266.547739982605, 266.66468691825867, 266.7814300060272, 266.8813889026642, 267.10763788223267]	[263.00376762034244, 263.1204342870091, 264.1034342870091, 264.2701342870091, 265.0201342870091, 265.1368009536758, 265.25346762034246, 265.37013428700914, 265.4868009536758, 265.6034676203425, 265.72013428700916, 265.83680095367583, 265.9534676203425, 266.0701342870092, 266.18680095367586, 266.30346762034253, 266.4201342870092, 266.5368009536759, 266.65346762034255, 266.7701342870092, 266.8868009536759, 267.12013428700925]	2020_Nov_27_1348	59.95777243143023	1	1
7	45	FALSE	NN	v	['P', 'H', 'K', 'A', 'M', 'V', 'W', 'T', 'C', 'S', 'Z', 'B', 'Y', 'G', 'U', 'R']	[1456, 986, 1122, 697, 1224, 2245, 2448, 1888, 829, 1731, 2911, 760, 2670, 944, 2059, 1587]	9	Absent	NA	NA	ABSENT	0.4795858860015869	269.1034128665924	271.1128988265991	271.81316781044006	272.16298484802246	275.22400403022766	4.11110520362854	[269.1173770427704, 269.2339859008789, 270.21839785575867, 270.3852698802948, 271.13596987724304, 271.2528829574585, 271.3695909976959, 271.4863338470459, 271.6033239364624, 271.7200050354004, 271.8368978500366, 271.953950881958, 272.0702488422394, 272.1872458457947, 272.30394101142883, 272.42078590393066, 272.5374798774719, 272.6543869972229, 272.7711389064789, 272.88808488845825, 273.0047948360443, 273.22400283813477]	[269.12013428700925, 269.2368009536759, 270.21980095367593, 270.3865009536759, 271.1365009536759, 271.2531676203426, 271.36983428700927, 271.48650095367594, 271.6031676203426, 271.7198342870093, 271.83650095367597, 271.95316762034264, 272.0698342870093, 272.186500953676, 272.30316762034266, 272.41983428700934, 272.536500953676, 272.6531676203427, 272.76983428700936, 272.88650095367603, 273.0031676203427, 273.23650095367606]	2020_Nov_27_1348	59.95777243143023	1	1
7	46	FALSE	NN	v	['A', 'R', 'V', 'H', 'G', 'E', 'J', 'Z', 'U', 'M', 'Y', 'S', 'N', 'T', 'W', 'K']	[697, 1587, 2245, 986, 944, 904, 1029, 2911, 2059, 1224, 2670, 1731, 1335, 1888, 2448, 1122]	9	Absent	NA	NA	ABSENT	0.4523909091949463	275.2264988422394	277.22903394699097	277.9295058250427	278.27956891059875	281.34036898612976	4.111335039138794	[275.2404639720917, 275.35724687576294, 276.3420510292053, 276.50834798812866, 277.2592978477478, 277.376179933548, 277.4928059577942, 277.60971903800964, 277.72636103630066, 277.8432309627533, 277.96010398864746, 278.07692790031433, 278.1936559677124, 278.310271024704, 278.42733693122864, 278.5440468788147, 278.6608409881592, 278.7774648666382, 278.8944869041443, 279.0112009048462, 279.12804985046387, 279.3403699398041]	[275.23650095367606, 275.35316762034273, 276.33616762034274, 276.5028676203427, 277.2528676203427, 277.3695342870094, 277.4862009536761, 277.60286762034275, 277.7195342870094, 277.8362009536761, 277.9528676203428, 278.06953428700945, 278.1862009536761, 278.3028676203428, 278.41953428700947, 278.53620095367614, 278.6528676203428, 278.7695342870095, 278.88620095367617, 279.00286762034284, 279.1195342870095, 279.35286762034286]	2020_Nov_27_1348	59.95777243143023	1	1
7	47	FALSE	AV	v	['V', 'Y', 'G', 'W', 'R', 'Z', 'J', 'P', 'C', 'surprise', 'T', 'M', 'X', 'A', 'S', 'N']	[2245, 2670, 944, 2448, 1587, 2911, 1029, 1456, 829, 'stimAuditory/all_stimAuditory/210.wav', 1888, 1224, 4000, 697, 1731, 1335]	13	Present	stimAuditory/all_stimAuditory/203.wav	stimVisual/all_stimVisual/201.jpg	PRESENT	0.34566593170166016	281.3331458568573	283.345321893692	284.5129728317261	284.8625109195709	287.4567370414734	4.111415147781372	[281.3471100330353, 281.46394395828247, 282.4481248855591, 282.6149048805237, 283.3824028968811, 283.4825839996338, 283.59931087493896, 283.71625995635986, 283.8328959941864, 283.9499018192291, 284.066517829895, 284.18337893486023, 284.30015802383423, 284.43347787857056, 284.53365182876587, 284.6506369113922, 284.7672748565674, 284.88426184654236, 285.0008728504181, 285.11782789230347, 285.2344889640808, 285.4567358493805]	[281.35286762034286, 281.46953428700954, 282.45253428700954, 282.61923428700953, 283.36923428700953, 283.4859009536762, 283.6025676203429, 283.71923428700956, 283.83590095367623, 283.9525676203429, 284.0692342870096, 284.18590095367625, 284.3025676203429, 284.4192342870096, 284.5359009536763, 284.65256762034295, 284.7692342870096, 284.8859009536763, 285.002567620343, 285.11923428700965, 285.2359009536763, 285.46923428700967]	2020_Nov_27_1348	59.95777243143023	1	1
7	48	FALSE	NN	v	['U', 'B', 'N', 'P', 'G', 'Y', 'R', 'Z', 'M', 'W', 'H', 'A', 'K', 'S', 'J', 'T']	[2059, 760, 1335, 1456, 944, 2670, 1587, 2911, 1224, 2448, 986, 697, 1122, 1731, 1029, 1888]	9	Absent	NA	NA	ABSENT	0.3180239200592041	287.4565348625183	289.4618709087372	290.1621558666229	290.51225090026855	293.5731029510498	4.111232042312622	[287.4704999923706, 287.5869929790497, 288.57154083251953, 288.7383379936218, 289.48893785476685, 289.6059489250183, 289.72263503074646, 289.83957695961, 289.95616483688354, 290.07310795783997, 290.18982195854187, 290.3067400455475, 290.42337584495544, 290.5403299331665, 290.6570520401001, 290.77381896972656, 290.89057183265686, 291.0073869228363, 291.1241879463196, 291.2410399913788, 291.35779190063477, 291.5731029510498]	[287.46923428700967, 287.58590095367634, 288.56890095367635, 288.73560095367634, 289.48560095367634, 289.602267620343, 289.7189342870097, 289.83560095367636, 289.95226762034304, 290.0689342870097, 290.1856009536764, 290.30226762034306, 290.41893428700973, 290.5356009536764, 290.6522676203431, 290.76893428700976, 290.88560095367643, 291.0022676203431, 291.1189342870098, 291.23560095367645, 291.3522676203431, 291.5856009536765]	2020_Nov_27_1348	59.95777243143023	1	1
7	49	FALSE	NN	v	['Y', 'Z', 'E', 'H', 'G', 'V', 'M', 'W', 'S', 'B', 'K', 'T', 'R', 'C', 'J', 'U']	[2670, 2911, 904, 986, 944, 2245, 1224, 2448, 1731, 760, 1122, 1888, 1587, 829, 1029, 2059]	13	Absent	NA	NA	ABSENT	0.4753539562225342	293.57960391044617	295.57806396484375	296.7453169822693	297.09532594680786	299.68946981430054	4.111405849456787	[293.59356904029846, 293.7103419303894, 294.67793703079224, 294.8447229862213, 295.6121950149536, 295.7291169166565, 295.84582781791687, 295.9627478122711, 296.0796558856964, 296.19635486602783, 296.31328892707825, 296.42995285987854, 296.54685401916504, 296.6635298728943, 296.78035593032837, 296.88012290000916, 296.9972879886627, 297.11380982398987, 297.2474579811096, 297.3474259376526, 297.46432304382324, 297.68946981430054]	[293.5856009536765, 293.70226762034315, 294.68526762034315, 294.85196762034315, 295.60196762034315, 295.7186342870098, 295.8353009536765, 295.95196762034317, 296.06863428700984, 296.1853009536765, 296.3019676203432, 296.41863428700987, 296.53530095367654, 296.6519676203432, 296.7686342870099, 296.88530095367656, 297.00196762034324, 297.1186342870099, 297.2353009536766, 297.35196762034326, 297.46863428700993, 297.7019676203433]	2020_Nov_27_1348	59.95777243143023	1	1
7	50	FALSE	NA	v	['M', 'V', 'A', 'P', 'J', 'G', 'S', 'K', 'H', 'U', 'R', 'N', 'X', 'C', 'T', 'Z']	[1224, 2245, 697, 1456, 1029, 944, 1731, 1122, 986, 2059, 1587, 1335, 4000, 829, 1888, 2911]	13	Present	NA	NA	PRESENT	0.28786301612854004	299.68628096580505	301.6947958469391	302.86152696609497	303.21153593063354	305.80583691596985	4.111041069030762	[299.70024490356445, 299.8168659210205, 300.8013918399811, 300.9678900241852, 301.71868681907654, 301.83567786216736, 301.95263481140137, 302.06926798820496, 302.18610882759094, 302.30292987823486, 302.4195559024811, 302.5364439487457, 302.65312099456787, 302.77013993263245, 302.8867778778076, 303.0036449432373, 303.1203570365906, 303.23723697662354, 303.3539309501648, 303.4707338809967, 303.58758091926575, 303.80583596229553]	[299.7019676203433, 299.81863428700996, 300.80163428700996, 300.96833428700995, 301.71833428700995, 301.8350009536766, 301.9516676203433, 302.06833428701, 302.18500095367665, 302.3016676203433, 302.41833428701, 302.5350009536767, 302.65166762034335, 302.76833428701, 302.8850009536767, 303.00166762034337, 303.11833428701004, 303.2350009536767, 303.3516676203434, 303.46833428701007, 303.58500095367674, 303.8183342870101]	2020_Nov_27_1348	59.95777243143023	1	1
7	51	FALSE	NN	v	['M', 'A', 'E', 'U', 'N', 'Y', 'H', 'R', 'W', 'S', 'K', 'C', 'P', 'T', 'V', 'J']	[1224, 697, 904, 2059, 1335, 2670, 986, 1587, 2448, 1731, 1122, 829, 1456, 1888, 2245, 1029]	8	Absent	NA	NA	ABSENT	0.3173489570617676	305.80925989151	307.81109285354614	308.39471197128296	308.74456691741943	311.92220282554626	4.111109972000122	[305.8232250213623, 305.94004583358765, 306.92456793785095, 307.09157490730286, 307.8421058654785, 307.95901584625244, 308.07568287849426, 308.1925759315491, 308.3093240261078, 308.4262080192566, 308.5428960323334, 308.65980792045593, 308.77655696868896, 308.89317083358765, 309.01006984710693, 309.12687492370605, 309.2435748577118, 309.36044692993164, 309.47728085517883, 309.5939450263977, 309.6939618587494, 309.92220282554626]	[305.8183342870101, 305.93500095367676, 306.91800095367677, 307.08470095367676, 307.83470095367676, 307.95136762034343, 308.0680342870101, 308.1847009536768, 308.30136762034346, 308.41803428701013, 308.5347009536768, 308.6513676203435, 308.76803428701015, 308.8847009536768, 309.0013676203435, 309.1180342870102, 309.23470095367685, 309.3513676203435, 309.4680342870102, 309.5847009536769, 309.70136762034355, 309.9347009536769]	2020_Nov_27_1348	59.95777243143023	1	1
7	52	FALSE	AA	v	['Y', 'E', 'A', 'J', 'M', 'R', 'surprise', 'G', 'V', 'X', 'S', 'U', 'Z', 'K', 'P', 'W']	[2670, 904, 697, 1029, 1224, 1587, 'stimAuditory/all_stimAuditory/115.wav', 944, 2245, 4000, 1731, 2059, 2911, 1122, 1456, 2448]	10	Present	stimAuditory/all_stimAuditory/106.wav	stimVisual/all_stimVisual/106.jpg	PRESENT	0.2338240146636963	311.91601490974426	313.9273488521576	314.7444829940796	315.09433484077454	318.0385699272156	4.111221075057983	[311.92997884750366, 312.04658794403076, 313.03107595443726, 313.1979458332062, 313.9655268192291, 314.06545901298523, 314.1821060180664, 314.2990689277649, 314.41569900512695, 314.53261399269104, 314.6661880016327, 314.76626682281494, 314.88297486305237, 314.999874830246, 315.11653900146484, 315.2334039211273, 315.35002088546753, 315.4669849872589, 315.58377981185913, 315.70057797431946, 315.81720185279846, 316.0385699272156]	[311.9347009536769, 312.05136762034357, 313.0343676203436, 313.20106762034357, 313.95106762034357, 314.06773428701024, 314.1844009536769, 314.3010676203436, 314.41773428701026, 314.53440095367694, 314.6510676203436, 314.7677342870103, 314.88440095367696, 315.00106762034363, 315.1177342870103, 315.234400953677, 315.35106762034366, 315.46773428701033, 315.584400953677, 315.7010676203437, 315.81773428701035, 316.0510676203437]	2020_Nov_27_1348	59.95777243143023	1	1
7	53	FALSE	NN	v	['N', 'P', 'Z', 'W', 'E', 'A', 'K', 'G', 'C', 'R', 'H', 'V', 'U', 'J', 'B', 'M']	[1335, 1456, 2911, 2448, 904, 697, 1122, 944, 829, 1587, 986, 2245, 2059, 1029, 760, 1224]	14	Absent	NA	NA	ABSENT	0.398190975189209	318.03936886787415	320.04356479644775	321.3274829387665	321.67856788635254	324.1549370288849	4.111372232437134	[318.0533330440521, 318.1698868274689, 319.1543769836426, 319.32100796699524, 320.0718410015106, 320.18877601623535, 320.3054449558258, 320.4223198890686, 320.5391139984131, 320.6559228897095, 320.7725558280945, 320.88950991630554, 321.0062358379364, 321.12318086624146, 321.23986291885376, 321.3565390110016, 321.47331285476685, 321.59011483192444, 321.7070608139038, 321.8236699104309, 321.9406108856201, 322.154935836792]	[318.0510676203437, 318.1677342870104, 319.1507342870104, 319.31743428701037, 320.06743428701037, 320.18410095367705, 320.3007676203437, 320.4174342870104, 320.53410095367707, 320.65076762034374, 320.7674342870104, 320.8841009536771, 321.00076762034377, 321.11743428701044, 321.2341009536771, 321.3507676203438, 321.46743428701046, 321.58410095367714, 321.7007676203438, 321.8174342870105, 321.93410095367716, 322.1674342870105]	2020_Nov_27_1348	59.95777243143023	1	1
7	54	FALSE	NV	v	['E', 'R', 'T', 'K', 'M', 'P', 'W', 'X', 'A', 'Y', 'G', 'S', 'U', 'C', 'H', 'V']	[904, 1587, 1888, 1122, 1224, 1456, 2448, 4000, 697, 2670, 944, 1731, 2059, 829, 986, 2245]	8	Present	NA	NA	PRESENT	0.14755797386169434	324.16222286224365	326.1601758003235	326.743528842926	327.09382700920105	330.271301984787	4.111126184463501	[324.17618799209595, 324.2762279510498, 325.2607409954071, 325.42751693725586, 326.1953179836273, 326.2951629161835, 326.41188192367554, 326.5454578399658, 326.64549684524536, 326.7622380256653, 326.8790748119354, 326.99580693244934, 327.11265897750854, 327.22943592071533, 327.34627389907837, 327.4630789756775, 327.5797998905182, 327.696585893631, 327.8133978843689, 327.9304790496826, 328.0470860004425, 328.2713029384613]	[324.1674342870105, 324.2841009536772, 325.2671009536772, 325.4338009536772, 326.1838009536772, 326.30046762034385, 326.4171342870105, 326.5338009536772, 326.6504676203439, 326.76713428701055, 326.8838009536772, 327.0004676203439, 327.1171342870106, 327.23380095367725, 327.3504676203439, 327.4671342870106, 327.58380095367727, 327.70046762034394, 327.8171342870106, 327.9338009536773, 328.05046762034397, 328.2838009536773]	2020_Nov_27_1348	59.95777243143023	1	1
7	55	FALSE	VA	v	['Y', 'E', 'N', 'V', 'R', 'M', 'C', 'U', 'H', 'K', 'surprise', 'G', 'A', 'X', 'J', 'T']	[2670, 904, 1335, 2245, 1587, 1224, 829, 2059, 986, 1122, 'stimAuditory/all_stimAuditory/103.wav', 944, 697, 4000, 1029, 1888]	14	Present	NA	stimVisual/all_stimVisual/117.jpg	PRESENT	0.4161629676818848	330.2689299583435	332.27632999420166	333.560094833374	333.9100329875946	336.3876700401306	4.111340045928955	[330.2828948497772, 330.3997299671173, 331.38420701026917, 331.5508198738098, 332.30151891708374, 332.41852498054504, 332.53519582748413, 332.65196990966797, 332.76896500587463, 332.88579082489014, 333.0024139881134, 333.1191840171814, 333.2360520362854, 333.35298800468445, 333.4697608947754, 333.58636498451233, 333.7032699584961, 333.8198080062866, 333.9367458820343, 334.0535988807678, 334.1704649925232, 334.3876700401306]	[330.2838009536773, 330.400467620344, 331.383467620344, 331.550167620344, 332.300167620344, 332.41683428701066, 332.53350095367733, 332.650167620344, 332.7668342870107, 332.88350095367736, 333.00016762034403, 333.1168342870107, 333.2335009536774, 333.35016762034405, 333.4668342870107, 333.5835009536774, 333.7001676203441, 333.81683428701075, 333.9335009536774, 334.0501676203441, 334.1668342870108, 334.4001676203441]	2020_Nov_27_1348	59.95777243143023	1	1
7	56	FALSE	NV	v	['Z', 'G', 'S', 'H', 'P', 'U', 'Y', 'K', 'B', 'M', 'X', 'R', 'J', 'W', 'A', 'E']	[2911, 944, 1731, 986, 1456, 2059, 2670, 1122, 760, 1224, 4000, 1587, 1029, 2448, 697, 904]	11	Present	NA	NA	PRESENT	0.49349498748779297	336.3921959400177	338.3930139541626	339.3266098499298	339.67647099494934	342.50403690338135	4.11102294921875	[336.4061598777771, 336.5230028629303, 337.50732588768005, 337.6740939617157, 338.42527985572815, 338.54173398017883, 338.658567905426, 338.7754240036011, 338.89215183258057, 339.0089900493622, 339.12567687034607, 339.2424190044403, 339.35943698883057, 339.4761278629303, 339.5929729938507, 339.7095549106598, 339.8265528678894, 339.94311690330505, 340.05991983413696, 340.1767089366913, 340.27679896354675, 340.50403690338135]	[336.4001676203441, 336.5168342870108, 337.4998342870108, 337.6665342870108, 338.4165342870108, 338.53320095367746, 338.64986762034414, 338.7665342870108, 338.8832009536775, 338.99986762034416, 339.11653428701084, 339.2332009536775, 339.3498676203442, 339.46653428701086, 339.58320095367753, 339.6998676203442, 339.8165342870109, 339.93320095367756, 340.04986762034423, 340.1665342870109, 340.2832009536776, 340.5165342870109]	2020_Nov_27_1348	59.95777243143023	1	1
7	57	FALSE	NV	v	['C', 'Z', 'M', 'S', 'G', 'J', 'R', 'Y', 'X', 'W', 'P', 'V', 'E', 'T', 'U', 'K']	[829, 2911, 1224, 1731, 944, 1029, 1587, 2670, 4000, 2448, 1456, 2245, 904, 1888, 2059, 1122]	9	Present	NA	NA	PRESENT	0.38608694076538086	342.498507976532	344.50902485847473	345.20964789390564	345.55944895744324	348.62040400505066	4.111379146575928	[342.5124728679657, 342.62943291664124, 343.6139268875122, 343.78087282180786, 344.5313079357147, 344.6483528614044, 344.76494693756104, 344.8819148540497, 344.9985158443451, 345.1156179904938, 345.2322130203247, 345.34906101226807, 345.4658670425415, 345.58269596099854, 345.6993570327759, 345.81621503829956, 345.9329340457916, 346.04973793029785, 346.1665749549866, 346.2835078239441, 346.4001770019531, 346.620404958725]	[342.5165342870109, 342.6332009536776, 343.6162009536776, 343.7829009536776, 344.5329009536776, 344.64956762034427, 344.76623428701095, 344.8829009536776, 344.9995676203443, 345.11623428701097, 345.23290095367764, 345.3495676203443, 345.466234287011, 345.58290095367767, 345.69956762034434, 345.816234287011, 345.9329009536777, 346.04956762034436, 346.16623428701104, 346.2829009536777, 346.3995676203444, 346.63290095367773]	2020_Nov_27_1348	59.95777243143023	1	1
7	58	FALSE	NV	v	['S', 'H', 'Y', 'U', 'N', 'B', 'G', 'V', 'R', 'P', 'X', 'A', 'C', 'J', 'M', 'K']	[1731, 986, 2670, 2059, 1335, 760, 944, 2245, 1587, 1456, 4000, 697, 829, 1029, 1224, 1122]	11	Present	NA	NA	PRESENT	0.39046382904052734	348.6222288608551	350.62569999694824	351.55948996543884	351.9093279838562	354.7367699146271	4.111069917678833	[348.6361939907074, 348.7526378631592, 349.73723793029785, 349.9038989543915, 350.6545879840851, 350.77152490615845, 350.88830184936523, 351.00519585609436, 351.12197399139404, 351.23868894577026, 351.355507850647, 351.47209191322327, 351.58911204338074, 351.70580196380615, 351.82271099090576, 351.93948698043823, 352.0563359260559, 352.17289686203003, 352.28981494903564, 352.40638494491577, 352.5233190059662, 352.73676896095276]	[348.63290095367773, 348.7495676203444, 349.7325676203444, 349.8992676203444, 350.6492676203444, 350.7659342870111, 350.88260095367775, 350.9992676203444, 351.1159342870111, 351.2326009536778, 351.34926762034445, 351.4659342870111, 351.5826009536778, 351.6992676203445, 351.81593428701115, 351.9326009536778, 352.0492676203445, 352.16593428701117, 352.28260095367784, 352.3992676203445, 352.5159342870112, 352.74926762034454]	2020_Nov_27_1348	59.95777243143023	1	1
7	59	FALSE	NV	v	['P', 'A', 'Z', 'U', 'W', 'C', 'Y', 'T', 'G', 'K', 'N', 'R', 'V', 'X', 'H', 'B']	[1456, 697, 2911, 2059, 2448, 829, 2670, 1888, 944, 1122, 1335, 1587, 2245, 4000, 986, 760]	14	Present	NA	NA	PRESENT	0.42801690101623535	354.72827100753784	356.7420048713684	358.0259008407593	358.37562084198	360.8531370162964	4.1111321449279785	[354.7422339916229, 354.85908699035645, 355.84353494644165, 356.0106279850006, 356.7779748439789, 356.8779149055481, 356.9946959018707, 357.1114778518677, 357.2282989025116, 357.345086812973, 357.4619309902191, 357.5786919593811, 357.69547486305237, 357.8122978210449, 357.9290978908539, 358.0463309288025, 358.1626479625702, 358.27966499328613, 358.3963258266449, 358.51319885253906, 358.62991285324097, 358.8531358242035]	[354.74926762034454, 354.8659342870112, 355.8489342870112, 356.0156342870112, 356.7656342870112, 356.8823009536779, 356.99896762034456, 357.11563428701123, 357.2323009536779, 357.3489676203446, 357.46563428701126, 357.58230095367793, 357.6989676203446, 357.8156342870113, 357.93230095367795, 358.0489676203446, 358.1656342870113, 358.282300953678, 358.39896762034465, 358.5156342870113, 358.632300953678, 358.86563428701135]	2020_Nov_27_1348	59.95777243143023	1	1
7	60	FALSE	NA	v	['J', 'R', 'W', 'E', 'P', 'K', 'T', 'C', 'H', 'A', 'B', 'X', 'Y', 'M', 'U', 'N']	[1029, 1587, 2448, 904, 1456, 1122, 1888, 829, 986, 697, 760, 4000, 2670, 1224, 2059, 1335]	12	Present	NA	NA	ABSENT	0.4563460350036621	360.8516199588776	362.858158826828	363.9085760116577	364.2587869167328	366.9695029258728	4.1113440990448	[360.86558389663696, 360.9824240207672, 361.96696186065674, 362.13367199897766, 362.8843379020691, 363.00122690200806, 363.1180489063263, 363.2348258495331, 363.35166788101196, 363.4683940410614, 363.5852358341217, 363.70219802856445, 363.8188090324402, 363.9356849193573, 364.0523889064789, 364.1693139076233, 364.28605103492737, 364.402685880661, 364.51967000961304, 364.6362600326538, 364.753298997879, 364.9695038795471]	[360.86563428701135, 360.982300953678, 361.965300953678, 362.132000953678, 362.882000953678, 362.9986676203447, 363.11533428701136, 363.23200095367804, 363.3486676203447, 363.4653342870114, 363.58200095367806, 363.69866762034474, 363.8153342870114, 363.9320009536781, 364.04866762034476, 364.16533428701143, 364.2820009536781, 364.3986676203448, 364.51533428701146, 364.63200095367813, 364.7486676203448, 364.98200095367815]	2020_Nov_27_1348	59.95777243143023	1	1
7	61	FALSE	NV	v	['H', 'Z', 'T', 'S', 'G', 'K', 'C', 'J', 'E', 'A', 'X', 'Y', 'W', 'B', 'N', 'P']	[986, 2911, 1888, 1731, 944, 1122, 829, 1029, 904, 697, 4000, 2670, 2448, 760, 1335, 1456]	11	Present	NA	NA	PRESENT	0.48571181297302246	366.97482895851135	368.9746928215027	369.90854382514954	370.2583849430084	373.0858700275421	4.111177206039429	[366.98879384994507, 367.10577297210693, 368.09043288230896, 368.25714087486267, 369.0077269077301, 369.12462997436523, 369.24145102500916, 369.35809993743896, 369.4750030040741, 369.59165501594543, 369.7085828781128, 369.82535195350647, 369.9421398639679, 370.0589129924774, 370.1755919456482, 370.2923889160156, 370.40912890434265, 370.52596402168274, 370.6428680419922, 370.7596228122711, 370.85953998565674, 371.0858700275421]	[366.98200095367815, 367.0986676203448, 368.08166762034483, 368.2483676203448, 368.9983676203448, 369.1150342870115, 369.23170095367817, 369.34836762034485, 369.4650342870115, 369.5817009536782, 369.69836762034487, 369.81503428701154, 369.9317009536782, 370.0483676203449, 370.16503428701157, 370.28170095367824, 370.3983676203449, 370.5150342870116, 370.63170095367826, 370.74836762034494, 370.8650342870116, 371.09836762034496]	2020_Nov_27_1348	59.95777243143023	1	1
7	62	FALSE	NN	v	['G', 'S', 'H', 'Z', 'M', 'K', 'E', 'T', 'B', 'Y', 'J', 'P', 'A', 'W', 'N', 'C']	[944, 1731, 986, 2911, 1224, 1122, 904, 1888, 760, 2670, 1029, 1456, 697, 2448, 1335, 829]	13	Absent	NA	NA	ABSENT	0.4023339748382568	373.0815579891205	375.09104895591736	376.25805497169495	376.6080358028412	379.2022368907929	4.111187934875488	[373.0955219268799, 373.2123098373413, 374.1968150138855, 374.36334681510925, 375.1141538619995, 375.2312259674072, 375.3477849960327, 375.4647319316864, 375.58139085769653, 375.6983058452606, 375.81501603126526, 375.93171191215515, 376.0485668182373, 376.1653678417206, 376.2822890281677, 376.399080991745, 376.51588702201843, 376.6326959133148, 376.74948382377625, 376.8662588596344, 376.9831359386444, 377.2022349834442]	[373.09836762034496, 373.21503428701163, 374.19803428701164, 374.36473428701163, 375.11473428701163, 375.2314009536783, 375.348067620345, 375.46473428701165, 375.5814009536783, 375.698067620345, 375.8147342870117, 375.93140095367835, 376.048067620345, 376.1647342870117, 376.28140095367837, 376.39806762034505, 376.5147342870117, 376.6314009536784, 376.74806762034507, 376.86473428701174, 376.9814009536784, 377.21473428701177]	2020_Nov_27_1348	59.95777243143023	1	1
7	63	FALSE	NV	v	['R', 'A', 'K', 'H', 'N', 'U', 'W', 'X', 'G', 'B', 'P', 'E', 'J', 'Z', 'S', 'V']	[1587, 697, 1122, 986, 1335, 2059, 2448, 4000, 944, 760, 1456, 904, 1029, 2911, 1731, 2245]	8	Present	NA	NA	PRESENT	0.2708110809326172	379.20503401756287	381.2072379589081	381.7910888195038	382.14154291152954	385.31860399246216	4.111366033554077	[379.21899795532227, 379.33557891845703, 380.3198878765106, 380.4868290424347, 381.2374448776245, 381.35438084602356, 381.471177816391, 381.58792781829834, 381.7047610282898, 381.8215899467468, 381.93834495544434, 382.0550239086151, 382.17193603515625, 382.28862500190735, 382.4055299758911, 382.5223009586334, 382.6392159461975, 382.7558138370514, 382.8726878166199, 382.9894938468933, 383.10617184638977, 383.31860399246216]	[379.21473428701177, 379.33140095367844, 380.31440095367844, 380.48110095367844, 381.23110095367844, 381.3477676203451, 381.4644342870118, 381.58110095367846, 381.69776762034513, 381.8144342870118, 381.9311009536785, 382.04776762034516, 382.16443428701183, 382.2811009536785, 382.3977676203452, 382.51443428701185, 382.6311009536785, 382.7477676203452, 382.8644342870119, 382.98110095367855, 383.0977676203452, 383.3311009536786]	2020_Nov_27_1348	59.95777243143023	1	1
7	64	FALSE	NV	v	['E', 'Z', 'H', 'A', 'S', 'P', 'Y', 'U', 'K', 'G', 'X', 'N', 'J', 'T', 'V', 'M']	[904, 2911, 986, 697, 1731, 1456, 2670, 2059, 1122, 944, 4000, 1335, 1029, 1888, 2245, 1224]	11	Present	NA	NA	ABSENT	0.4121990203857422	385.3111298084259	387.3237209320069	388.2574508190155	388.6075599193573	391.43496894836426	4.111248016357422	[385.3250949382782, 385.441969871521, 386.4264600276947, 386.5934579372406, 387.36079597473145, 387.4607608318329, 387.57757091522217, 387.69441294670105, 387.81119298934937, 387.92817401885986, 388.0447540283203, 388.16169691085815, 388.27832102775574, 388.3953080177307, 388.5119078159332, 388.62891387939453, 388.74553084373474, 388.86241698265076, 388.97955298423767, 389.0958638191223, 389.2127249240875, 389.4349699020386]	[385.3311009536786, 385.44776762034525, 386.43076762034525, 386.59746762034524, 387.34746762034524, 387.4641342870119, 387.5808009536786, 387.69746762034526, 387.81413428701194, 387.9308009536786, 388.0474676203453, 388.16413428701196, 388.28080095367864, 388.3974676203453, 388.514134287012, 388.63080095367866, 388.74746762034533, 388.864134287012, 388.9808009536787, 389.09746762034536, 389.21413428701203, 389.4474676203454]	2020_Nov_27_1348	59.95777243143023	1	1
7	65	FALSE	NA	v	['P', 'M', 'N', 'B', 'A', 'T', 'S', 'G', 'K', 'X', 'U', 'C', 'Z', 'H', 'J', 'R']	[1456, 1224, 1335, 760, 697, 1888, 1731, 944, 1122, 4000, 2059, 829, 2911, 986, 1029, 1587]	10	Present	NA	NA	PRESENT	0.3766489028930664	391.4344458580017	393.4401218891144	394.25700998306274	394.60718083381653	397.5513370037079	4.111215114593506	[391.448410987854, 391.56536889076233, 392.54958391189575, 392.7164988517761, 393.46715903282166, 393.58426690101624, 393.700896024704, 393.81775188446045, 393.9344599246979, 394.05120491981506, 394.16807794570923, 394.28473687171936, 394.4017119407654, 394.5183048248291, 394.6352798938751, 394.7519428730011, 394.86886191368103, 394.9855170249939, 395.10252499580383, 395.21925592422485, 395.3361120223999, 395.5513370037079]	[391.4474676203454, 391.56413428701205, 392.54713428701206, 392.71383428701205, 393.46383428701205, 393.5805009536787, 393.6971676203454, 393.81383428701207, 393.93050095367875, 394.0471676203454, 394.1638342870121, 394.28050095367877, 394.39716762034544, 394.5138342870121, 394.6305009536788, 394.74716762034546, 394.86383428701214, 394.9805009536788, 395.0971676203455, 395.21383428701216, 395.33050095367884, 395.5638342870122]	2020_Nov_27_1348	59.95777243143023	1	1
7	66	FALSE	NV	v	['K', 'E', 'A', 'U', 'V', 'Y', 'G', 'W', 'N', 'J', 'M', 'X', 'Z', 'C', 'P', 'T']	[1122, 904, 697, 2059, 2245, 2670, 944, 2448, 1335, 1029, 1224, 4000, 2911, 829, 1456, 1888]	12	Present	NA	NA	PRESENT	0.34215712547302246	397.55798387527466	399.556165933609	400.6066508293152	400.9571568965912	403.6677029132843	4.111536979675293	[397.57194781303406, 397.6883330345154, 398.65608191490173, 398.82299995422363, 399.59088587760925, 399.7071900367737, 399.82419991493225, 399.9408218860626, 400.05773186683655, 400.17444586753845, 400.2914209365845, 400.40804386138916, 400.5249879360199, 400.6416640281677, 400.741641998291, 400.85841703414917, 400.9922239780426, 401.0920000076294, 401.2256660461426, 401.3255970478058, 401.44247603416443, 401.66770195961]	[397.5638342870122, 397.68050095367886, 398.66350095367886, 398.83020095367885, 399.58020095367885, 399.69686762034553, 399.8135342870122, 399.9302009536789, 400.04686762034555, 400.1635342870122, 400.2802009536789, 400.3968676203456, 400.51353428701225, 400.6302009536789, 400.7468676203456, 400.86353428701227, 400.98020095367895, 401.0968676203456, 401.2135342870123, 401.33020095367897, 401.44686762034564, 401.680200953679]	2020_Nov_27_1348	59.95777243143023	1	1
7	67	FALSE	NA	v	['H', 'B', 'Z', 'U', 'S', 'T', 'K', 'E', 'V', 'P', 'C', 'X', 'W', 'Y', 'A', 'R']	[986, 760, 2911, 2059, 1731, 1888, 1122, 904, 2245, 1456, 829, 4000, 2448, 2670, 697, 1587]	12	Present	NA	NA	PRESENT	0.4104599952697754	403.6642608642578	405.6726219654083	406.723130941391	407.0731048583984	409.7840700149536	4.111448049545288	[403.6782250404358, 403.7950949668884, 404.7795648574829, 404.946240901947, 405.6970510482788, 405.81391501426697, 405.93064284324646, 406.0474638938904, 406.16430282592773, 406.2811789512634, 406.3977508544922, 406.5144498348236, 406.6315059661865, 406.7481780052185, 406.8650379180908, 406.9820280075073, 407.0986440181732, 407.2153389453888, 407.3323669433594, 407.4489109516144, 407.5658528804779, 407.7840700149536]	[403.680200953679, 403.79686762034567, 404.77986762034567, 404.94656762034566, 405.69656762034566, 405.81323428701234, 405.929900953679, 406.0465676203457, 406.16323428701236, 406.27990095367903, 406.3965676203457, 406.5132342870124, 406.62990095367905, 406.74656762034573, 406.8632342870124, 406.9799009536791, 407.09656762034575, 407.2132342870124, 407.3299009536791, 407.4465676203458, 407.56323428701245, 407.7965676203458]	2020_Nov_27_1348	59.95777243143023	1	1
7	68	FALSE	AN	v	['U', 'R', 'B', 'N', 'T', 'A', 'M', 'surprise', 'G', 'P', 'V', 'W', 'K', 'S', 'Z', 'C']	[2059, 1587, 760, 1335, 1888, 697, 1224, 'stimAuditory/all_stimAuditory/213.wav', 944, 1456, 2245, 2448, 1122, 1731, 2911, 829]	11	Absent	stimAuditory/all_stimAuditory/215.wav	stimVisual/all_stimVisual/209.jpg	ABSENT	0.4639608860015869	409.78790187835693	411.78954100608826	412.7228829860687	413.0729458332062	415.90043687820435	4.110895872116089	[409.80186796188354, 409.91832304000854, 410.90272283554077, 411.069552898407, 411.8203330039978, 411.9370539188385, 412.05406284332275, 412.1705629825592, 412.28761291503906, 412.40427684783936, 412.52108693122864, 412.6378128528595, 412.754891872406, 412.8715798854828, 412.988440990448, 413.10524797439575, 413.22185587882996, 413.3385670185089, 413.45557498931885, 413.5723738670349, 413.67219495773315, 413.90043592453003]	[409.7965676203458, 409.9132342870125, 410.8962342870125, 411.06293428701247, 411.81293428701247, 411.92960095367914, 412.0462676203458, 412.1629342870125, 412.27960095367916, 412.39626762034584, 412.5129342870125, 412.6296009536792, 412.74626762034586, 412.86293428701254, 412.9796009536792, 413.0962676203459, 413.21293428701256, 413.32960095367923, 413.4462676203459, 413.5629342870126, 413.67960095367926, 413.9129342870126]	2020_Nov_27_1348	59.95777243143023	1	1
7	69	FALSE	NA	v	['N', 'U', 'A', 'C', 'Z', 'T', 'B', 'G', 'V', 'X', 'K', 'M', 'S', 'R', 'E', 'Y']	[1335, 2059, 697, 829, 2911, 1888, 760, 944, 2245, 4000, 1122, 1224, 1731, 1587, 904, 2670]	10	Present	NA	NA	PRESENT	0.18018603324890137	415.894259929657	417.9056439399719	418.722562789917	419.07264590263367	422.01680397987366	4.111160039901733	[415.90824604034424, 416.02493500709534, 417.00937390327454, 417.17604398727417, 417.9436779022217, 418.0435268878937, 418.16039299964905, 418.2773358821869, 418.3939440250397, 418.5109238624573, 418.627552986145, 418.74450182914734, 418.86123394966125, 418.97816586494446, 419.09481501579285, 419.2116138935089, 419.32844591140747, 419.44526290893555, 419.5620789527893, 419.67897295951843, 419.7956838607788, 420.016804933548]	[415.9129342870126, 416.0296009536793, 417.0126009536793, 417.1793009536793, 417.9293009536793, 418.04596762034595, 418.1626342870126, 418.2793009536793, 418.39596762034597, 418.51263428701265, 418.6293009536793, 418.745967620346, 418.86263428701267, 418.97930095367934, 419.095967620346, 419.2126342870127, 419.32930095367936, 419.44596762034604, 419.5626342870127, 419.6793009536794, 419.79596762034606, 420.0293009536794]	2020_Nov_27_1348	59.95777243143023	1	1
7	70	FALSE	NA	v	['V', 'K', 'E', 'G', 'R', 'S', 'H', 'Z', 'B', 'J', 'U', 'X', 'C', 'T', 'Y', 'A']	[2245, 1122, 904, 944, 1587, 1731, 986, 2911, 760, 1029, 2059, 4000, 829, 1888, 2670, 697]	12	Present	NA	NA	PRESENT	0.12892508506774902	422.0174169540405	424.02195501327515	425.0723237991333	425.4223558902741	428.1331698894501	4.111214876174927	[422.0313808917999, 422.14818501472473, 423.13239884376526, 423.2992260456085, 424.0501139163971, 424.1670570373535, 424.2836709022522, 424.40067982673645, 424.5173740386963, 424.6339650154114, 424.7510018348694, 424.86759185791016, 424.9845299720764, 425.10134291648865, 425.21816301345825, 425.33481884002686, 425.4519498348236, 425.56842398643494, 425.685094833374, 425.80203890800476, 425.9186999797821, 426.1331708431244]	[422.0293009536794, 422.1459676203461, 423.1289676203461, 423.2956676203461, 424.0456676203461, 424.16233428701275, 424.27900095367943, 424.3956676203461, 424.5123342870128, 424.62900095367945, 424.7456676203461, 424.8623342870128, 424.9790009536795, 425.09566762034615, 425.2123342870128, 425.3290009536795, 425.44566762034617, 425.56233428701285, 425.6790009536795, 425.7956676203462, 425.91233428701287, 426.1456676203462]	2020_Nov_27_1348	59.95777243143023	1	1
7	71	FALSE	NA	v	['W', 'M', 'J', 'U', 'C', 'P', 'R', 'G', 'A', 'K', 'X', 'T', 'N', 'Z', 'Y', 'E']	[2448, 1224, 1029, 2059, 829, 1456, 1587, 944, 697, 1122, 4000, 1888, 1335, 2911, 2670, 904]	11	Present	NA	NA	PRESENT	0.24621009826660156	428.1408360004425	430.13797879219055	431.072194814682	431.4222309589386	434.2495369911194	4.111558198928833	[428.1547999382019, 428.2544949054718, 429.23940992355347, 429.4057409763336, 430.173446893692, 430.27336502075195, 430.3901319503784, 430.52371287345886, 430.62364196777344, 430.74053597450256, 430.85734581947327, 430.9740209579468, 431.09086084365845, 431.2076790332794, 431.3244569301605, 431.4412670135498, 431.5581090450287, 431.67487502098083, 431.7916610240936, 431.9084668159485, 432.02530002593994, 432.2495369911194]	[428.1456676203462, 428.2623342870129, 429.2453342870129, 429.4120342870129, 430.1620342870129, 430.27870095367956, 430.39536762034624, 430.5120342870129, 430.6287009536796, 430.74536762034626, 430.86203428701293, 430.9787009536796, 431.0953676203463, 431.21203428701295, 431.32870095367963, 431.4453676203463, 431.562034287013, 431.67870095367965, 431.7953676203463, 431.912034287013, 432.0287009536797, 432.262034287013]	2020_Nov_27_1348	59.95777243143023	1	1
7	72	FALSE	NN	v	['S', 'Y', 'N', 'M', 'T', 'H', 'A', 'J', 'C', 'U', 'V', 'Z', 'P', 'K', 'B', 'W']	[1731, 2670, 1335, 1224, 1888, 986, 697, 1029, 829, 2059, 2245, 2911, 1456, 1122, 760, 2448]	14	Absent	NA	NA	ABSENT	0.4184980392456054	434.2471799850464	436.2544670104981	437.5386788845062	437.8885328769684	440.3659029006958	4.111435890197754	[434.2611439228058, 434.37797594070435, 435.36234498023987, 435.5290319919586, 436.2799289226532, 436.39667081832886, 436.5134449005127, 436.63037300109863, 436.7471489906311, 436.86398100852966, 436.9806299209595, 437.097363948822, 437.2141499519348, 437.33092999458313, 437.4479148387909, 437.56448793411255, 437.6814329624176, 437.7983138561249, 437.91504883766174, 438.0317349433899, 438.1486940383911, 438.3659019470215]	[434.262034287013, 434.3787009536797, 435.3617009536797, 435.5284009536797, 436.2784009536797, 436.39506762034637, 436.51173428701304, 436.6284009536797, 436.7450676203464, 436.86173428701306, 436.97840095367974, 437.0950676203464, 437.2117342870131, 437.32840095367976, 437.44506762034644, 437.5617342870131, 437.6784009536798, 437.79506762034646, 437.91173428701313, 438.0284009536798, 438.1450676203465, 438.37840095367983]	2020_Nov_27_1348	59.95777243143023	1	1
7	73	FALSE	NA	v	['C', 'A', 'B', 'M', 'U', 'G', 'W', 'J', 'S', 'N', 'P', 'E', 'T', 'X', 'K', 'Y']	[829, 697, 760, 1224, 2059, 944, 2448, 1029, 1731, 1335, 1456, 904, 1888, 4000, 1122, 2670]	14	Present	NA	NA	PRESENT	0.15202713012695312	440.3706078529358	442.3711049556732	443.6551239490509	444.0049088001251	446.4822690486908	4.111164093017578	[440.38457202911377, 440.501140832901, 441.4853239059448, 441.6522560119629, 442.40315794944763, 442.5199508666992, 442.63679599761963, 442.7535328865051, 442.87021493911743, 442.9870638847351, 443.1041040420532, 443.2209198474884, 443.3375449180603, 443.4543399810791, 443.5712308883667, 443.68793082237244, 443.8047249317169, 443.92161202430725, 444.0381898880005, 444.15507984161377, 444.2551338672638, 444.48227095603943]	[440.37840095367983, 440.4950676203465, 441.4780676203465, 441.6447676203465, 442.3947676203465, 442.5114342870132, 442.62810095367985, 442.7447676203465, 442.8614342870132, 442.97810095367987, 443.09476762034654, 443.2114342870132, 443.3281009536799, 443.44476762034657, 443.56143428701324, 443.6781009536799, 443.7947676203466, 443.91143428701326, 444.02810095367994, 444.1447676203466, 444.2614342870133, 444.49476762034664]	2020_Nov_27_1348	59.95777243143023	1	1
7	74	FALSE	NV	v	['G', 'A', 'Y', 'T', 'W', 'V', 'P', 'X', 'B', 'K', 'C', 'H', 'E', 'Z', 'N', 'U']	[944, 697, 2670, 1888, 2448, 2245, 1456, 4000, 760, 1122, 829, 986, 904, 2911, 1335, 2059]	8	Present	NA	NA	PRESENT	0.17268705368041992	446.476833820343	448.487459897995	449.0709857940674	449.42099595069885	452.59863686561584	4.11117696762085	[446.490797996521, 446.6077678203583, 447.59198093414307, 447.7588138580322, 448.50961804389954, 448.6265478134155, 448.74331283569336, 448.8599019050598, 448.9767858982086, 449.0936818122864, 449.2104048728943, 449.3273069858551, 449.44403195381165, 449.5609438419342, 449.6777319908142, 449.79452204704285, 449.91134881973267, 450.02826285362244, 450.1449568271637, 450.2615759372711, 450.37851095199585, 450.59863781929016]	[446.49476762034664, 446.6114342870133, 447.5944342870133, 447.7611342870133, 448.5111342870133, 448.62780095368, 448.74446762034665, 448.86113428701333, 448.97780095368, 449.0944676203467, 449.21113428701335, 449.32780095368, 449.4444676203467, 449.5611342870134, 449.67780095368005, 449.7944676203467, 449.9111342870134, 450.02780095368007, 450.14446762034675, 450.2611342870134, 450.3778009536801, 450.61113428701344]	2020_Nov_27_1348	59.95777243143023	1	1
7	75	FALSE	VA	v	['N', 'Z', 'Y', 'W', 'G', 'C', 'H', 'R', 'E', 'M', 'surprise', 'U', 'V', 'X', 'K', 'S']	[1335, 2911, 2670, 2448, 944, 829, 986, 1587, 904, 1224, 'stimAuditory/all_stimAuditory/212.wav', 2059, 2245, 4000, 1122, 1731]	14	Present	NA	stimVisual/all_stimVisual/210.jpg	PRESENT	0.5610489845275879	452.60020780563354	454.60395193099976	455.88754081726074	456.2373819351196	458.7150039672851	4.1110520362854	[452.6141719818115, 452.7310118675232, 453.7152810096741, 453.88218092918396, 454.6328740119934, 454.7496688365936, 454.86656188964844, 454.9834408760071, 455.1001479625702, 455.2168028354645, 455.3337788581848, 455.4503610134125, 455.5673928260803, 455.6840310096741, 455.8008599281311, 455.9177088737488, 456.0344920158386, 456.15140104293823, 456.26801896095276, 456.38498091697693, 456.50163984298706, 456.71500396728516]	[452.61113428701344, 452.7278009536801, 453.7108009536801, 453.8775009536801, 454.6275009536801, 454.7441676203468, 454.86083428701346, 454.97750095368013, 455.0941676203468, 455.2108342870135, 455.32750095368016, 455.44416762034683, 455.5608342870135, 455.6775009536802, 455.79416762034685, 455.91083428701353, 456.0275009536802, 456.1441676203469, 456.26083428701355, 456.3775009536802, 456.4941676203469, 456.72750095368025]	2020_Nov_27_1348	59.95777243143023	1	1
7	76	FALSE	NA	v	['S', 'B', 'M', 'K', 'E', 'Y', 'C', 'N', 'W', 'R', 'U', 'T', 'G', 'X', 'V', 'Z']	[1731, 760, 1224, 1122, 904, 2670, 829, 1335, 2448, 1587, 2059, 1888, 944, 4000, 2245, 2911]	14	Present	NA	NA	PRESENT	0.5263540744781494	458.72353887557983	460.7200629711151	462.0040879249573	462.3539009094238	464.8313698768616	4.11130690574646	[458.73750281333923, 458.83734798431396, 459.82190990448, 459.9890420436859, 460.75621485710144, 460.85619282722473, 460.97299098968506, 461.08982586860657, 461.2065658569336, 461.3234679698944, 461.44007992744446, 461.55706882476807, 461.6736898422241, 461.790678024292, 461.90742897987366, 462.02432203292847, 462.1411039829254, 462.2577919960022, 462.37465500831604, 462.4912598133087, 462.60821199417114, 462.83136892318726]	[458.72750095368025, 458.8441676203469, 459.8271676203469, 459.9938676203469, 460.7438676203469, 460.8605342870136, 460.97720095368027, 461.09386762034694, 461.2105342870136, 461.3272009536803, 461.44386762034696, 461.56053428701364, 461.6772009536803, 461.793867620347, 461.91053428701366, 462.02720095368034, 462.143867620347, 462.2605342870137, 462.37720095368036, 462.49386762034703, 462.6105342870137, 462.84386762034705]	2020_Nov_27_1348	59.95777243143023	1	1
7	77	FALSE	NN	v	['G', 'V', 'A', 'R', 'C', 'Z', 'Y', 'B', 'H', 'W', 'T', 'J', 'K', 'N', 'M', 'P']	[944, 2245, 697, 1587, 829, 2911, 2670, 760, 986, 2448, 1888, 1029, 1122, 1335, 1224, 1456]	12	Absent	NA	NA	ABSENT	0.4268779754638672	464.8298578262329	466.83628487586975	467.8868408203125	468.23704385757446	470.9477369785309	4.111452102661133	[464.8438229560852, 464.96057891845703, 465.94517993927, 466.1118199825287, 466.86273288726807, 466.97935795783997, 467.0964379310608, 467.2130379676819, 467.3299729824066, 467.4464998245239, 467.56346893310547, 467.6802248954773, 467.7971649169922, 467.9137759208679, 468.03076696395874, 468.14740896224976, 468.26432490348816, 468.3811149597168, 468.4978289604187, 468.6146409511566, 468.73134899139404, 468.94773602485657]	[464.84386762034705, 464.96053428701373, 465.94353428701373, 466.1102342870137, 466.8602342870137, 466.9769009536804, 467.0935676203471, 467.21023428701375, 467.3269009536804, 467.4435676203471, 467.56023428701377, 467.67690095368044, 467.7935676203471, 467.9102342870138, 468.02690095368047, 468.14356762034714, 468.2602342870138, 468.3769009536805, 468.49356762034716, 468.61023428701384, 468.7269009536805, 468.96023428701386]	2020_Nov_27_1348	59.95777243143023	1	1
7	78	FALSE	NV	v	['G', 'P', 'B', 'K', 'N', 'V', 'Y', 'M', 'H', 'S', 'X', 'J', 'C', 'T', 'A', 'R']	[944, 1456, 760, 1122, 1335, 2245, 2670, 1224, 986, 1731, 4000, 1029, 829, 1888, 697, 1587]	11	Present	NA	NA	PRESENT	0.2402350902557373	470.9536259174347	472.9525098800659	473.88649678230286	474.23663783073425	477.0641028881073	4.111593008041382	[470.967591047287, 471.0840289592743, 472.0682580471039, 472.23530101776123, 472.9860520362854, 473.102903842926, 473.2194390296936, 473.3363199234009, 473.45316791534424, 473.5699050426483, 473.6866338253021, 473.80356884002686, 473.9203510284424, 474.03722381591797, 474.15380787849426, 474.27055382728577, 474.3874249458313, 474.5044460296631, 474.621111869812, 474.7377779483795, 474.838073015213, 475.0641028881073]	[470.96023428701386, 471.07690095368054, 472.05990095368054, 472.22660095368053, 472.97660095368053, 473.0932676203472, 473.2099342870139, 473.32660095368055, 473.4432676203472, 473.5599342870139, 473.6766009536806, 473.79326762034725, 473.9099342870139, 474.0266009536806, 474.1432676203473, 474.25993428701395, 474.3766009536806, 474.4932676203473, 474.60993428701397, 474.72660095368065, 474.8432676203473, 475.07660095368067]	2020_Nov_27_1348	59.95777243143023	1	1
7	79	FALSE	NV	v	['B', 'C', 'R', 'W', 'V', 'S', 'U', 'Y', 'Z', 'H', 'M', 'G', 'X', 'K', 'N', 'T']	[760, 829, 1587, 2448, 2245, 1731, 2059, 2670, 2911, 986, 1224, 944, 4000, 1122, 1335, 1888]	13	Present	NA	NA	ABSENT	0.6049399375915527	477.05965089797974	479.0694239139557	480.2362008094787	480.58648586273193	483.1804699897766	4.111046075820923	[477.07361483573914, 477.19058084487915, 478.1749289035797, 478.3416838645935, 479.0923578739166, 479.20936489105225, 479.32614302635193, 479.442950963974, 479.5597858428955, 479.676460981369, 479.7933039665222, 479.9099769592285, 480.02696204185486, 480.14359402656555, 480.2605199813843, 480.3770899772644, 480.494029045105, 480.61078691482544, 480.7275140285492, 480.84434485435486, 480.9615068435669, 481.1804690361023]	[477.07660095368067, 477.19326762034734, 478.17626762034735, 478.34296762034734, 479.09296762034734, 479.209634287014, 479.3263009536807, 479.44296762034736, 479.55963428701403, 479.6763009536807, 479.7929676203474, 479.90963428701406, 480.02630095368073, 480.1429676203474, 480.2596342870141, 480.37630095368075, 480.49296762034743, 480.6096342870141, 480.7263009536808, 480.84296762034745, 480.9596342870141, 481.1929676203475]	2020_Nov_27_1348	59.95777243143023	1	1
