participant	trial_num	practice	task	condition	RSVP	RAP	probePos	probe_presence	surprise_sound	surprise_img	probe_response	probe_resp_time	first_fixation_time	trial_start_time	surprise_start_time	probe_start_time	trial_end_time	trial_duration	actualEventTimes	plannedEventTimes	date	framerate	marker_vol	RAP_vol
7	1	FALSE	NN	a	['B', 'K', 'Y', 'Z', 'J', 'A', 'W', 'N', 'E', 'U', 'H', 'R', 'V', 'M', 'P', 'G']	[760, 1122, 2670, 2911, 1029, 697, 2448, 1335, 904, 2059, 986, 1587, 2245, 1224, 1456, 944]	10	Absent	NA	NA	ABSENT	0.27544593811035156	1.9073486328125e-6	1.999429941177368	2.816105667703374	3.166107575032007	6.103869915008545	4.104439973831177	[0.010438919067382812, 0.11029601097106934, 1.0871930122375488, 1.2615430355072021, 2.029175043106079, 2.129379987716675, 2.245919942855835, 2.3629870414733887, 2.479511022567749, 2.596475124359131, 2.7131431102752686, 2.8300940990448, 2.946669101715088, 3.0636351108551025, 3.1802921295166016, 3.2970149517059326, 3.4137871265411377, 3.530832052230835, 3.6475369930267334, 3.7644200325012207, 3.8811099529266357, 4.103869915008545]	[1.9073486328125e-06, 0.11666857400863281, 1.0996685740086327, 1.2663685740086328, 2.0163685740086326, 2.1330352406686326, 2.2497019073286326, 2.3663685739886327, 2.4830352406486327, 2.5997019073086327, 2.7163685739686327, 2.8330352406286328, 2.949701907288633, 3.066368573948633, 3.183035240608633, 3.299701907268633, 3.416368573928633, 3.533035240588633, 3.649701907248633, 3.766368573908633, 3.883035240568633, 4.116368573901966]	2020_Nov_27_1408	59.931899206252815	1	0.375
7	2	FALSE	NA	a	['U', 'N', 'E', 'B', 'H', 'M', 'W', 'J', 'A', 'V', 'X', 'Z', 'C', 'Y', 'R', 'G']	[2059, 1335, 904, 760, 986, 1224, 2448, 1029, 697, 2245, 4000, 2911, 829, 2670, 1587, 944]	11	Present	NA	NA	PRESENT	0.04821014404296875	6.106872797012329	8.11233401298523	9.045674260404024	9.395676167732656	12.220237016677856	4.107903003692627	[6.117311000823975, 6.233762979507446, 7.203558921813965, 7.384956121444702, 8.135615110397339, 8.252310991287231, 8.369410037994385, 8.485979080200195, 8.6028311252594, 8.719645977020264, 8.836451053619385, 8.953288078308105, 9.06995701789856, 9.187765121459961, 9.303647994995117, 9.420496940612793, 9.537256956100464, 9.653861045837402, 9.770875930786133, 9.88765811920166, 10.004393100738525, 10.220237016677856]	[6.116368573901966, 6.233035240561966, 7.216035240561966, 7.382735240561965, 8.132735240561965, 8.249401907221966, 8.366068573881966, 8.482735240541967, 8.599401907201967, 8.716068573861968, 8.832735240521968, 8.949401907181969, 9.066068573841969, 9.18273524050197, 9.29940190716197, 9.41606857382197, 9.532735240481971, 9.649401907141971, 9.766068573801972, 9.882735240461972, 9.999401907121973, 10.232735240455305]	2020_Nov_27_1408	59.931899206252815	1	0.375
7	3	FALSE	NA	a	['E', 'H', 'Y', 'A', 'S', 'J', 'Z', 'N', 'P', 'V', 'U', 'C', 'X', 'W', 'B', 'M']	[904, 986, 2670, 697, 1731, 1029, 2911, 1335, 1456, 2245, 2059, 829, 4000, 2448, 760, 1224]	13	Present	NA	NA	PRESENT	0.05332612991333008	12.229565858840942	14.228868961334229	15.395543495747338	15.745545641494552	18.336602926254272	4.107733964920044	[12.240004062652588, 12.356903076171875, 13.319926977157593, 13.508059978485107, 14.258858919143677, 14.35915994644165, 14.475794076919556, 14.592718124389648, 14.709365129470825, 14.826205015182495, 14.942902088165283, 15.059602975845337, 15.176414966583252, 15.293330907821655, 15.410006046295166, 15.527040958404541, 15.643784999847412, 15.760898113250732, 15.877249956130981, 15.994204044342041, 16.110971927642822, 16.336602926254272]	[12.232735240455305, 12.349401907115306, 13.332401907115306, 13.499101907115307, 14.249101907115307, 14.365768573775307, 14.482435240435308, 14.599101907095308, 14.715768573755309, 14.83243524041531, 14.94910190707531, 15.06576857373531, 15.18243524039531, 15.299101907055311, 15.415768573715312, 15.532435240375312, 15.649101907035313, 15.765768573695313, 15.882435240355314, 15.999101907015314, 16.115768573675314, 16.34910190700865]	2020_Nov_27_1408	59.931899206252815	1	0.375
7	4	FALSE	NA	a	['H', 'J', 'G', 'U', 'P', 'N', 'T', 'K', 'A', 'R', 'B', 'C', 'X', 'Y', 'S', 'E']	[986, 1029, 944, 2059, 1456, 1335, 1888, 1122, 697, 1587, 760, 829, 4000, 2670, 1731, 904]	13	Present	NA	NA	PRESENT	0.08987712860107422	18.336092948913578	20.345112800598145	21.511787573429835	21.861789480758468	24.452970027923584	4.1078572273254395	[18.346532106399536, 18.463571071624756, 19.436295986175537, 19.614598035812378, 20.365381956100464, 20.482379913330078, 20.599034070968628, 20.715846061706543, 20.832642078399658, 20.949515104293823, 21.066169023513794, 21.18309998512268, 21.299843072891235, 21.41651201248169, 21.5334689617157, 21.650010108947754, 21.76700496673584, 21.883625030517578, 22.000534057617188, 22.117435932159424, 22.23417901992798, 22.452970027923584]	[18.34910190700865, 18.465768573668647, 19.448768573668648, 19.615468573668647, 20.365468573668647, 20.482135240328645, 20.598801906988644, 20.715468573648643, 20.83213524030864, 20.94880190696864, 21.06546857362864, 21.182135240288638, 21.298801906948636, 21.415468573608635, 21.532135240268634, 21.648801906928632, 21.76546857358863, 21.88213524024863, 21.99880190690863, 22.115468573568627, 22.232135240228626, 22.46546857356196]	2020_Nov_27_1408	59.931899206252815	1	0.375
7	5	FALSE	NV	a	['G', 'H', 'U', 'T', 'W', 'C', 'R', 'K', 'X', 'P', 'S', 'A', 'M', 'B', 'Z', 'E']	[944, 986, 2059, 1888, 2448, 829, 1587, 1122, 4000, 1456, 1731, 697, 1224, 760, 2911, 904]	9	Present	NA	NA	PRESENT	0.1433420181274414	24.45941996574402	26.46159791946411	27.161604833562905	27.511606979310116	30.569337129592896	4.107739210128784	[24.46985697746277, 24.58684492111206, 25.552660942077637, 25.73814296722412, 26.488720893859863, 26.60537099838257, 26.72247290611267, 26.839236974716187, 26.95605993270874, 27.07264995574951, 27.18952512741089, 27.30625891685486, 27.422900915145874, 27.53970193862915, 27.656675100326538, 27.773489952087402, 27.890074968338013, 28.007134914398193, 28.123939037322998, 28.223861932754517, 28.340532064437866, 28.569337129592896]	[24.46546857356196, 24.58213524022196, 25.56513524022196, 25.731835240221958, 26.481835240221958, 26.598501906881957, 26.715168573541956, 26.831835240201954, 26.948501906861953, 27.06516857352195, 27.18183524018195, 27.29850190684195, 27.415168573501948, 27.531835240161946, 27.648501906821945, 27.765168573481944, 27.881835240141942, 27.99850190680194, 28.11516857346194, 28.23183524012194, 28.348501906781937, 28.58183524011527]	2020_Nov_27_1408	59.931899206252815	1	0.375
7	6	FALSE	VA	a	['T', 'E', 'A', 'G', 'U', 'Z', 'C', 'surprise', 'S', 'Y', 'X', 'R', 'K', 'W', 'P', 'B']	[1888, 904, 697, 944, 2059, 2911, 829, 'stimAuditory/all_stimAuditory/114.wav', 1731, 2670, 4000, 1587, 1122, 2448, 1456, 760]	11	Present	NA	NA	ABSENT	0.21961092948913577	30.56591796875	32.577919006347656	33.51125925376645	33.861261161095086	36.68570399284363	4.107784986495972	[30.57635498046875, 30.69315505027771, 31.66902804374695, 31.84468412399292, 32.59521293640137, 32.71221208572388, 32.82881212234497, 32.945785999298096, 33.062427043914795, 33.17938995361328, 33.29599189758301, 33.412822008132935, 33.52957797050476, 33.646337032318115, 33.76314997673035, 33.879831075668335, 33.996663093566895, 34.11362099647522, 34.23048210144043, 34.347054958343506, 34.46401000022888, 34.68570303916931]	[30.58183524011527, 30.69850190677527, 31.68150190677527, 31.84820190677527, 32.59820190677527, 32.714868573435275, 32.83153524009528, 32.94820190675528, 33.06486857341528, 33.181535240075284, 33.29820190673529, 33.41486857339529, 33.53153524005529, 33.64820190671529, 33.764868573375296, 33.8815352400353, 33.9982019066953, 34.1148685733553, 34.231535240015305, 34.34820190667531, 34.46486857333531, 34.69820190666864]	2020_Nov_27_1408	59.931899206252815	1	0.375
7	7	FALSE	NN	a	['Z', 'R', 'J', 'C', 'P', 'K', 'M', 'S', 'N', 'T', 'E', 'B', 'G', 'A', 'V', 'W']	[2911, 1587, 1029, 829, 1456, 1122, 1224, 1731, 1335, 1888, 904, 760, 944, 697, 2245, 2448]	11	Absent	NA	NA	ABSENT	0.17629289627075195	36.68942880630493	38.69404482841492	39.6273862679266	39.97738817525524	42.80207109451294	4.1080262660980225	[36.69986701011658, 36.816564083099365, 37.78539490699768, 37.967710971832275, 38.718461990356445, 38.83523607254028, 38.952292919158936, 39.068758964538574, 39.18579411506653, 39.30252003669739, 39.41938495635986, 39.53591704368591, 39.652902126312256, 39.76949596405029, 39.88653612136841, 40.003238916397095, 40.12013292312622, 40.23669409751892, 40.35374593734741, 40.47026705741882, 40.58717107772827, 40.802072048187256]	[36.69820190666864, 36.814868573328646, 37.79786857332864, 37.96456857332864, 38.71456857332864, 38.831235239988644, 38.947901906648646, 39.06456857330865, 39.18123523996865, 39.29790190662865, 39.414568573288655, 39.53123523994866, 39.64790190660866, 39.76456857326866, 39.881235239928664, 39.997901906588666, 40.11456857324867, 40.23123523990867, 40.34790190656867, 40.464568573228675, 40.58123523988868, 40.81456857322201]	2020_Nov_27_1408	59.931899206252815	1	0.375
7	8	FALSE	NV	a	['T', 'S', 'H', 'A', 'C', 'E', 'K', 'Z', 'B', 'X', 'W', 'M', 'Y', 'P', 'G', 'N']	[1888, 1731, 986, 697, 829, 904, 1122, 2911, 760, 4000, 2448, 1224, 2670, 1456, 944, 1335]	10	Present	NA	NA	ABSENT	0.4935431480407715	42.81252479553223	44.810770988464355	45.62744552289747	45.97744766864468	48.918437004089355	4.107666015625	[42.82296299934387, 42.93963599205017, 43.90176296234131, 44.07416605949402, 44.84196496009827, 44.94169092178345, 45.05873489379883, 45.17549800872803, 45.29229402542114, 45.40907907485962, 45.525733947753906, 45.64248490333557, 45.75959396362305, 45.87625002861023, 45.99285697937012, 46.10961604118347, 46.22644591331482, 46.343262910842896, 46.460078954696655, 46.57706689834595, 46.6938259601593, 46.918437004089355]	[42.81456857322201, 42.931235239882014, 43.91423523988201, 44.08093523988201, 44.83093523988201, 44.94760190654201, 45.064268573202014, 45.180935239862016, 45.29760190652202, 45.41426857318202, 45.53093523984202, 45.647601906502025, 45.76426857316203, 45.88093523982203, 45.99760190648203, 46.114268573142034, 46.23093523980204, 46.34760190646204, 46.46426857312204, 46.58093523978204, 46.697601906442046, 46.93093523977538]	2020_Nov_27_1408	59.931899206252815	1	0.375
7	9	FALSE	NA	a	['S', 'Y', 'A', 'V', 'K', 'G', 'N', 'J', 'Z', 'H', 'E', 'X', 'P', 'U', 'R', 'B']	[1731, 2670, 697, 2245, 1122, 944, 1335, 1029, 2911, 986, 904, 4000, 1456, 2059, 1587, 760]	12	Present	NA	NA	ABSENT	0.7221329212188721	48.91917991638184	50.927119970321655	51.97712688440045	52.327129983821976	55.03480291366577	4.107682943344116	[48.929616928100586, 49.0463171005249, 50.01812791824341, 50.19732403755188, 50.948275089263916, 51.065176010131836, 51.18188190460205, 51.29877305030823, 51.41555595397949, 51.532310962677, 51.64909100532532, 51.765820026397705, 51.882580041885376, 51.99946093559265, 52.11619210243225, 52.23288297653198, 52.349852085113525, 52.466476917266846, 52.58341097831726, 52.70018410682678, 52.81702995300293, 53.03480410575867]	[48.93093523977538, 49.04760190643538, 50.03060190643538, 50.19730190643538, 50.94730190643538, 51.06396857309538, 51.18063523975538, 51.297301906415385, 51.41396857307539, 51.53063523973539, 51.64730190639539, 51.763968573055394, 51.880635239715396, 51.9973019063754, 52.1139685730354, 52.2306352396954, 52.347301906355405, 52.46396857301541, 52.58063523967541, 52.69730190633541, 52.813968572995414, 53.04730190632875]	2020_Nov_27_1408	59.931899206252815	1	0.375
7	10	FALSE	NV	a	['K', 'E', 'N', 'S', 'H', 'B', 'Y', 'T', 'W', 'C', 'M', 'Z', 'X', 'G', 'R', 'J']	[1122, 904, 1335, 1731, 986, 760, 2670, 1888, 2448, 829, 1224, 2911, 4000, 944, 1587, 1029]	13	Present	NA	NA	PRESENT	0.16776800155639648	55.04236102104187	57.04321098327637	58.20988551768948	58.55988766343669	61.15117001533508	4.107959032058716	[55.05279898643494, 55.16947102546692, 56.13449501991272, 56.321024894714355, 57.07151699066162, 57.18821597099304, 57.30513906478882, 57.421958923339844, 57.53879904747009, 57.655508041381836, 57.77219796180725, 57.88903093338013, 57.9890410900116, 58.10576891899109, 58.22260499000549, 58.33935213088989, 58.45615005493164, 58.572953939437866, 58.68976306915283, 58.806535959243774, 58.923377990722656, 59.15117001533508]	[55.04730190632875, 55.16396857298875, 56.14696857298875, 56.313668572988746, 57.063668572988746, 57.18033523964875, 57.29700190630875, 57.41366857296875, 57.530335239628755, 57.64700190628876, 57.76366857294876, 57.88033523960876, 57.997001906268764, 58.113668572928766, 58.23033523958877, 58.34700190624877, 58.46366857290877, 58.580335239568775, 58.69700190622878, 58.81366857288878, 58.93033523954878, 59.163668572882116]	2020_Nov_27_1408	59.931899206252815	1	0.375
7	11	FALSE	AA	a	['U', 'K', 'Z', 'Y', 'P', 'G', 'C', 'surprise', 'H', 'N', 'X', 'J', 'W', 'E', 'S', 'M']	[2059, 1122, 2911, 2670, 1456, 944, 829, 'stimAuditory/all_stimAuditory/203.wav', 986, 1335, 4000, 1029, 2448, 904, 1731, 1224]	11	Present	stimAuditory/all_stimAuditory/114.wav	NA	ABSENT	0.13199901580810547	61.14888882637024	63.15980386734009	64.09314530685178	64.44314721418041	67.26753807067871	4.107734203338623	[61.15932512283325, 61.27603197097778, 62.250860929489136, 62.42710590362549, 63.17803192138672, 63.294776916503906, 63.4116051197052, 63.52854609489441, 63.64523100852966, 63.76211500167847, 63.87882709503174, 63.995702028274536, 64.11248707771301, 64.22938299179077, 64.34612607955933, 64.46285009384155, 64.57972502708435, 64.69637799263, 64.81329298019409, 64.92988991737366, 65.04686498641968, 65.26753807067871]	[61.163668572882116, 61.28033523954212, 62.263335239542116, 62.430035239542114, 63.180035239542114, 63.29670190620212, 63.41336857286212, 63.53003523952212, 63.64670190618212, 63.763368572842126, 63.88003523950213, 63.99670190616213, 64.11336857282213, 64.23003523948212, 64.34670190614212, 64.46336857280211, 64.5800352394621, 64.6967019061221, 64.8133685727821, 64.93003523944209, 65.04670190610209, 65.28003523943542]	2020_Nov_27_1408	59.931899206252815	1	0.375
7	12	FALSE	NV	a	['Y', 'B', 'G', 'H', 'U', 'T', 'Z', 'X', 'K', 'C', 'A', 'V', 'P', 'J', 'E', 'N']	[2670, 760, 944, 986, 2059, 1888, 2911, 4000, 1122, 829, 697, 2245, 1456, 1029, 904, 1335]	8	Present	NA	NA	PRESENT	1.336587905883789	67.27238392829895	69.27614188194275	69.85948212938155	70.20948427512876	73.38390398025513	4.107762098312378	[67.28282189369202, 67.39937806129456, 68.36722898483276, 68.55060911178589, 69.30128407478333, 69.41815400123596, 69.534991979599, 69.65179204940796, 69.7685899734497, 69.88523697853088, 70.00220203399658, 70.11889004707336, 70.2356219291687, 70.35248899459839, 70.46902990341187, 70.58589792251587, 70.70282292366028, 70.8196918964386, 70.93647408485413, 71.05321002006531, 71.17004108428955, 71.38390398025513]	[67.28003523943542, 67.39670190609542, 68.37970190609542, 68.54640190609543, 69.29640190609543, 69.41306857275542, 69.52973523941542, 69.64640190607541, 69.7630685727354, 69.8797352393954, 69.9964019060554, 70.11306857271539, 70.22973523937539, 70.34640190603538, 70.46306857269538, 70.57973523935537, 70.69640190601537, 70.81306857267536, 70.92973523933536, 71.04640190599535, 71.16306857265535, 71.39640190598868]	2020_Nov_27_1408	59.931899206252815	1	0.375
7	13	FALSE	NV	a	['P', 'C', 'S', 'U', 'B', 'Y', 'G', 'J', 'W', 'R', 'M', 'E', 'K', 'X', 'H', 'T']	[1456, 829, 1731, 2059, 760, 2670, 944, 1029, 2448, 1587, 1224, 904, 1122, 4000, 986, 1888]	14	Present	NA	NA	PRESENT	0.20578503608703613	73.395339012146	75.39260196685791	76.67594316793102	77.02594531367824	79.50027012825012	4.107668161392212	[73.40577602386475, 73.5057430267334, 74.48359298706055, 74.65708589553833, 75.4076840877533, 75.52472496032715, 75.64136910438538, 75.75812602043152, 75.87505602836609, 75.99188590049744, 76.10856294631958, 76.22533702850342, 76.34225392341614, 76.45909190177917, 76.57579398155212, 76.69248795509338, 76.80974698066711, 76.92595505714417, 77.04295897483826, 77.1598060131073, 77.27658700942993, 77.50027012825012]	[73.39640190598868, 73.51306857264868, 74.49606857264868, 74.66276857264869, 75.41276857264869, 75.52943523930868, 75.64610190596868, 75.76276857262867, 75.87943523928867, 75.99610190594866, 76.11276857260866, 76.22943523926865, 76.34610190592865, 76.46276857258864, 76.57943523924864, 76.69610190590863, 76.81276857256863, 76.92943523922862, 77.04610190588862, 77.16276857254861, 77.27943523920861, 77.51276857254194]	2020_Nov_27_1408	59.931899206252815	1	0.375
7	14	FALSE	AV	a	['Z', 'G', 'B', 'T', 'H', 'A', 'M', 'surprise', 'R', 'U', 'X', 'P', 'K', 'J', 'N', 'E']	[2911, 944, 760, 1888, 986, 697, 1224, 'stimAuditory/all_stimAuditory/222.wav', 1587, 2059, 4000, 1456, 1122, 1029, 1335, 904]	11	Present	stimAuditory/all_stimAuditory/203.wav	NA	NONE	-1	79.5017638206482	81.50888681411743	82.44222825362912	82.79223016095776	85.63571500778198	4.126828193664551	[79.51220107078552, 79.62899112701416, 80.59996008872986, 80.78027009963989, 81.53108811378479, 81.64796710014343, 81.76468396186829, 81.88143110275269, 81.99838089942932, 82.11496591567993, 82.23194313049316, 82.34851908683777, 82.46555995941162, 82.58214807510376, 82.69898796081543, 82.81568503379822, 82.93270707130432, 83.04939889907837, 83.16609406471252, 83.28289604187012, 83.39983701705933, 83.61663699150085]	[79.51276857254194, 79.62943523920194, 80.61243523920194, 80.77913523920195, 81.52913523920195, 81.64580190586194, 81.76246857252194, 81.87913523918193, 81.99580190584193, 82.11246857250192, 82.22913523916192, 82.34580190582192, 82.46246857248191, 82.5791352391419, 82.6958019058019, 82.8124685724619, 82.92913523912189, 83.04580190578189, 83.16246857244188, 83.27913523910188, 83.39580190576187, 83.6291352390952]	2020_Nov_27_1408	59.931899206252815	1	0.375
7	15	FALSE	NA	a	['U', 'S', 'A', 'J', 'N', 'B', 'P', 'W', 'C', 'E', 'K', 'Y', 'X', 'Z', 'T', 'H']	[2059, 1731, 697, 1029, 1335, 760, 1456, 2448, 829, 904, 1122, 2670, 4000, 2911, 1888, 986]	13	Present	NA	NA	ABSENT	0.9118778705596924	85.64171290397644	87.62516498565674	88.79184047374416	89.14184261949137	91.73300409317017	4.107839107513428	[85.65214991569519, 85.75230407714844, 86.71632599830627, 86.90395307540894, 87.65430498123169, 87.75425100326538, 87.87116599082947, 87.98795890808105, 88.10469198226929, 88.22150301933289, 88.33825612068176, 88.45514702796936, 88.57184910774231, 88.68864703178406, 88.80544304847717, 88.92249703407288, 89.03903889656067, 89.15605592727661, 89.27258706092834, 89.38939690589905, 89.50638103485107, 89.73300504684448]	[85.6291352390952, 85.7458019057552, 86.7288019057552, 86.89550190575521, 87.64550190575521, 87.7621685724152, 87.8788352390752, 87.9955019057352, 88.11216857239519, 88.22883523905519, 88.34550190571518, 88.46216857237518, 88.57883523903517, 88.69550190569517, 88.81216857235516, 88.92883523901516, 89.04550190567515, 89.16216857233515, 89.27883523899514, 89.39550190565514, 89.51216857231513, 89.74550190564847]	2020_Nov_27_1408	59.931899206252815	1	0.375
7	16	FALSE	NA	a	['B', 'Z', 'W', 'T', 'S', 'Y', 'N', 'J', 'U', 'M', 'G', 'X', 'P', 'A', 'K', 'C']	[760, 2911, 2448, 1888, 1731, 2670, 1335, 1029, 2059, 1224, 944, 4000, 1456, 697, 1122, 829]	12	Present	NA	NA	NONE	-1	91.73172998428343	93.74130201339722	94.79130988115033	95.14131202689754	97.865718126297	4.12441611289978	[91.7421669960022, 91.85901808738708, 92.83269309997559, 93.01000094413757, 93.76080107688904, 93.8776969909668, 93.99450707435608, 94.11113691329956, 94.22823596000671, 94.34495711326599, 94.46170997619629, 94.57854008674622, 94.69533610343933, 94.81196594238281, 94.92888903617859, 95.04551911354065, 95.16252207756042, 95.27914905548096, 95.39608597755432, 95.51260900497437, 95.62951612472534, 95.84937191009521]	[91.74550190564847, 91.86216857230846, 92.84516857230847, 93.01186857230847, 93.76186857230847, 93.87853523896847, 93.99520190562846, 94.11186857228846, 94.22853523894845, 94.34520190560845, 94.46186857226844, 94.57853523892844, 94.69520190558843, 94.81186857224843, 94.92853523890842, 95.04520190556842, 95.16186857222841, 95.27853523888841, 95.3952019055484, 95.5118685722084, 95.6285352388684, 95.86186857220173]	2020_Nov_27_1408	59.931899206252815	1	0.375
7	17	FALSE	VV	a	['A', 'K', 'Z', 'C', 'R', 'surprise', 'Y', 'U', 'X', 'M', 'J', 'E', 'P', 'H', 'N', 'T']	[697, 1122, 2911, 829, 1587, 'stimAuditory/all_stimAuditory/110.wav', 2670, 2059, 4000, 1224, 1029, 904, 1456, 986, 1335, 1888]	9	Present	NA	NA	NONE	-1	97.87142181396484	99.85789799690248	100.55790491100126	100.90790681832988	103.97175908088684	4.113861083984375	[97.88186001777649, 97.98201894760132, 98.94906210899353, 99.13334703445435, 99.88417506217957, 100.00099396705627, 100.11776494979858, 100.2344229221344, 100.35134100914001, 100.46799993515015, 100.58491706848145, 100.70160293579102, 100.81867098808289, 100.935142993927, 101.0520191192627, 101.16896510124207, 101.28567695617676, 101.40260100364685, 101.51935911178589, 101.63602209091187, 101.75280094146729, 101.9657371044159]	[97.86186857220173, 97.97853523886172, 98.96153523886173, 99.12823523886173, 99.87823523886173, 99.99490190552173, 100.11156857218172, 100.22823523884172, 100.34490190550171, 100.46156857216171, 100.5782352388217, 100.6949019054817, 100.8115685721417, 100.92823523880169, 101.04490190546169, 101.16156857212168, 101.27823523878168, 101.39490190544167, 101.51156857210167, 101.62823523876166, 101.74490190542166, 101.97823523875499]	2020_Nov_27_1408	59.931899206252815	1	0.375
7	18	FALSE	NV	a	['B', 'N', 'Z', 'R', 'Y', 'H', 'V', 'M', 'K', 'S', 'E', 'W', 'U', 'X', 'T', 'C']	[760, 1335, 2911, 1587, 2670, 986, 2245, 1224, 1122, 1731, 904, 2448, 2059, 4000, 1888, 829]	14	Present	NA	NA	PRESENT	0.1340329647064209	103.9780068397522	105.97450089454652	107.2578423340382	107.60784424136683	110.08210301399232	4.107602119445801	[103.98844289779663, 104.08855700492859, 105.06542611122131, 105.2400131225586, 105.9905309677124, 106.10756802558899, 106.22418904304504, 106.34114503860474, 106.45784306526184, 106.57457304000854, 106.69150710105896, 106.80831789970398, 106.92502999305725, 107.04181408882141, 107.1586639881134, 107.27532505989075, 107.39226198196411, 107.50890493392944, 107.62577104568481, 107.74295401573181, 107.85943293571472, 108.08210301399231]	[103.97823523875499, 104.09490190541499, 105.07790190541499, 105.244601905415, 105.994601905415, 106.11126857207499, 106.22793523873499, 106.34460190539498, 106.46126857205498, 106.57793523871497, 106.69460190537497, 106.81126857203496, 106.92793523869496, 107.04460190535495, 107.16126857201495, 107.27793523867494, 107.39460190533494, 107.51126857199493, 107.62793523865493, 107.74460190531492, 107.86126857197492, 108.09460190530825]	2020_Nov_27_1408	59.931899206252815	1	0.375
7	19	FALSE	NV	a	['S', 'A', 'T', 'K', 'P', 'N', 'R', 'W', 'H', 'M', 'J', 'X', 'U', 'G', 'Y', 'Z']	[1731, 697, 1888, 1122, 1456, 1335, 1587, 2448, 986, 1224, 1029, 4000, 2059, 944, 2670, 2911]	12	Present	NA	NA	NONE	-1	110.08454990386964	112.09057593345642	113.14058380120952	113.49058594695674	116.2186040878296	4.128028154373169	[110.09498691558838, 110.21173095703125, 111.18179392814636, 111.3632140159607, 112.11381101608276, 112.23054599761963, 112.34753012657166, 112.46423697471619, 112.58118200302124, 112.69789099693298, 112.81476902961731, 112.93137407302856, 113.04819297790527, 113.16510605812073, 113.28180193901062, 113.39878106117249, 113.5153260231018, 113.63213610649109, 113.74901103973389, 113.86575698852539, 113.98264503479004, 114.19847011566162]	[110.09460190530825, 110.21126857196825, 111.19426857196825, 111.36096857196826, 112.11096857196826, 112.22763523862825, 112.34430190528825, 112.46096857194824, 112.57763523860824, 112.69430190526823, 112.81096857192823, 112.92763523858822, 113.04430190524822, 113.16096857190821, 113.27763523856821, 113.3943019052282, 113.5109685718882, 113.6276352385482, 113.74430190520819, 113.86096857186818, 113.97763523852818, 114.21096857186151]	2020_Nov_27_1408	59.931899206252815	1	0.375
7	20	FALSE	NA	a	['U', 'E', 'J', 'H', 'S', 'W', 'M', 'K', 'Z', 'B', 'R', 'X', 'P', 'V', 'C', 'G']	[2059, 904, 1029, 986, 1731, 2448, 1224, 1122, 2911, 760, 1587, 4000, 1456, 2245, 829, 944]	12	Present	NA	NA	ABSENT	0.2719571590423584	116.22452688217165	118.20720386505128	119.25721101754864	119.60721292487727	122.31483793258668	4.1076340675354	[116.23496508598328, 116.3349609375, 117.2981629371643, 117.46961402893066, 118.237459897995, 118.33713912963867, 118.45392394065857, 118.57071208953857, 118.68756008148193, 118.80453300476074, 118.92105793952942, 119.03791499137878, 119.15464901924133, 119.27172613143921, 119.3883900642395, 119.50526094436646, 119.6220440864563, 119.73890805244446, 119.85556507110596, 119.97220492362976, 120.08914804458618, 120.31483793258667]	[116.21096857186151, 116.32763523852151, 117.31063523852151, 117.47733523852152, 118.22733523852152, 118.34400190518151, 118.46066857184151, 118.5773352385015, 118.6940019051615, 118.8106685718215, 118.92733523848149, 119.04400190514149, 119.16066857180148, 119.27733523846148, 119.39400190512147, 119.51066857178147, 119.62733523844146, 119.74400190510146, 119.86066857176145, 119.97733523842145, 120.09400190508144, 120.32733523841478]	2020_Nov_27_1408	59.931899206252815	1	0.375
7	21	FALSE	NA	a	['Z', 'K', 'C', 'V', 'R', 'N', 'S', 'H', 'Y', 'E', 'M', 'T', 'X', 'U', 'J', 'W']	[2911, 1122, 829, 2245, 1587, 1335, 1731, 986, 2670, 904, 1224, 1888, 4000, 2059, 1029, 2448]	13	Present	NA	NA	PRESENT	0.10846590995788574	122.3143858909607	124.3234269618988	125.4901005426376	125.8401026883848	128.43120312690735	4.107776165008545	[122.32482290267944, 122.44172596931458, 123.41452693939209, 123.59297490119934, 124.34360790252686, 124.46055603027344, 124.57733702659607, 124.69400405883789, 124.81106209754944, 124.92776298522949, 125.04457902908325, 125.16121292114258, 125.27806305885315, 125.39472794532776, 125.51164507865906, 125.62847900390625, 125.74528694152832, 125.86195993423462, 125.97858905792236, 126.09559607505798, 126.21220397949219, 126.43120408058167]	[122.32733523841478, 122.44400190507477, 123.42700190507477, 123.59370190507478, 124.34370190507478, 124.46036857173478, 124.57703523839477, 124.69370190505477, 124.81036857171476, 124.92703523837476, 125.04370190503475, 125.16036857169475, 125.27703523835474, 125.39370190501474, 125.51036857167473, 125.62703523833473, 125.74370190499472, 125.86036857165472, 125.97703523831471, 126.09370190497471, 126.2103685716347, 126.44370190496804]	2020_Nov_27_1408	59.931899206252815	1	0.375
7	22	FALSE	AA	a	['Y', 'U', 'C', 'M', 'surprise', 'W', 'A', 'X', 'V', 'B', 'H', 'Z', 'S', 'J', 'P', 'T']	[2670, 2059, 829, 1224, 'stimAuditory/all_stimAuditory/108.wav', 2448, 697, 4000, 2245, 760, 986, 2911, 1731, 1029, 1456, 1888]	8	Present	stimAuditory/all_stimAuditory/222.wav	NA	NONE	-1	128.43798089027405	130.43963098526	131.0229712326988	131.37297314002743	134.55455994606018	4.114928960800171	[128.4484179019928, 128.56472396850586, 129.53089308738708, 129.71618390083313, 130.46696996688843, 130.5837550163269, 130.70052909851074, 130.8174409866333, 130.93410301208496, 131.0510070323944, 131.1677849292755, 131.28465795516968, 131.40138506889343, 131.51806712150574, 131.6349470615387, 131.7517330646515, 131.8684070110321, 131.98537302017212, 132.10193395614624, 132.2188229560852, 132.3188021183014, 132.5475709438324]	[128.44370190496804, 128.56036857162803, 129.54336857162804, 129.71006857162803, 130.46006857162803, 130.57673523828802, 130.69340190494802, 130.810068571608, 130.926735238268, 131.043401904928, 131.160068571588, 131.276735238248, 131.393401904908, 131.51006857156798, 131.62673523822798, 131.74340190488797, 131.86006857154797, 131.97673523820797, 132.09340190486796, 132.21006857152796, 132.32673523818795, 132.56006857152127]	2020_Nov_27_1408	59.931899206252815	1	0.375
7	23	FALSE	NA	a	['T', 'E', 'N', 'G', 'Y', 'H', 'C', 'U', 'X', 'V', 'M', 'K', 'S', 'B', 'W', 'Z']	[1888, 904, 1335, 944, 2670, 986, 829, 2059, 4000, 2245, 1224, 1122, 1731, 760, 2448, 2911]	9	Present	NA	NA	ABSENT	0.29427504539489746	134.5607328414917	136.55624794960022	137.25625581737333	137.60625796312056	140.6639370918274	4.107689142227173	[134.57117104530334, 134.6715190410614, 135.64726209640503, 135.82260608673096, 136.5735330581665, 136.690181016922, 136.80707907676697, 136.92387008666992, 137.04068899154663, 137.15755200386047, 137.27435302734375, 137.39115190505981, 137.5078821182251, 137.62468099594116, 137.7418360710144, 137.85808610916138, 137.97516989707947, 138.09171509742737, 138.208664894104, 138.3253469467163, 138.44222497940063, 138.6639370918274]	[134.56006857152127, 134.67673523818127, 135.65973523818127, 135.82643523818126, 136.57643523818126, 136.69310190484126, 136.80976857150125, 136.92643523816125, 137.04310190482124, 137.15976857148124, 137.27643523814123, 137.39310190480123, 137.50976857146122, 137.62643523812122, 137.7431019047812, 137.8597685714412, 137.9764352381012, 138.0931019047612, 138.2097685714212, 138.3264352380812, 138.44310190474118, 138.6764352380745]	2020_Nov_27_1408	59.931899206252815	1	0.375
7	24	FALSE	NA	a	['E', 'B', 'S', 'W', 'A', 'N', 'V', 'X', 'K', 'M', 'T', 'Z', 'H', 'U', 'P', 'J']	[904, 760, 1731, 2448, 697, 1335, 2245, 4000, 1122, 1224, 1888, 2911, 986, 2059, 1456, 1029]	8	Present	NA	NA	PRESENT	0.12300992012023926	140.66744589805603	142.67262196540833	143.25596316652144	143.60596531226864	146.78030395507812	4.1076819896698	[140.67788410186768, 140.7944860458374, 141.76362991333008, 141.94603610038757, 142.69666004180908, 142.81339406967163, 142.93028903007507, 143.04705095291138, 143.16396403312683, 143.28072595596313, 143.39762902259827, 143.51416993141174, 143.63121604919434, 143.74782991409302, 143.86476111412048, 143.98160004615784, 144.0982301235199, 144.21522998809814, 144.33175706863403, 144.44863510131836, 144.56548810005188, 144.78030395507812]	[140.6764352380745, 140.7931019047345, 141.7761019047345, 141.9428019047345, 142.6928019047345, 142.8094685713945, 142.92613523805448, 143.04280190471448, 143.15946857137448, 143.27613523803447, 143.39280190469447, 143.50946857135446, 143.62613523801446, 143.74280190467445, 143.85946857133445, 143.97613523799444, 144.09280190465444, 144.20946857131443, 144.32613523797443, 144.44280190463442, 144.55946857129442, 144.79280190462774]	2020_Nov_27_1408	59.931899206252815	1	0.375
7	25	FALSE	NA	a	['S', 'U', 'E', 'W', 'C', 'A', 'Y', 'Z', 'X', 'H', 'M', 'P', 'R', 'T', 'G', 'B']	[1731, 2059, 904, 2448, 829, 697, 2670, 2911, 4000, 986, 1224, 1456, 1587, 1888, 944, 760]	9	Present	NA	NA	PRESENT	0.192396879196167	146.7907989025116	148.78866696357727	149.48867387767606	149.8386760234233	152.89667010307312	4.10800313949585	[146.80123591423035, 146.91779494285583, 147.87999606132507, 148.05271792411804, 148.81993293762207, 148.92009210586548, 149.0367670059204, 149.15368604660034, 149.27039504051208, 149.38737297058105, 149.50402402877808, 149.62085795402527, 149.73768210411072, 149.85449695587158, 149.97126507759094, 150.08801889419556, 150.20491003990173, 150.3214681148529, 150.43834400177002, 150.5551700592041, 150.6720359325409, 150.89667105674744]	[146.79280190462774, 146.90946857128773, 147.89246857128774, 148.05916857128773, 148.80916857128773, 148.92583523794772, 149.04250190460772, 149.1591685712677, 149.2758352379277, 149.3925019045877, 149.5091685712477, 149.6258352379077, 149.7425019045677, 149.85916857122768, 149.97583523788768, 150.09250190454767, 150.20916857120767, 150.32583523786766, 150.44250190452766, 150.55916857118766, 150.67583523784765, 150.90916857118097]	2020_Nov_27_1408	59.931899206252815	1	0.375
7	26	FALSE	NA	a	['W', 'R', 'K', 'B', 'S', 'Z', 'V', 'U', 'P', 'X', 'H', 'C', 'M', 'J', 'E', 'A']	[2448, 1587, 1122, 760, 1731, 2911, 2245, 2059, 1456, 4000, 986, 829, 1224, 1029, 904, 697]	10	Present	NA	NA	PRESENT	0.14877581596374512	152.89720487594604	154.90516781806946	155.72184259092114	156.0718444982498	159.01303696632385	4.1078691482543945	[152.9076430797577, 153.0246560573578, 153.9963629245758, 154.17573189735413, 154.9265079498291, 155.04322695732117, 155.1601960659027, 155.27683901786804, 155.39388394355774, 155.51033902168274, 155.62731099128723, 155.74388790130615, 155.86091494560242, 155.97751712799072, 156.09449100494385, 156.21114206314087, 156.32806491851807, 156.4447100162506, 156.56155800819397, 156.67840790748596, 156.79504299163818, 157.01303696632385]	[152.90916857118097, 153.02583523784097, 154.00883523784097, 154.17553523784096, 154.92553523784096, 155.04220190450096, 155.15886857116095, 155.27553523782095, 155.39220190448094, 155.50886857114094, 155.62553523780093, 155.74220190446093, 155.85886857112092, 155.97553523778092, 156.0922019044409, 156.2088685711009, 156.3255352377609, 156.4422019044209, 156.5588685710809, 156.6755352377409, 156.79220190440088, 157.0255352377342]	2020_Nov_27_1408	59.931899206252815	1	0.375
7	27	FALSE	VA	a	['M', 'P', 'T', 'W', 'surprise', 'G', 'Z', 'X', 'J', 'R', 'K', 'N', 'S', 'V', 'H', 'A']	[1224, 1456, 1888, 2448, 'stimAuditory/all_stimAuditory/213.wav', 944, 2911, 4000, 1029, 1587, 1122, 1335, 1731, 2245, 986, 697]	8	Present	NA	NA	PRESENT	0.20229697227478027	159.02086400985718	161.02173900604248	161.6050802071556	161.9550823529028	165.12940406799316	4.107665061950684	[159.03130197525024, 159.1475899219513, 160.1127269268036, 160.29905200004578, 161.04967093467712, 161.16669607162476, 161.28328394889832, 161.40028309822083, 161.51685500144958, 161.6337969303131, 161.75041699409485, 161.86741709709167, 161.96717810630798, 162.0840380191803, 162.2008180618286, 162.3177149295807, 162.43452310562134, 162.55123496055603, 162.66804003715515, 162.78482794761658, 162.9015839099884, 163.12940311431885]	[159.0255352377342, 159.1422019043942, 160.1252019043942, 160.2919019043942, 161.0419019043942, 161.1585685710542, 161.27523523771418, 161.39190190437418, 161.50856857103417, 161.62523523769417, 161.74190190435417, 161.85856857101416, 161.97523523767416, 162.09190190433415, 162.20856857099415, 162.32523523765414, 162.44190190431414, 162.55856857097413, 162.67523523763413, 162.79190190429412, 162.90856857095412, 163.14190190428744]	2020_Nov_27_1408	59.931899206252815	1	0.375
7	28	FALSE	NA	a	['G', 'Y', 'C', 'R', 'B', 'S', 'U', 'N', 'H', 'P', 'T', 'A', 'J', 'X', 'Z', 'W']	[944, 2670, 829, 1587, 760, 1731, 2059, 1335, 986, 1456, 1888, 697, 1029, 4000, 2911, 2448]	14	Present	NA	NA	PRESENT	1.1107749938964844	165.1269178390503	167.1380259990692	168.421366246468	168.77136815379663	171.2457709312439	4.107744932174683	[165.13735508918762, 165.2540979385376, 166.22909808158875, 166.4055778980255, 167.1561770439148, 167.27297806739807, 167.3899130821228, 167.5065541267395, 167.6235511302948, 167.74028396606445, 167.85718297958374, 167.97381210327148, 168.09069395065308, 168.2073950767517, 168.32424306869507, 168.4409990310669, 168.55799102783203, 168.67451310157776, 168.791836977005, 168.9081530570984, 169.02499294281006, 169.2457721233368]	[165.14190190428744, 165.25856857094743, 166.24156857094744, 166.40826857094743, 167.15826857094743, 167.27493523760742, 167.39160190426742, 167.5082685709274, 167.6249352375874, 167.7416019042474, 167.8582685709074, 167.9749352375674, 168.0916019042274, 168.20826857088738, 168.32493523754738, 168.44160190420737, 168.55826857086737, 168.67493523752736, 168.79160190418736, 168.90826857084735, 169.02493523750735, 169.25826857084067]	2020_Nov_27_1408	59.931899206252815	1	0.375
7	29	FALSE	NN	a	['J', 'A', 'V', 'Y', 'C', 'N', 'E', 'W', 'G', 'U', 'Z', 'H', 'M', 'B', 'R', 'T']	[1029, 697, 2245, 2670, 829, 1335, 904, 2448, 944, 2059, 2911, 986, 1224, 760, 1587, 1888]	14	Absent	NA	NA	ABSENT	0.18719816207885745	171.2501528263092	173.2543168067932	174.5376582462849	174.88766015361352	177.3621380329132	4.107821226119995	[171.26059007644653, 171.37741804122925, 172.3454611301422, 172.52876710891724, 173.279550075531, 173.39624691009521, 173.5130479335785, 173.62993907928467, 173.7465159893036, 173.8634970188141, 173.9803159236908, 174.09713101387024, 174.21390199661255, 174.33065009117126, 174.44744110107422, 174.56428289413452, 174.681214094162, 174.79798007011414, 174.91454601287842, 175.0314610004425, 175.14821600914001, 175.3621380329132]	[171.25826857084067, 171.37493523750067, 172.35793523750067, 172.52463523750066, 173.27463523750066, 173.39130190416066, 173.50796857082065, 173.62463523748065, 173.74130190414064, 173.85796857080064, 173.97463523746063, 174.09130190412063, 174.20796857078062, 174.32463523744062, 174.4413019041006, 174.5579685707606, 174.6746352374206, 174.7913019040806, 174.9079685707406, 175.0246352374006, 175.14130190406058, 175.3746352373939]	2020_Nov_27_1408	59.931899206252815	1	0.375
7	30	FALSE	NN	a	['E', 'W', 'R', 'B', 'M', 'S', 'Z', 'H', 'J', 'K', 'T', 'A', 'G', 'V', 'P', 'C']	[904, 2448, 1587, 760, 1224, 1731, 2911, 986, 1029, 1122, 1888, 697, 944, 2245, 1456, 829]	13	Absent	NA	NA	ABSENT	0.08844614028930664	177.37351489067078	179.37085390090942	180.53752867374112	180.88753058106977	183.4785039424896	4.1076500415802	[177.3839509487152, 177.4838900566101, 178.46182894706726, 178.6352961063385, 179.38624095916748, 179.5029480457306, 179.61969089508057, 179.7363429069519, 179.85332989692688, 179.96988701820374, 180.08681106567383, 180.2037320137024, 180.32046008110046, 180.43733096122742, 180.55408811569214, 180.67073512077332, 180.78747606277466, 180.904452085495, 181.02126908302307, 181.13792991638184, 181.25476908683777, 181.47850394248962]	[177.3746352373939, 177.4913019040539, 178.4743019040539, 178.6410019040539, 179.3910019040539, 179.5076685707139, 179.62433523737388, 179.74100190403388, 179.85766857069387, 179.97433523735387, 180.09100190401386, 180.20766857067386, 180.32433523733386, 180.44100190399385, 180.55766857065385, 180.67433523731384, 180.79100190397384, 180.90766857063383, 181.02433523729383, 181.14100190395382, 181.25766857061382, 181.49100190394714]	2020_Nov_27_1408	59.931899206252815	1	0.375
7	31	FALSE	NN	a	['J', 'C', 'N', 'W', 'A', 'E', 'V', 'Y', 'T', 'R', 'B', 'K', 'H', 'U', 'S', 'Z']	[1029, 829, 1335, 2448, 697, 904, 2245, 2670, 1888, 1587, 760, 1122, 986, 2059, 1731, 2911]	11	Absent	NA	NA	ABSENT	0.21309494972229004	183.4800248146057	185.48693180084229	186.42027324035396	186.7702751476826	189.59487104415896	4.10793924331665	[183.49046206474304, 183.60737991333008, 184.57819509506226, 184.75856804847717, 185.5093550682068, 185.62601590156555, 185.74287104606628, 185.85974192619324, 185.97654700279236, 186.0931921005249, 186.20995593070984, 186.32673811912537, 186.44372391700745, 186.5605571269989, 186.67722511291504, 186.79413604736328, 186.9109649658203, 187.02756810188293, 187.144593000412, 187.261234998703, 187.37805104255676, 187.59487009048462]	[183.49100190394714, 183.60766857060713, 184.59066857060714, 184.75736857060713, 185.50736857060713, 185.62403523726712, 185.74070190392712, 185.8573685705871, 185.9740352372471, 186.0907019039071, 186.2073685705671, 186.3240352372271, 186.4407019038871, 186.55736857054708, 186.67403523720708, 186.79070190386707, 186.90736857052707, 187.02403523718706, 187.14070190384706, 187.25736857050705, 187.37403523716705, 187.60736857050037]	2020_Nov_27_1408	59.931899206252815	1	0.375
7	32	FALSE	NA	a	['N', 'M', 'U', 'J', 'E', 'T', 'K', 'R', 'Y', 'W', 'G', 'X', 'B', 'C', 'Z', 'V']	[1335, 1224, 2059, 1029, 904, 1888, 1122, 1587, 2670, 2448, 944, 4000, 760, 829, 2911, 2245]	12	Present	NA	NA	PRESENT	0.0821218490600586	189.60371589660645	191.6032238006592	192.65323190683088	193.0032338141595	195.71123695373535	4.108013153076172	[189.6141529083252, 189.73065209388733, 190.69456005096436, 190.8816180229187, 191.63257098197937, 191.7492060661316, 191.8493320941925, 191.96607398986816, 192.08289194107056, 192.1996591091156, 192.31649112701416, 192.43334889411926, 192.55014491081238, 192.66686701774597, 192.78372812271118, 192.9004909992218, 193.01743912696838, 193.13432598114014, 193.25104689598083, 193.36770510673523, 193.4847059249878, 193.71123695373535]	[189.60736857050037, 189.72403523716036, 190.70703523716037, 190.87373523716036, 191.62373523716036, 191.74040190382036, 191.85706857048035, 191.97373523714035, 192.09040190380034, 192.20706857046034, 192.32373523712033, 192.44040190378033, 192.55706857044032, 192.67373523710032, 192.7904019037603, 192.9070685704203, 193.0237352370803, 193.1404019037403, 193.2570685704003, 193.3737352370603, 193.49040190372028, 193.7237352370536]	2020_Nov_27_1408	59.931899206252815	1	0.375
7	33	FALSE	NV	a	['B', 'W', 'T', 'A', 'P', 'M', 'N', 'R', 'C', 'V', 'K', 'J', 'X', 'H', 'S', 'U']	[760, 2448, 1888, 697, 1456, 1224, 1335, 1587, 829, 2245, 1122, 1029, 4000, 986, 1731, 2059]	13	Present	NA	NA	PRESENT	0.05480504035949707	195.7097887992859	197.7198338508606	198.886507670018	199.2365095773466	201.82760405540463	4.107770204544067	[195.72022604942322, 195.83721709251404, 196.8109269142151, 196.98836302757263, 197.73912906646729, 197.85583400726318, 197.97274708747864, 198.08942890167236, 198.20641207695007, 198.32293891906738, 198.43993711471558, 198.55663990974426, 198.67354702949524, 198.79058003425598, 198.9070909023285, 199.02377104759216, 199.14058208465576, 199.25740909576416, 199.3743360042572, 199.4910020828247, 199.60771298408508, 199.82760310173035]	[195.7237352370536, 195.8404019037136, 196.8234019037136, 196.9901019037136, 197.7401019037136, 197.8567685703736, 197.97343523703358, 198.09010190369358, 198.20676857035357, 198.32343523701357, 198.44010190367356, 198.55676857033356, 198.67343523699356, 198.79010190365355, 198.90676857031355, 199.02343523697354, 199.14010190363354, 199.25676857029353, 199.37343523695353, 199.49010190361352, 199.60676857027352, 199.84010190360684]	2020_Nov_27_1408	59.931899206252815	1	0.375
7	34	FALSE	NA	a	['Z', 'K', 'P', 'M', 'R', 'A', 'H', 'N', 'W', 'E', 'T', 'Y', 'X', 'C', 'U', 'J']	[2911, 1122, 1456, 1224, 1587, 697, 986, 1335, 2448, 904, 1888, 2670, 4000, 829, 2059, 1029]	13	Present	NA	NA	PRESENT	0.755756139755249	201.83325481414795	203.83600401878357	205.00267759952237	205.352679506851	207.9439709186554	4.107966899871826	[201.84369206428528, 201.96016597747803, 202.9272940158844, 203.111750125885, 203.8624210357666, 203.97918105125427, 204.09599804878235, 204.21268701553345, 204.32949995994568, 204.44634103775024, 204.56318497657776, 204.68003296852112, 204.79658603668213, 204.91347098350525, 205.03039598464966, 205.1471951007843, 205.26378202438354, 205.38081192970276, 205.49745392799377, 205.6143500804901, 205.73130893707275, 205.94396901130676]	[201.84010190360684, 201.95676857026683, 202.93976857026684, 203.10646857026683, 203.85646857026683, 203.97313523692682, 204.08980190358682, 204.2064685702468, 204.3231352369068, 204.4398019035668, 204.5564685702268, 204.6731352368868, 204.7898019035468, 204.90646857020678, 205.02313523686678, 205.13980190352677, 205.25646857018677, 205.37313523684676, 205.48980190350676, 205.60646857016675, 205.72313523682675, 205.95646857016007]	2020_Nov_27_1408	59.931899206252815	1	0.375
7	35	FALSE	NA	a	['A', 'K', 'B', 'W', 'H', 'S', 'E', 'T', 'U', 'G', 'M', 'C', 'R', 'X', 'J', 'P']	[697, 1122, 760, 2448, 986, 1731, 904, 1888, 2059, 944, 1224, 829, 1587, 4000, 1029, 1456]	14	Present	NA	NA	PRESENT	0.4326341152191162	207.93956780433655	209.95226979255676	211.23561123204848	211.58561313937707	214.0603380203247	4.108068227767944	[207.95002603530884, 208.0669400691986, 209.04365992546082, 209.2182490825653, 209.9687910079956, 210.0858371257782, 210.20260000228882, 210.31919503211975, 210.4361801147461, 210.55282497406006, 210.66969108581543, 210.78632497787476, 210.90322303771973, 211.01989912986755, 211.13684701919556, 211.25349307060242, 211.3704960346222, 211.4871690273285, 211.60415601730347, 211.72070598602295, 211.83753299713135, 212.0603370666504]	[207.95646857016007, 208.07313523682006, 209.05613523682007, 209.22283523682006, 209.97283523682006, 210.08950190348006, 210.20616857014005, 210.32283523680005, 210.43950190346004, 210.55616857012004, 210.67283523678003, 210.78950190344003, 210.90616857010002, 211.02283523676002, 211.13950190342, 211.25616857008, 211.37283523674, 211.4895019034, 211.60616857006, 211.72283523672, 211.83950190337998, 212.0728352367133]	2020_Nov_27_1408	59.931899206252815	1	0.375
7	36	FALSE	NN	a	['Z', 'G', 'V', 'C', 'Y', 'M', 'S', 'J', 'K', 'R', 'A', 'W', 'B', 'P', 'N', 'H']	[2911, 944, 2245, 829, 2670, 1224, 1731, 1029, 1122, 1587, 697, 2448, 760, 1456, 1335, 986]	12	Absent	NA	NA	ABSENT	0.14115095138549805	214.06293082237244	216.06904482841492	217.11905293458665	217.46905484191524	220.17670392990112	4.107659101486206	[214.07336902618408, 214.19020891189575, 215.16002702713013, 215.3414421081543, 216.092129945755, 216.20901203155518, 216.325777053833, 216.44247007369995, 216.55929613113403, 216.67608189582825, 216.79303193092346, 216.90967893600464, 217.02661204338074, 217.14333605766296, 217.26003098487854, 217.3770170211792, 217.4936079978943, 217.61061310768127, 217.72741103172302, 217.8440511226654, 217.9608759880066, 218.17670392990112]	[214.0728352367133, 214.1895019033733, 215.1725019033733, 215.3392019033733, 216.0892019033733, 216.2058685700333, 216.32253523669328, 216.43920190335328, 216.55586857001327, 216.67253523667327, 216.78920190333326, 216.90586856999326, 217.02253523665325, 217.13920190331325, 217.25586856997325, 217.37253523663324, 217.48920190329324, 217.60586856995323, 217.72253523661323, 217.83920190327322, 217.95586856993322, 218.18920190326654]	2020_Nov_27_1408	59.931899206252815	1	0.375
7	37	FALSE	NV	a	['N', 'R', 'G', 'K', 'H', 'T', 'W', 'P', 'B', 'C', 'V', 'Y', 'X', 'Z', 'A', 'E']	[1335, 1587, 944, 1122, 986, 1888, 2448, 1456, 760, 829, 2245, 2670, 4000, 2911, 697, 904]	13	Present	NA	NA	ABSENT	0.5465090274810791	220.1863598823547	222.1850619316101	223.35173646602323	223.7017386117704	226.29307007789612	4.108008146286011	[220.19679808616638, 220.313236951828, 221.27639412879944, 221.44777989387512, 222.21547198295593, 222.3153350353241, 222.43223595619202, 222.5491020679474, 222.66571712493896, 222.78251194953918, 222.89931297302246, 223.0161259174347, 223.1330840587616, 223.24985694885254, 223.3667070865631, 223.48342108726501, 223.60026907920837, 223.71702694892883, 223.8336799144745, 223.95051407814026, 224.06737995147705, 224.29307103157043]	[220.18920190326654, 220.30586856992653, 221.28886856992654, 221.45556856992653, 222.20556856992653, 222.32223523658652, 222.43890190324652, 222.5555685699065, 222.6722352365665, 222.7889019032265, 222.9055685698865, 223.0222352365465, 223.1389019032065, 223.25556856986648, 223.37223523652648, 223.48890190318647, 223.60556856984647, 223.72223523650646, 223.83890190316646, 223.95556856982645, 224.07223523648645, 224.30556856981977]	2020_Nov_27_1408	59.931899206252815	1	0.375
7	38	FALSE	NV	a	['K', 'W', 'T', 'N', 'P', 'A', 'H', 'C', 'Y', 'E', 'M', 'X', 'V', 'U', 'B', 'R']	[1122, 2448, 1888, 1335, 1456, 697, 986, 829, 2670, 904, 1224, 4000, 2245, 2059, 760, 1587]	12	Present	NA	NA	PRESENT	0.03121304512023925	226.29273295402527	228.30167078971863	229.35167889589033	229.70168080321895	232.40943694114685	4.107766151428223	[226.30317091941833, 226.41985392570496, 227.3927640914917, 227.5711441040039, 228.32201194763184, 228.43866801261902, 228.5554850101471, 228.6722469329834, 228.7892050743103, 228.90584301948547, 229.0227129459381, 229.13950204849243, 229.2562870979309, 229.37309098243713, 229.48986911773682, 229.60671496391296, 229.72350406646729, 229.84063410758972, 229.95715403556824, 230.07379603385925, 230.1904489994049, 230.40943789482117]	[226.30556856981977, 226.42223523647976, 227.40523523647977, 227.57193523647976, 228.32193523647976, 228.43860190313976, 228.55526856979975, 228.67193523645975, 228.78860190311974, 228.90526856977974, 229.02193523643973, 229.13860190309973, 229.25526856975972, 229.37193523641972, 229.4886019030797, 229.6052685697397, 229.7219352363997, 229.8386019030597, 229.9552685697197, 230.0719352363797, 230.18860190303968, 230.421935236373]	2020_Nov_27_1408	59.931899206252815	1	0.375
7	39	FALSE	AN	a	['V', 'Z', 'Y', 'C', 'U', 'B', 'J', 'surprise', 'S', 'M', 'P', 'A', 'G', 'E', 'R', 'N']	[2245, 2911, 2670, 829, 2059, 760, 1029, 'stimAuditory/all_stimAuditory/201.wav', 1731, 1224, 1456, 697, 944, 904, 1587, 1335]	11	Absent	stimAuditory/all_stimAuditory/110.wav	NA	ABSENT	0.2207391262054443	232.4160168170929	234.4179618358612	235.35130327537289	235.70130518270153	238.52580499649048	4.1078431606292725	[232.42645502090454, 232.5430359840393, 233.50912499427795, 233.69424390792847, 234.44516396522522, 234.56193804740906, 234.67886304855347, 234.79556703567505, 234.9123239517212, 235.02919793128967, 235.1458659172058, 235.2628800868988, 235.37947010993958, 235.49622201919556, 235.61318397521973, 235.7302761077881, 235.8465518951416, 235.96339392662048, 236.0802240371704, 236.18014907836914, 236.29700899124146, 236.52580404281616]	[232.421935236373, 232.538601903033, 233.521601903033, 233.688301903033, 234.438301903033, 234.554968569693, 234.67163523635298, 234.78830190301298, 234.90496856967297, 235.02163523633297, 235.13830190299296, 235.25496856965296, 235.37163523631295, 235.48830190297295, 235.60496856963294, 235.72163523629294, 235.83830190295294, 235.95496856961293, 236.07163523627293, 236.18830190293292, 236.30496856959292, 236.53830190292624]	2020_Nov_27_1408	59.931899206252815	1	0.375
7	40	FALSE	NN	a	['U', 'N', 'A', 'Y', 'T', 'V', 'K', 'S', 'B', 'G', 'R', 'E', 'H', 'C', 'M', 'J']	[2059, 1335, 697, 2670, 1888, 2245, 1122, 1731, 760, 944, 1587, 904, 986, 829, 1224, 1029]	8	Absent	NA	NA	ABSENT	0.04100489616394043	238.5223598480225	240.53439497947693	241.11773618059004	241.46773832633724	244.64216995239255	4.107774972915649	[238.5327980518341, 238.6495819091797, 239.62549591064453, 239.801274061203, 240.5517280101776, 240.66836309432983, 240.78537893295288, 240.90214109420776, 241.01895999908447, 241.13550209999084, 241.252543926239, 241.36926698684692, 241.4860861301422, 241.60276699066162, 241.719496011734, 241.83645391464233, 241.95315194129944, 242.0700490474701, 242.18696093559265, 242.30366611480713, 242.42047309875488, 242.64216995239258]	[238.53830190292624, 238.65496856958623, 239.63796856958623, 239.80466856958623, 240.55466856958623, 240.67133523624622, 240.78800190290622, 240.9046685695662, 241.0213352362262, 241.1380019028862, 241.2546685695462, 241.3713352362062, 241.4880019028662, 241.60466856952618, 241.72133523618618, 241.83800190284617, 241.95466856950617, 242.07133523616616, 242.18800190282616, 242.30466856948615, 242.42133523614615, 242.65466856947947]	2020_Nov_27_1408	59.931899206252815	1	0.375
7	41	FALSE	NA	a	['C', 'N', 'T', 'G', 'A', 'W', 'U', 'X', 'S', 'K', 'M', 'Y', 'H', 'R', 'V', 'B']	[829, 1335, 1888, 944, 697, 2448, 2059, 4000, 1731, 1122, 1224, 2670, 986, 1587, 2245, 760]	8	Present	NA	NA	PRESENT	0.02141308784484863	244.64577388763428	246.65054297447205	247.23388417558516	247.58388632133236	250.7585370540619	4.107994079589844	[244.65621089935303, 244.77288794517517, 245.74186396598816, 245.92421293258667, 246.67502403259277, 246.79182696342468, 246.90868210792542, 247.02543091773987, 247.14217400550842, 247.2590548992157, 247.37571597099304, 247.49254512786865, 247.60926389694214, 247.7263889312744, 247.84277391433716, 247.95970797538757, 248.07660293579102, 248.1931140422821, 248.31002402305603, 248.42690992355347, 248.54359006881714, 248.7585380077362]	[244.65466856947947, 244.77133523613946, 245.75433523613947, 245.92103523613946, 246.67103523613946, 246.78770190279945, 246.90436856945945, 247.02103523611945, 247.13770190277944, 247.25436856943944, 247.37103523609943, 247.48770190275943, 247.60436856941942, 247.72103523607942, 247.8377019027394, 247.9543685693994, 248.0710352360594, 248.1877019027194, 248.3043685693794, 248.4210352360394, 248.53770190269938, 248.7710352360327]	2020_Nov_27_1408	59.931899206252815	1	0.375
7	42	FALSE	NN	a	['S', 'A', 'H', 'N', 'M', 'K', 'R', 'C', 'G', 'Y', 'W', 'B', 'U', 'E', 'V', 'T']	[1731, 697, 986, 1335, 1224, 1122, 1587, 829, 944, 2670, 2448, 760, 2059, 904, 2245, 1888]	8	Absent	NA	NA	ABSENT	0.06683492660522461	250.7692699432373	252.7672758102417	253.3506172497734	253.700619157102	256.8749029636383	4.1076271533966064	[250.77970790863037, 250.89634490013123, 251.85823011398315, 252.03062391281128, 252.79817390441895, 252.89825797080994, 253.01527309417725, 253.13199305534363, 253.24875903129578, 253.36539506912231, 253.48233890533447, 253.59900403022766, 253.71595907211304, 253.83255791664124, 253.94947290420532, 254.0660469532013, 254.1830599308014, 254.29985404014587, 254.4166669845581, 254.53340411186218, 254.6500759124756, 254.87490391731262]	[250.7710352360327, 250.8877019026927, 251.8707019026927, 252.0374019026927, 252.7874019026927, 252.9040685693527, 253.02073523601268, 253.13740190267268, 253.25406856933267, 253.37073523599267, 253.48740190265266, 253.60406856931266, 253.72073523597265, 253.83740190263265, 253.95406856929264, 254.07073523595264, 254.18740190261263, 254.30406856927263, 254.42073523593263, 254.53740190259262, 254.65406856925262, 254.88740190258594]	2020_Nov_27_1408	59.931899206252815	1	0.375
7	43	FALSE	NA	a	['A', 'W', 'H', 'E', 'S', 'P', 'M', 'Z', 'G', 'R', 'Y', 'J', 'X', 'V', 'T', 'B']	[697, 2448, 986, 904, 1731, 1456, 1224, 2911, 944, 1587, 2670, 1029, 4000, 2245, 1888, 760]	13	Present	NA	NA	PRESENT	0.04755997657775879	256.875599861145	258.883339881897	260.0500134626358	260.400015608383	262.9912700653076	4.1079301834106445	[256.88603806495667, 257.00278902053833, 257.97459602355957, 258.15393900871277, 258.9048330783844, 259.02159690856934, 259.1383390426636, 259.2551009654999, 259.371789932251, 259.4886610507965, 259.60541009902954, 259.722286939621, 259.83915400505066, 259.955904006958, 260.0725939273834, 260.18961000442505, 260.3063659667969, 260.42311000823975, 260.5397720336914, 260.6567189693451, 260.7737910747528, 260.9912700653076]	[256.8874019025859, 257.00406856924593, 257.98706856924593, 258.1537685692459, 258.9037685692459, 259.02043523590595, 259.137101902566, 259.253768569226, 259.370435235886, 259.48710190254604, 259.60376856920607, 259.7204352358661, 259.8371019025261, 259.95376856918614, 260.07043523584616, 260.1871019025062, 260.3037685691662, 260.42043523582623, 260.53710190248626, 260.6537685691463, 260.7704352358063, 261.00376856913965]	2020_Nov_27_1408	59.931899206252815	1	0.375
7	44	FALSE	NV	a	['G', 'S', 'W', 'U', 'P', 'Z', 'N', 'B', 'M', 'X', 'R', 'A', 'T', 'V', 'Y', 'K']	[944, 1731, 2448, 2059, 1456, 2911, 1335, 760, 1224, 4000, 1587, 697, 1888, 2245, 2670, 1122]	10	Present	NA	NA	PRESENT	0.02084279060363769	262.99877285957336	264.9998879432678	265.8165615240266	266.16656366977384	269.10763692855835	4.107748985290527	[263.0092101097107, 263.1259961128235, 264.090961933136, 264.27729201316833, 265.02799797058105, 265.144877910614, 265.2617220878601, 265.3784899711609, 265.495197057724, 265.61205101013184, 265.72896099090576, 265.8455328941345, 265.94551396369934, 266.0622990131378, 266.17913699150085, 266.2958481311798, 266.41271591186523, 266.5295000076294, 266.64626812934875, 266.763060092926, 266.87985610961914, 267.10763692855835]	[263.00376856913965, 263.1204352357997, 264.1034352357997, 264.27013523579967, 265.02013523579967, 265.1368019024597, 265.2534685691197, 265.37013523577974, 265.48680190243977, 265.6034685690998, 265.7201352357598, 265.83680190241984, 265.95346856907986, 266.0701352357399, 266.1868019023999, 266.30346856905993, 266.42013523571995, 266.53680190238, 266.65346856904, 266.7701352357, 266.88680190236005, 267.1201352356934]	2020_Nov_27_1408	59.931899206252815	1	0.375
7	45	FALSE	NV	a	['A', 'B', 'Y', 'G', 'W', 'Z', 'R', 'N', 'X', 'C', 'P', 'J', 'E', 'V', 'U', 'H']	[697, 760, 2670, 944, 2448, 2911, 1587, 1335, 4000, 829, 1456, 1029, 904, 2245, 2059, 986]	9	Present	NA	NA	PRESENT	0.01728415489196777	269.1053237915039	271.1160697937012	271.8160778998929	272.1660798072215	275.22400403022766	4.107934236526489	[269.11576104164124, 269.2326240539551, 270.2073290348053, 270.3837389945984, 271.13479495048523, 271.2515571117401, 271.3679609298706, 271.48489594459534, 271.601891040802, 271.71848011016846, 271.8351900577545, 271.9521040916443, 272.06896710395813, 272.18562602996826, 272.30250310897827, 272.4192728996277, 272.5360450744629, 272.65277004241943, 272.7696521282196, 272.88640308380127, 273.00311493873596, 273.22400307655334]	[269.1201352356934, 269.2368019023534, 270.2198019023534, 270.3865019023534, 271.1365019023534, 271.25316856901344, 271.36983523567346, 271.4865019023335, 271.6031685689935, 271.71983523565353, 271.83650190231356, 271.9531685689736, 272.0698352356336, 272.1865019022936, 272.30316856895365, 272.4198352356137, 272.5365019022737, 272.6531685689337, 272.76983523559375, 272.88650190225377, 273.0031685689138, 273.23650190224714]	2020_Nov_27_1408	59.931899206252815	1	0.375
7	46	FALSE	NN	a	['Z', 'Y', 'P', 'W', 'C', 'K', 'A', 'N', 'R', 'B', 'S', 'G', 'U', 'V', 'M', 'T']	[2911, 2670, 1456, 2448, 829, 1122, 697, 1335, 1587, 760, 1731, 944, 2059, 2245, 1224, 1888]	9	Absent	NA	NA	ABSENT	1.0538990497589111	275.22858595848083	277.23240399360657	277.9324118613797	278.2824149608012	281.3403699398041	4.10796594619751	[275.2390239238739, 275.3557140827179, 276.3236970901489, 276.5068519115448, 277.2578229904175, 277.3745970726013, 277.4914879798889, 277.6082990169525, 277.7253429889679, 277.84186697006226, 277.95853900909424, 278.0753400325775, 278.1921339035034, 278.3087739944458, 278.42558193206787, 278.5423369407654, 278.65938210487366, 278.77604699134827, 278.89280700683594, 279.0096890926361, 279.1265001296997, 279.340371131897]	[275.23650190224714, 275.35316856890717, 276.33616856890717, 276.50286856890716, 277.25286856890716, 277.3695352355672, 277.4862019022272, 277.60286856888723, 277.71953523554726, 277.8362019022073, 277.9528685688673, 278.0695352355273, 278.18620190218735, 278.3028685688474, 278.4195352355074, 278.5362019021674, 278.65286856882744, 278.76953523548747, 278.8862019021475, 279.0028685688075, 279.11953523546754, 279.3528685688009]	2020_Nov_27_1408	59.931899206252815	1	0.375
7	47	FALSE	NV	a	['G', 'V', 'C', 'B', 'T', 'P', 'S', 'W', 'Z', 'N', 'J', 'K', 'U', 'X', 'E', 'Y']	[944, 2245, 829, 760, 1888, 1456, 1731, 2448, 2911, 1335, 1029, 1122, 2059, 4000, 904, 2670]	14	Present	NA	NA	PRESENT	0.2431190013885498	281.3518919944763	283.3488550186157	284.6321952660145	284.98219812701745	287.4567379951477	4.107882976531982	[281.3623299598694, 281.4622220993042, 282.4400599002838, 282.6135609149933, 283.36424708366394, 283.4809989929199, 283.597953081131, 283.71466398239136, 283.8314480781555, 283.9483160972595, 284.0652139186859, 284.1817629337311, 284.2987480163574, 284.41545391082764, 284.53226804733276, 284.6490230560303, 284.7658829689026, 284.88262009620667, 284.9993450641632, 285.1162819862366, 285.2332019805908, 285.4567379951477]	[281.3528685688009, 281.4695352354609, 282.4525352354609, 282.6192352354609, 283.3692352354609, 283.48590190212093, 283.60256856878095, 283.719235235441, 283.835901902101, 283.952568568761, 284.06923523542105, 284.18590190208107, 284.3025685687411, 284.4192352354011, 284.53590190206114, 284.65256856872116, 284.7692352353812, 284.8859019020412, 285.00256856870124, 285.11923523536126, 285.2359019020213, 285.46923523535463]	2020_Nov_27_1408	59.931899206252815	1	0.375
7	48	FALSE	NN	a	['M', 'P', 'B', 'J', 'V', 'N', 'U', 'Y', 'S', 'A', 'C', 'T', 'G', 'E', 'H', 'W']	[1224, 1456, 760, 1029, 2245, 1335, 2059, 2670, 1731, 697, 829, 1888, 944, 904, 986, 2448]	10	Absent	NA	NA	ABSENT	0.5197808742523193	287.4581890106201	289.4652428627014	290.2819176355531	290.63191954288175	293.5731039047241	4.107861042022705	[287.4686269760132, 287.58550000190735, 288.5564389228821, 288.73680090904236, 289.4875259399414, 289.60448694229126, 289.7212610244751, 289.83786511421204, 289.95472407341003, 290.0716769695282, 290.188285112381, 290.305193901062, 290.42179894447327, 290.5387511253357, 290.6556029319763, 290.7726640701294, 290.88899993896484, 291.0059881210327, 291.12256693840027, 291.23931789398193, 291.35616302490234, 291.5731029510498]	[287.46923523535463, 287.58590190201465, 288.56890190201466, 288.73560190201465, 289.48560190201465, 289.6022685686747, 289.7189352353347, 289.8356019019947, 289.95226856865474, 290.06893523531477, 290.1856019019748, 290.3022685686348, 290.41893523529484, 290.53560190195486, 290.6522685686149, 290.7689352352749, 290.88560190193493, 291.00226856859496, 291.118935235255, 291.235601901915, 291.352268568575, 291.5856019019084]	2020_Nov_27_1408	59.931899206252815	1	0.375
7	49	FALSE	NV	a	['U', 'K', 'S', 'V', 'G', 'H', 'M', 'W', 'B', 'T', 'Z', 'N', 'X', 'R', 'P', 'C']	[2059, 1122, 1731, 2245, 944, 986, 1224, 2448, 760, 1888, 2911, 1335, 4000, 1587, 1456, 829]	13	Present	NA	NA	PRESENT	0.14089703559875488	293.58156085014343	295.58186984062195	296.74854556712796	297.0985474744566	299.6894700527191	4.107600212097168	[293.59199810028076, 293.7087891101837, 294.67279601097107, 294.8598289489746, 295.61074590682983, 295.7107470035553, 295.82763504981995, 295.9443199634552, 296.0611789226532, 296.1779680252075, 296.2947630882263, 296.4115619659424, 296.5282859802246, 296.6450710296631, 296.76203298568726, 296.87868094444275, 296.9954779148102, 297.11231994628906, 297.22915506362915, 297.346009016037, 297.46263909339905, 297.68947100639343]	[293.5856019019084, 293.7022685685684, 294.6852685685684, 294.8519685685684, 295.6019685685684, 295.7186352352284, 295.83530190188844, 295.95196856854847, 296.0686352352085, 296.1853019018685, 296.30196856852854, 296.41863523518856, 296.5353019018486, 296.6519685685086, 296.76863523516863, 296.88530190182865, 297.0019685684887, 297.1186352351487, 297.2353019018087, 297.35196856846875, 297.4686352351288, 297.7019685684621]	2020_Nov_27_1408	59.931899206252815	1	0.375
7	50	FALSE	NV	a	['P', 'E', 'Y', 'B', 'H', 'M', 'V', 'S', 'T', 'X', 'Z', 'C', 'W', 'N', 'K', 'J']	[1456, 904, 2670, 760, 986, 1224, 2245, 1731, 1888, 4000, 2911, 829, 2448, 1335, 1122, 1029]	10	Present	NA	NA	PRESENT	0.00155806541442871	299.68819093704224	301.697890996933	302.5145655313661	302.8645676771133	305.80583810806274	4.107947111129761	[299.6986289024353, 299.81537199020386, 300.7891631126404, 300.96689796447754, 301.7179160118103, 301.83420491218567, 301.9510169029236, 302.06781101226807, 302.18446803092957, 302.30126309394836, 302.41828894615173, 302.5349450111389, 302.65179991722107, 302.76836490631104, 302.8851590156555, 303.0020570755005, 303.1187069416046, 303.23568892478943, 303.35247707366943, 303.4692919254303, 303.58600306510925, 303.80583810806274]	[299.7019685684621, 299.81863523512214, 300.80163523512215, 300.96833523512214, 301.71833523512214, 301.83500190178216, 301.9516685684422, 302.0683352351022, 302.18500190176223, 302.30166856842226, 302.4183352350823, 302.5350019017423, 302.65166856840233, 302.76833523506235, 302.8850019017224, 303.0016685683824, 303.1183352350424, 303.23500190170245, 303.35166856836247, 303.4683352350225, 303.5850019016825, 303.81833523501587]	2020_Nov_27_1408	59.931899206252815	1	0.375
7	51	FALSE	NV	a	['B', 'E', 'K', 'W', 'R', 'J', 'Z', 'X', 'Y', 'H', 'S', 'M', 'T', 'P', 'C', 'A']	[760, 904, 1122, 2448, 1587, 1029, 2911, 4000, 2670, 986, 1731, 1224, 1888, 1456, 829, 697]	8	Present	NA	NA	PRESENT	0.5498771667480469	305.8111639022827	307.8144748210907	308.3978162606224	308.74781816795104	311.92220306396484	4.1077282428741455	[305.82160210609436, 305.9386239051819, 306.90553092956543, 307.08961606025696, 307.8404850959778, 307.95746207237244, 308.0742070674896, 308.19106793403625, 308.30783700942993, 308.4245889186859, 308.5414159297943, 308.6580641269684, 308.77483201026917, 308.89179491996765, 309.00865292549133, 309.12512493133545, 309.2419240474701, 309.3590121269226, 309.4757161140442, 309.5925269126892, 309.7093529701233, 309.92220401763916]	[305.81833523501587, 305.9350019016759, 306.9180019016759, 307.0847019016759, 307.8347019016759, 307.9513685683359, 308.06803523499593, 308.18470190165596, 308.301368568316, 308.418035234976, 308.534701901636, 308.65136856829605, 308.7680352349561, 308.8847019016161, 309.0013685682761, 309.11803523493614, 309.23470190159617, 309.3513685682562, 309.4680352349162, 309.58470190157624, 309.70136856823626, 309.9347019015696]	2020_Nov_27_1408	59.931899206252815	1	0.375
7	52	FALSE	NN	a	['V', 'T', 'M', 'A', 'W', 'H', 'R', 'J', 'E', 'S', 'Z', 'N', 'C', 'P', 'Y', 'U']	[2245, 1888, 1224, 697, 2448, 986, 1587, 1029, 904, 1731, 2911, 1335, 829, 1456, 2670, 2059]	9	Absent	NA	NA	ABSENT	0.05920100212097168	311.917977809906	313.93066787719727	314.630675983389	314.9806778907176	318.0385711193085	4.107903242111206	[311.92841506004333, 312.0449860095978, 313.0218961238861, 313.1964190006256, 313.94707012176514, 314.06389808654785, 314.18075704574585, 314.29760694503784, 314.41442108154297, 314.5310869216919, 314.647980928421, 314.76471304893494, 314.88163208961487, 314.99831795692444, 315.11497712135315, 315.23182010650635, 315.34872794151306, 315.4655499458313, 315.58208203315735, 315.6990909576416, 315.8157639503479, 316.0385699272156]	[311.9347019015696, 312.05136856822963, 313.03436856822964, 313.20106856822963, 313.95106856822963, 314.06773523488965, 314.1844019015497, 314.3010685682097, 314.4177352348697, 314.53440190152975, 314.65106856818977, 314.7677352348498, 314.8844019015098, 315.00106856816984, 315.11773523482987, 315.2344019014899, 315.3510685681499, 315.46773523480994, 315.58440190146996, 315.70106856813, 315.81773523479, 316.05106856812336]	2020_Nov_27_1408	59.931899206252815	1	0.375
7	53	FALSE	NN	a	['C', 'N', 'K', 'V', 'H', 'W', 'U', 'P', 'J', 'R', 'M', 'E', 'T', 'G', 'Y', 'A']	[829, 1335, 1122, 2245, 986, 2448, 2059, 1456, 1029, 1587, 1224, 904, 1888, 944, 2670, 697]	9	Absent	NA	NA	ABSENT	0.05581116676330566	318.0412058830261	320.04729080200195	320.74729795451935	321.09730081552226	324.1549370288849	4.107646226882935	[318.0516459941864, 318.16840505599976, 319.13826298713684, 319.31961703300476, 320.0702209472656, 320.18727803230286, 320.3040599822998, 320.42082810401917, 320.5376069545746, 320.6543800830841, 320.7712390422821, 320.8878619670868, 321.00484704971313, 321.12157106399536, 321.23816204071045, 321.35506892204285, 321.471971988678, 321.5887141227722, 321.7054269313812, 321.8223879337311, 321.9391050338745, 322.1549370288849]	[318.05106856812336, 318.1677352347834, 319.1507352347834, 319.3174352347834, 320.0674352347834, 320.1841019014434, 320.3007685681034, 320.41743523476345, 320.53410190142347, 320.6507685680835, 320.7674352347435, 320.88410190140354, 321.00076856806356, 321.1174352347236, 321.2341019013836, 321.35076856804363, 321.46743523470366, 321.5841019013637, 321.7007685680237, 321.8174352346837, 321.93410190134375, 322.1674352346771]	2020_Nov_27_1408	59.931899206252815	1	0.375
7	54	FALSE	NN	a	['M', 'E', 'G', 'J', 'R', 'W', 'V', 'U', 'P', 'H', 'A', 'B', 'Z', 'K', 'C', 'T']	[1224, 904, 944, 1029, 1587, 2448, 2245, 2059, 1456, 986, 697, 760, 2911, 1122, 829, 1888]	8	Absent	NA	NA	PRESENT	0.5013411045074463	324.16424798965454	326.1636428833008	326.7469843228325	327.0969852764868	330.2713029384613	4.1076600551605225	[324.1746859550476, 324.29167103767395, 325.25463104248047, 325.4260079860687, 326.1936891078949, 326.29363989830017, 326.41044211387634, 326.5272710323334, 326.6440019607544, 326.76084208488464, 326.877543926239, 326.99450492858887, 327.1113200187683, 327.2280969619751, 327.34469389915466, 327.4615421295166, 327.57845306396484, 327.69510293006897, 327.81189608573914, 327.9287919998169, 328.04548501968384, 328.2713041305542]	[324.1674352346771, 324.2841019013371, 325.2671019013371, 325.4338019013371, 326.1838019013371, 326.30046856799714, 326.41713523465717, 326.5338019013172, 326.6504685679772, 326.76713523463724, 326.88380190129726, 327.0004685679573, 327.1171352346173, 327.23380190127733, 327.35046856793736, 327.4671352345974, 327.5838019012574, 327.7004685679174, 327.81713523457745, 327.9338019012375, 328.0504685678975, 328.28380190123085]	2020_Nov_27_1408	59.931899206252815	1	0.375
7	55	FALSE	NA	a	['R', 'U', 'P', 'J', 'N', 'T', 'W', 'K', 'Z', 'M', 'H', 'X', 'S', 'G', 'A', 'E']	[1587, 2059, 1456, 1029, 1335, 1888, 2448, 1122, 2911, 1224, 986, 4000, 1731, 944, 697, 904]	12	Present	NA	NA	PRESENT	0.1859030723571777	330.27105593681335	332.2801399230957	333.3301477908488	333.68015089027034	336.38767099380493	4.1075310707092285	[330.2814929485321, 330.3980801105499, 331.3709919452667, 331.54926800727844, 332.30056595802307, 332.41705298423767, 332.5336720943451, 332.65059995651245, 332.76731991767883, 332.8842010498047, 333.0009729862213, 333.1177489757538, 333.23464798927307, 333.3512969017029, 333.46806502342224, 333.5849599838257, 333.7016909122467, 333.8186011314392, 333.93532395362854, 334.0521070957184, 334.16888308525085, 334.38767099380493]	[330.28380190123085, 330.40046856789087, 331.3834685678909, 331.55016856789086, 332.30016856789086, 332.4168352345509, 332.5335019012109, 332.65016856787094, 332.76683523453096, 332.883501901191, 333.000168567851, 333.11683523451103, 333.23350190117105, 333.3501685678311, 333.4668352344911, 333.5835019011511, 333.70016856781115, 333.81683523447117, 333.9335019011312, 334.0501685677912, 334.16683523445124, 334.4001685677846]	2020_Nov_27_1408	59.931899206252815	1	0.375
7	56	FALSE	NN	a	['V', 'K', 'J', 'U', 'H', 'E', 'A', 'N', 'Z', 'T', 'S', 'P', 'B', 'G', 'M', 'W']	[2245, 1122, 1029, 2059, 986, 904, 697, 1335, 2911, 1888, 1731, 1456, 760, 944, 1224, 2448]	10	Absent	NA	NA	ABSENT	0.35907912254333496	336.39404296875	338.3959958553314	339.2126706281831	339.56267253551175	342.50403809547424	4.108042240142822	[336.40448093414307, 336.52141404151917, 337.4873640537262, 337.6726701259613, 338.42329812049866, 338.5403470993042, 338.6569790840149, 338.77390599250793, 338.8907070159912, 339.00731205940247, 339.1241970062256, 339.2408459186554, 339.35783791542053, 339.47466111183167, 339.5914249420166, 339.70816802978516, 339.8249409198761, 339.9417519569397, 340.058531999588, 340.1583321094513, 340.27525091171265, 340.50403690338135]	[336.4001685677846, 336.5168352344446, 337.4998352344446, 337.6665352344446, 338.4165352344446, 338.53320190110463, 338.64986856776466, 338.7665352344247, 338.8832019010847, 338.9998685677447, 339.11653523440475, 339.2332019010648, 339.3498685677248, 339.4665352343848, 339.58320190104484, 339.69986856770487, 339.8165352343649, 339.9332019010249, 340.04986856768494, 340.16653523434496, 340.283201901005, 340.51653523433833]	2020_Nov_27_1408	59.931899206252815	1	0.375
7	57	FALSE	NV	a	['R', 'V', 'U', 'T', 'J', 'Y', 'W', 'Z', 'K', 'A', 'X', 'H', 'C', 'B', 'P', 'S']	[1587, 2245, 2059, 1888, 1029, 2670, 2448, 2911, 1122, 697, 4000, 986, 829, 760, 1456, 1731]	11	Present	NA	NA	NONE	-1	342.50080394744873	344.5126328468323	345.445974286344	345.7959761936726	348.63444995880127	4.121817111968994	[342.5112409591675, 342.6277720928192, 343.603728055954, 343.7790400981903, 344.52993297576904, 344.64675998687744, 344.7636179924011, 344.88037490844727, 344.99719190597534, 345.1138970851898, 345.2305920124054, 345.3474669456482, 345.46445298194885, 345.58113503456116, 345.69781589508057, 345.81478095054626, 345.93127703666687, 346.0480999946594, 346.16496992111206, 346.2818810939789, 346.398579120636, 346.62040400505066]	[342.51653523433833, 342.63320190099836, 343.61620190099836, 343.78290190099835, 344.53290190099835, 344.6495685676584, 344.7662352343184, 344.8829019009784, 344.99956856763845, 345.1162352342985, 345.2329019009585, 345.3495685676185, 345.46623523427854, 345.58290190093857, 345.6995685675986, 345.8162352342586, 345.93290190091864, 346.04956856757866, 346.1662352342387, 346.2829019008987, 346.39956856755873, 346.6329019008921]	2020_Nov_27_1408	59.931899206252815	1	0.375
7	58	FALSE	NA	a	['P', 'A', 'J', 'C', 'K', 'G', 'M', 'H', 'X', 'Y', 'N', 'U', 'T', 'V', 'B', 'S']	[1456, 697, 1029, 829, 1122, 944, 1224, 986, 4000, 2670, 1335, 2059, 1888, 2245, 760, 1731]	9	Present	NA	NA	PRESENT	0.2481391429901123	348.64054799079895	350.62872290611267	351.3287310123044	351.678732919633	354.73677110671997	4.1080482006073	[348.650985956192, 348.75112104415894, 349.7200961112976, 349.90228295326233, 350.65312695503235, 350.7700901031494, 350.8867390155792, 351.0036690235138, 351.12026500701904, 351.2372200489044, 351.35403203964233, 351.4706389904022, 351.58758306503296, 351.70420694351196, 351.82163095474243, 351.93797612190247, 352.0547630786896, 352.17150497436523, 352.2884020805359, 352.40486311912537, 352.5219371318817, 352.73677110671997]	[348.6329019008921, 348.7495685675521, 349.7325685675521, 349.8992685675521, 350.6492685675521, 350.7659352342121, 350.88260190087215, 350.99926856753217, 351.1159352341922, 351.2326019008522, 351.34926856751224, 351.46593523417226, 351.5826019008323, 351.6992685674923, 351.81593523415233, 351.93260190081236, 352.0492685674724, 352.1659352341324, 352.28260190079243, 352.39926856745245, 352.5159352341125, 352.7492685674458]	2020_Nov_27_1408	59.931899206252815	1	0.375
7	59	FALSE	NN	a	['B', 'N', 'P', 'R', 'W', 'G', 'C', 'Z', 'J', 'A', 'S', 'E', 'H', 'U', 'M', 'K']	[760, 1335, 1456, 1587, 2448, 944, 829, 2911, 1029, 697, 1731, 904, 986, 2059, 1224, 1122]	11	Absent	NA	NA	ABSENT	0.10143709182739258	354.747172832489	356.74536991119385	357.67871135070556	358.02871325803414	360.8531370162964	4.107767105102539	[354.75761008262634, 354.874272108078, 355.83646512031555, 356.0087881088257, 356.7764229774475, 356.8765060901642, 356.99342799186707, 357.1102249622345, 357.2269940376282, 357.3436670303345, 357.46041202545166, 357.5773639678955, 357.6939859390259, 357.81093096733093, 357.9275710582733, 358.04453897476196, 358.16110491752625, 358.27807807922363, 358.39470410346985, 358.51158690452576, 358.62832403182983, 358.853138923645]	[354.7492685674458, 354.86593523410585, 355.84893523410585, 356.01563523410584, 356.76563523410584, 356.88230190076587, 356.9989685674259, 357.1156352340859, 357.23230190074594, 357.34896856740596, 357.465635234066, 357.582301900726, 357.69896856738603, 357.81563523404606, 357.9323019007061, 358.0489685673661, 358.1656352340261, 358.28230190068615, 358.3989685673462, 358.5156352340062, 358.6323019006662, 358.86563523399957]	2020_Nov_27_1408	59.931899206252815	1	0.375
7	60	FALSE	NV	a	['S', 'H', 'A', 'J', 'Z', 'M', 'E', 'X', 'V', 'U', 'C', 'G', 'K', 'P', 'N', 'T']	[1731, 986, 697, 1029, 2911, 1224, 904, 4000, 2245, 2059, 829, 944, 1122, 1456, 1335, 1888]	8	Present	NA	NA	ABSENT	0.10606789588928224	360.8537569046021	362.8619430065155	363.4452842076286	363.79528635337584	366.9695029258728	4.1075599193573	[360.8641939163208, 360.9808659553528, 361.95283102989197, 362.13249492645264, 362.88287711143494, 362.99978709220886, 363.11658906936646, 363.23336696624756, 363.3500680923462, 363.46704506874084, 363.58378291130066, 363.7006359100342, 363.817419052124, 363.93414998054504, 364.05087304115295, 364.16779804229736, 364.28442096710205, 364.40138602256775, 364.51805090904236, 364.63487696647644, 364.7518301010132, 364.9695029258728]	[360.86563523399957, 360.9823019006596, 361.9653019006596, 362.1320019006596, 362.8820019006596, 362.9986685673196, 363.11533523397964, 363.23200190063966, 363.3486685672997, 363.4653352339597, 363.58200190061973, 363.69866856727975, 363.8153352339398, 363.9320019005998, 364.0486685672598, 364.16533523391985, 364.28200190057987, 364.3986685672399, 364.5153352338999, 364.63200190055994, 364.74866856721997, 364.9820019005533]	2020_Nov_27_1408	59.931899206252815	1	0.375
7	61	FALSE	AV	a	['H', 'T', 'Y', 'Z', 'V', 'A', 'surprise', 'S', 'M', 'X', 'U', 'B', 'R', 'E', 'C', 'J']	[986, 1888, 2670, 2911, 2245, 697, 'stimAuditory/all_stimAuditory/105.wav', 1731, 1224, 4000, 2059, 760, 1587, 904, 829, 1029]	10	Present	stimAuditory/all_stimAuditory/108.wav	NA	PRESENT	0.07146596908569336	366.9769129753113	368.9782168865204	369.7948904672792	370.1448935667007	373.0858700275421	4.1076531410217285	[366.98735189437866, 367.1042790412903, 368.06919503211975, 368.2554290294647, 369.00618505477905, 369.12310791015625, 369.24017310142517, 369.35666489601135, 369.47349190711975, 369.5902829170227, 369.70704793930054, 369.8236939907074, 369.9238369464874, 370.0405979156494, 370.1573829650879, 370.27415704727173, 370.3909659385681, 370.5077199935913, 370.6245119571686, 370.74131202697754, 370.85815501213074, 371.0858700275421]	[366.9820019005533, 367.09866856721334, 368.08166856721334, 368.24836856721333, 368.99836856721333, 369.11503523387336, 369.2317019005334, 369.3483685671934, 369.4650352338534, 369.58170190051345, 369.6983685671735, 369.8150352338335, 369.9317019004935, 370.04836856715355, 370.16503523381357, 370.2817019004736, 370.3983685671336, 370.51503523379364, 370.63170190045366, 370.7483685671137, 370.8650352337737, 371.09836856710706]	2020_Nov_27_1408	59.931899206252815	1	0.375
7	62	FALSE	NN	a	['R', 'Z', 'A', 'C', 'S', 'P', 'E', 'Y', 'N', 'G', 'H', 'J', 'B', 'V', 'M', 'T']	[1587, 2911, 697, 829, 1731, 1456, 904, 2670, 1335, 944, 986, 1029, 760, 2245, 1224, 1888]	11	Absent	NA	NA	ABSENT	0.5397500991821289	373.08365988731384	375.0942468643189	376.02758830383056	376.37759021115914	379.2022371292114	4.107990264892578	[373.0940980911255, 373.21063590049744, 374.18556094169617, 374.36207389831543, 375.1127600669861, 375.2295379638672, 375.3464369773865, 375.4632959365845, 375.5798840522766, 375.6968369483948, 375.8136451244354, 375.93041801452637, 376.0471570491791, 376.1639280319214, 376.2805778980255, 376.39740204811096, 376.5143620967865, 376.6311020851135, 376.7477149963379, 376.8646309375763, 376.98142194747925, 377.20223593711853]	[373.09836856710706, 373.2150352337671, 374.1980352337671, 374.3647352337671, 375.1147352337671, 375.2314019004271, 375.3480685670871, 375.46473523374715, 375.5814019004072, 375.6980685670672, 375.8147352337272, 375.93140190038724, 376.04806856704727, 376.1647352337073, 376.2814019003673, 376.39806856702734, 376.51473523368736, 376.6314019003474, 376.7480685670074, 376.86473523366743, 376.98140190032746, 377.2147352336608]	2020_Nov_27_1408	59.931899206252815	1	0.375
7	63	FALSE	NN	a	['U', 'G', 'P', 'W', 'H', 'Y', 'R', 'B', 'S', 'K', 'T', 'Z', 'C', 'V', 'A', 'J']	[2059, 944, 1456, 2448, 986, 2670, 1587, 760, 1731, 1122, 1888, 2911, 829, 2245, 697, 1029]	8	Absent	NA	NA	ABSENT	0.2484071254730225	379.2068529129028	381.2105758190155	381.7939163048729	382.1439182122015	385.31860399246216	4.108028173446655	[379.2172899246216, 379.33401703834534, 380.3019299507141, 380.48513007164, 381.23589396476746, 381.3526129722595, 381.4696841239929, 381.58633303642273, 381.70309710502625, 381.820081949234, 381.9367001056671, 382.05360293388367, 382.17035007476807, 382.2872760295868, 382.40408396720886, 382.520800113678, 382.63768696784973, 382.75451707839966, 382.8712260723114, 382.9879050254822, 383.1047410964966, 383.31860399246216]	[379.2147352336608, 379.3314019003208, 380.31440190032083, 380.4811019003208, 381.2311019003208, 381.34776856698085, 381.46443523364087, 381.5811019003009, 381.6977685669609, 381.81443523362094, 381.93110190028096, 382.047768566941, 382.164435233601, 382.28110190026104, 382.39776856692106, 382.5144352335811, 382.6311019002411, 382.74776856690113, 382.86443523356115, 382.9811019002212, 383.0977685668812, 383.33110190021455]	2020_Nov_27_1408	59.931899206252815	1	0.375
7	64	FALSE	NV	a	['T', 'A', 'N', 'P', 'E', 'S', 'W', 'H', 'X', 'G', 'K', 'V', 'Z', 'C', 'Y', 'R']	[1888, 697, 1335, 1456, 904, 1731, 2448, 986, 4000, 944, 1122, 2245, 2911, 829, 2670, 1587]	9	Present	NA	NA	NONE	-1	385.3301558494568	387.32705879211426	388.027066898306	388.37706880563456	391.44709491729736	4.1200361251831055	[385.3405930995941, 385.44040608406067, 386.4182929992676, 386.59161710739136, 387.34245705604553, 387.45932507514954, 387.5759971141815, 387.69288396835327, 387.8096139431, 387.92655992507935, 388.04322695732117, 388.1601719856262, 388.27680110931396, 388.3938031196594, 388.5105369091034, 388.6274209022522, 388.74393606185913, 388.860976934433, 388.9776270389557, 389.09439396858215, 389.2111449241638, 389.4349699020386]	[385.33110190021455, 385.4477685668746, 386.4307685668746, 386.59746856687457, 387.34746856687457, 387.4641352335346, 387.5808019001946, 387.69746856685464, 387.81413523351466, 387.9308019001747, 388.0474685668347, 388.16413523349473, 388.28080190015476, 388.3974685668148, 388.5141352334748, 388.6308019001348, 388.74746856679485, 388.8641352334549, 388.9808019001149, 389.0974685667749, 389.21413523343494, 389.4474685667683]	2020_Nov_27_1408	59.931899206252815	1	0.375
7	65	FALSE	NA	a	['U', 'T', 'P', 'H', 'C', 'V', 'K', 'S', 'Z', 'J', 'W', 'A', 'N', 'X', 'R', 'G']	[2059, 1888, 1456, 986, 829, 2245, 1122, 1731, 2911, 1029, 2448, 697, 1335, 4000, 1587, 944]	14	Present	NA	NA	PRESENT	0.0905141830444336	391.4533848762512	393.44375491142273	394.7270951588215	395.0770973045687	397.5513379573822	4.107583045959473	[391.46382212638855, 391.56378293037415, 392.5346610546112, 392.7148859500885, 393.4659559726715, 393.58257699012756, 393.69923210144043, 393.8161120414734, 393.9329249858856, 394.0498399734497, 394.16655802726746, 394.28349590301514, 394.4001829624176, 394.5170269012451, 394.6338860988617, 394.75059604644775, 394.867525100708, 394.9842300415039, 395.1009020805359, 395.2177541255951, 395.33452105522156, 395.5513370037079]	[391.4474685667683, 391.5641352334283, 392.5471352334283, 392.7138352334283, 393.4638352334283, 393.58050190008834, 393.69716856674836, 393.8138352334084, 393.9305019000684, 394.04716856672843, 394.16383523338845, 394.2805019000485, 394.3971685667085, 394.5138352333685, 394.63050190002855, 394.7471685666886, 394.8638352333486, 394.9805019000086, 395.09716856666864, 395.21383523332867, 395.3305018999887, 395.56383523332204]	2020_Nov_27_1408	59.931899206252815	1	0.375
7	66	FALSE	NV	a	['S', 'E', 'V', 'J', 'Z', 'M', 'Y', 'A', 'U', 'T', 'K', 'P', 'C', 'X', 'W', 'G']	[1731, 904, 2245, 1029, 2911, 1224, 2670, 697, 2059, 1888, 1122, 1456, 829, 4000, 2448, 944]	14	Present	NA	NA	PRESENT	0.12751412391662598	397.5596499443054	399.5599238872528	400.8432653267445	401.1932672340731	403.6677029132843	4.107779026031494	[397.5700879096985, 397.6870970726013, 398.65102791786194, 398.83810091018677, 399.5889410972595, 399.6889560222626, 399.8057301044464, 399.92251801490784, 400.03937292099, 400.1561629772186, 400.27302408218384, 400.3898160457611, 400.5065829753876, 400.62357211112976, 400.74013805389404, 400.85695695877075, 400.9737560749054, 401.0905990600586, 401.2073509693146, 401.32423400878906, 401.44090700149536, 401.6677029132843]	[397.56383523332204, 397.68050189998206, 398.66350189998207, 398.83020189998206, 399.58020189998206, 399.6968685666421, 399.8135352333021, 399.9302018999621, 400.04686856662215, 400.1635352332822, 400.2802018999422, 400.3968685666022, 400.51353523326225, 400.63020189992227, 400.7468685665823, 400.8635352332423, 400.98020189990234, 401.09686856656236, 401.2135352332224, 401.3302018998824, 401.44686856654243, 401.6802018998758]	2020_Nov_27_1408	59.931899206252815	1	0.375
7	67	FALSE	NN	a	['Z', 'T', 'P', 'H', 'B', 'Y', 'K', 'A', 'J', 'V', 'N', 'E', 'M', 'R', 'C', 'G']	[2911, 1888, 1456, 986, 760, 2670, 1122, 697, 1029, 2245, 1335, 904, 1224, 1587, 829, 944]	9	Absent	NA	NA	ABSENT	0.06015491485595703	403.6666579246521	405.67616987228394	406.37617797847565	406.72618083947856	409.7840700149536	4.107900142669678	[403.67709612846375, 403.7935209274292, 404.7673990726471, 404.94466400146484, 405.69545006752014, 405.81239008903503, 405.9291009902954, 406.0460650920868, 406.1625781059265, 406.27961707115173, 406.3963289260864, 406.51327204704285, 406.62990498542786, 406.7467839717865, 406.86348509788513, 406.98036789894104, 407.09704303741455, 407.2139780521393, 407.330689907074, 407.447557926178, 407.5643129348755, 407.78407096862793]	[403.6802018998758, 403.7968685665358, 404.7798685665358, 404.9465685665358, 405.6965685665358, 405.8132352331958, 405.92990189985585, 406.0465685665159, 406.1632352331759, 406.2799018998359, 406.39656856649594, 406.51323523315597, 406.629901899816, 406.746568566476, 406.86323523313604, 406.97990189979606, 407.0965685664561, 407.2132352331161, 407.32990189977613, 407.44656856643616, 407.5632352330962, 407.7965685664295]	2020_Nov_27_1408	59.931899206252815	1	0.375
7	68	FALSE	NA	a	['W', 'C', 'K', 'Z', 'A', 'E', 'N', 'T', 'M', 'B', 'H', 'Y', 'X', 'G', 'P', 'J']	[2448, 829, 1122, 2911, 697, 904, 1335, 1888, 1224, 760, 986, 2670, 4000, 944, 1456, 1029]	13	Present	NA	NA	PRESENT	1.3767287731170654	409.78962302207947	411.7926738262177	412.95934859904935	413.309350506378	415.9004380702973	4.10776424407959	[409.8000600337982, 409.9168310165405, 410.8837640285492, 411.06804299354553, 411.8186900615692, 411.9357099533081, 412.05255603790283, 412.16929507255554, 412.28609704971313, 412.40272212028503, 412.5197069644928, 412.6364619731903, 412.7534980773926, 412.87004709243774, 412.98684000968933, 413.1036341190338, 413.2203879356384, 413.3370339870453, 413.4538080692291, 413.5706570148468, 413.68754506111145, 413.9004371166229]	[409.7965685664295, 409.91323523308955, 410.89623523308956, 411.06293523308955, 411.81293523308955, 411.92960189974957, 412.0462685664096, 412.1629352330696, 412.27960189972964, 412.39626856638967, 412.5129352330497, 412.6296018997097, 412.74626856636974, 412.86293523302976, 412.9796018996898, 413.0962685663498, 413.21293523300983, 413.32960189966985, 413.4462685663299, 413.5629352329899, 413.6796018996499, 413.9129352329833]	2020_Nov_27_1408	59.931899206252815	1	0.375
7	69	FALSE	NA	a	['Y', 'G', 'U', 'J', 'Z', 'C', 'B', 'X', 'P', 'S', 'T', 'M', 'H', 'E', 'R', 'W']	[2670, 944, 2059, 1029, 2911, 829, 760, 4000, 1456, 1731, 1888, 1224, 986, 904, 1587, 2448]	8	Present	NA	NA	PRESENT	1.6299059391021729	415.8960258960724	417.90922689437866	418.4925683339104	418.842570241239	422.01680397987366	4.107577085494995	[415.90646290779114, 416.02330112457275, 417.000128030777, 417.17452812194824, 417.9251940250397, 418.0421450138092, 418.15903210639954, 418.2758409976959, 418.39256405830383, 418.50941610336304, 418.62605905532837, 418.7429459095001, 418.85981607437134, 418.9765911102295, 419.0932619571686, 419.2101809978485, 419.32685112953186, 419.4436140060425, 419.56045293807983, 419.6772201061249, 419.7940490245819, 420.01680302619934]	[415.9129352329833, 416.0296018996433, 417.0126018996433, 417.1793018996433, 417.9293018996433, 418.0459685663033, 418.16263523296334, 418.27930189962336, 418.3959685662834, 418.5126352329434, 418.62930189960343, 418.74596856626346, 418.8626352329235, 418.9793018995835, 419.0959685662435, 419.21263523290355, 419.3293018995636, 419.4459685662236, 419.5626352328836, 419.67930189954365, 419.79596856620367, 420.029301899537]	2020_Nov_27_1408	59.931899206252815	1	0.375
7	70	FALSE	NA	a	['T', 'V', 'B', 'Z', 'Y', 'U', 'A', 'K', 'G', 'E', 'R', 'H', 'X', 'M', 'C', 'W']	[1888, 2245, 760, 2911, 2670, 2059, 697, 1122, 944, 904, 1587, 986, 4000, 1224, 829, 2448]	13	Present	NA	NA	PRESENT	0.4025239944458008	422.0194449424744	424.02544689178467	425.1921216646164	425.542123571945	428.13317108154297	4.107724189758301	[422.0298819541931, 422.1466009616852, 423.1164948940277, 423.29813408851624, 424.04850602149963, 424.16530895233154, 424.2822210788727, 424.3990330696106, 424.5157849788666, 424.6325500011444, 424.74930906295776, 424.8660500049591, 424.98293805122375, 425.099711894989, 425.21673011779785, 425.33328199386597, 425.45000100135803, 425.5669479370117, 425.6838400363922, 425.8006179332733, 425.9173400402069, 426.13317012786865]	[422.029301899537, 422.14596856619704, 423.12896856619705, 423.29566856619704, 424.04566856619704, 424.16233523285706, 424.2790018995171, 424.3956685661771, 424.51233523283713, 424.62900189949715, 424.7456685661572, 424.8623352328172, 424.9790018994772, 425.09566856613725, 425.2123352327973, 425.3290018994573, 425.4456685661173, 425.56233523277734, 425.67900189943737, 425.7956685660974, 425.9123352327574, 426.14566856609076]	2020_Nov_27_1408	59.931899206252815	1	0.375
7	71	FALSE	NV	a	['M', 'A', 'S', 'J', 'Y', 'T', 'H', 'P', 'V', 'N', 'W', 'K', 'X', 'B', 'Z', 'R']	[1224, 697, 1731, 1029, 2670, 1888, 986, 1456, 2245, 1335, 2448, 1122, 4000, 760, 2911, 1587]	13	Present	NA	NA	PRESENT	0.7198100090026855	428.14265298843384	430.1416518688202	431.3083256879776	431.6583275953062	434.2495369911194	4.107885122299194	[428.1530909538269, 428.2697970867157, 429.23286294937134, 429.4042570590973, 430.17178606987, 430.27185797691345, 430.3885860443115, 430.5056209564209, 430.6222469806671, 430.73915696144104, 430.8558440208435, 430.972718000412, 431.08938908576965, 431.2062990665436, 431.3229560852051, 431.43991708755493, 431.55667901039124, 431.6735351085663, 431.7901999950409, 431.90709710121155, 432.0237979888916, 432.249538898468]	[428.14566856609076, 428.2623352327508, 429.2453352327508, 429.4120352327508, 430.1620352327508, 430.2787018994108, 430.39536856607083, 430.51203523273085, 430.6287018993909, 430.7453685660509, 430.8620352327109, 430.97870189937095, 431.09536856603097, 431.212035232691, 431.328701899351, 431.44536856601104, 431.56203523267106, 431.6787018993311, 431.7953685659911, 431.91203523265114, 432.02870189931116, 432.2620352326445]	2020_Nov_27_1408	59.931899206252815	1	0.375
7	72	FALSE	VN	a	['G', 'H', 'T', 'J', 'N', 'U', 'Z', 'surprise', 'P', 'E', 'V', 'A', 'R', 'W', 'S', 'B']	[944, 986, 1888, 1029, 1335, 2059, 2911, 'stimAuditory/all_stimAuditory/115.wav', 1456, 904, 2245, 697, 1587, 2448, 1731, 760]	11	Absent	NA	NA	ABSENT	0.10033297538757324	434.2489538192749	436.25820684432983	437.19154828384154	437.5415501911702	440.3659029006958	4.107696056365967	[434.25939297676086, 434.3763370513916, 435.3492319583893, 435.5274701118469, 436.27827191352844, 436.3951289653778, 436.51203203201294, 436.628634929657, 436.74578499794006, 436.86245703697205, 436.9791889190674, 437.09599709510803, 437.21276593208313, 437.32944202423096, 437.4464249610901, 437.56303691864014, 437.6800000667572, 437.79664611816406, 437.9135479927063, 438.0304639339447, 438.147136926651, 438.3659040927887]	[434.2620352326445, 434.37870189930453, 435.36170189930453, 435.5284018993045, 436.2784018993045, 436.39506856596455, 436.5117352326246, 436.6284018992846, 436.7450685659446, 436.86173523260464, 436.97840189926467, 437.0950685659247, 437.2117352325847, 437.32840189924474, 437.44506856590476, 437.5617352325648, 437.6784018992248, 437.79506856588483, 437.91173523254486, 438.0284018992049, 438.1450685658649, 438.37840189919825]	2020_Nov_27_1408	59.931899206252815	1	0.375
7	73	FALSE	NN	a	['B', 'R', 'C', 'N', 'V', 'A', 'E', 'Y', 'M', 'U', 'G', 'S', 'Z', 'P', 'K', 'H']	[760, 1587, 829, 1335, 2245, 697, 904, 2670, 1224, 2059, 944, 1731, 2911, 1456, 1122, 986]	13	Absent	NA	NA	ABSENT	0.08987092971801758	440.37239480018616	442.37446784973145	443.54114262256314	443.8911445298918	446.48227095603943	4.107803106307983	[440.3828320503235, 440.4994719028473, 441.46559596061707, 441.65081691741943, 442.40154504776, 442.51852798461914, 442.63522505760193, 442.7524890899658, 442.86894392967224, 442.9855160713196, 443.1025149822235, 443.2194631099701, 443.3358590602875, 443.45269799232483, 443.56968212127686, 443.68630504608154, 443.80324506759644, 443.92002606391907, 444.03660702705383, 444.13674998283386, 444.25353598594666, 444.48227095603943]	[440.37840189919825, 440.4950685658583, 441.4780685658583, 441.64476856585827, 442.39476856585827, 442.5114352325183, 442.6281018991783, 442.74476856583834, 442.86143523249837, 442.9781018991584, 443.0947685658184, 443.21143523247844, 443.32810189913846, 443.4447685657985, 443.5614352324585, 443.67810189911853, 443.79476856577855, 443.9114352324386, 444.0281018990986, 444.1447685657586, 444.26143523241865, 444.494768565752]	2020_Nov_27_1408	59.931899206252815	1	0.375
7	74	FALSE	NN	a	['V', 'M', 'N', 'Z', 'E', 'H', 'S', 'R', 'C', 'W', 'B', 'T', 'J', 'G', 'Y', 'A']	[2245, 1224, 1335, 2911, 904, 986, 1731, 1587, 829, 2448, 760, 1888, 1029, 944, 2670, 697]	14	Absent	NA	NA	ABSENT	0.3901569843292236	446.478730916977	448.4909439086914	449.7742841560902	450.1242872555117	452.5986371040344	4.107693195343018	[446.4891679286957, 446.6060469150543, 447.58196091651917, 447.7574610710144, 448.5080261230469, 448.6250829696655, 448.74158000946045, 448.8586859703064, 448.97529792785645, 449.09226512908936, 449.2089190483093, 449.325856924057, 449.4425239562988, 449.5592260360718, 449.67612504959106, 449.7928900718689, 449.90963912010193, 450.02667593955994, 450.14329195022583, 450.2601420879364, 450.3769109249115, 450.59863805770874]	[446.494768565752, 446.611435232412, 447.594435232412, 447.761135232412, 448.511135232412, 448.62780189907204, 448.74446856573206, 448.8611352323921, 448.9778018990521, 449.09446856571213, 449.21113523237216, 449.3278018990322, 449.4444685656922, 449.5611352323522, 449.67780189901225, 449.7944685656723, 449.9111352323323, 450.0278018989923, 450.14446856565235, 450.26113523231237, 450.3778018989724, 450.61113523230574]	2020_Nov_27_1408	59.931899206252815	1	0.375
7	75	FALSE	NV	a	['K', 'E', 'N', 'B', 'R', 'G', 'H', 'S', 'U', 'W', 'Z', 'A', 'V', 'X', 'T', 'P']	[1122, 904, 1335, 760, 1587, 944, 986, 1731, 2059, 2448, 2911, 697, 2245, 4000, 1888, 1456]	14	Present	NA	NA	PRESENT	0.1308138370513916	452.602166891098	454.6069128513336	455.8902542908253	456.24025619815393	458.7150030136109	4.108090162277222	[452.6126039028168, 452.7297809123993, 453.6983280181885, 453.8807249069214, 454.63142108917236, 454.7483139038086, 454.86504197120667, 454.98186707496643, 455.0986170768738, 455.2157258987427, 455.33226203918457, 455.4490079879761, 455.5657539367676, 455.6826169490814, 455.79946303367615, 455.9160749912262, 456.0330801010132, 456.1497950553894, 456.26673102378845, 456.38334798812866, 456.50019907951355, 456.71500301361084]	[452.61113523230574, 452.72780189896577, 453.71080189896577, 453.87750189896576, 454.62750189896576, 454.7441685656258, 454.8608352322858, 454.97750189894583, 455.09416856560586, 455.2108352322659, 455.3275018989259, 455.4441685655859, 455.56083523224595, 455.677501898906, 455.794168565566, 455.910835232226, 456.02750189888604, 456.14416856554607, 456.2608352322061, 456.3775018988661, 456.49416856552614, 456.7275018988595]	2020_Nov_27_1408	59.931899206252815	1	0.375
7	76	FALSE	VN	a	['S', 'T', 'V', 'R', 'A', 'Z', 'P', 'surprise', 'Y', 'E', 'B', 'M', 'J', 'K', 'C', 'H']	[1731, 1888, 2245, 1587, 697, 2911, 1456, 'stimAuditory/all_stimAuditory/217.wav', 2670, 904, 760, 1224, 1029, 1122, 829, 986]	11	Absent	NA	NA	NONE	-1	458.7253978252411	460.7235310077667	461.65687220885985	462.006874354607	464.8424611091614	4.118930101394653	[458.7358350753784, 458.852432012558, 459.8146939277649, 459.987046957016, 460.7546229362488, 460.8548560142517, 460.97142791748047, 461.0884039402008, 461.2049560546875, 461.3219909667969, 461.4386079311371, 461.55551505088806, 461.67221212387085, 461.78914999961853, 461.90598702430725, 462.0227789878845, 462.1394510269165, 462.25632905960083, 462.37305903434753, 462.48980593681335, 462.6067819595337, 462.83137106895447]	[458.7275018988595, 458.8441685655195, 459.8271685655195, 459.9938685655195, 460.7438685655195, 460.86053523217953, 460.97720189883955, 461.0938685654996, 461.2105352321596, 461.3272018988196, 461.44386856547965, 461.56053523213967, 461.6772018987997, 461.7938685654597, 461.91053523211974, 462.02720189877977, 462.1438685654398, 462.2605352320998, 462.37720189875984, 462.49386856541986, 462.6105352320799, 462.84386856541323]	2020_Nov_27_1408	59.931899206252815	1	0.375
7	77	FALSE	NA	a	['J', 'R', 'T', 'C', 'Y', 'S', 'G', 'A', 'M', 'B', 'K', 'W', 'E', 'X', 'U', 'Z']	[1029, 1587, 1888, 829, 2670, 1731, 944, 697, 1224, 760, 1122, 2448, 904, 4000, 2059, 2911]	14	Present	NA	NA	PRESENT	0.20462393760681152	464.8485279083252	466.8399908542633	468.12333229375497	468.4733342010836	470.9477379322052	4.1077470779418945	[464.85896611213684, 464.9592480659485, 465.9310600757599, 466.11055302619934, 466.86115407943726, 466.97804594039917, 467.0947051048279, 467.2116370201111, 467.3284149169922, 467.44529604911804, 467.56188106536865, 467.67884492874146, 467.79556107521057, 467.912230014801, 468.0292499065399, 468.1459250450134, 468.26283597946167, 468.379518032074, 468.49634408950806, 468.6129701137543, 468.72988510131836, 468.9477369785309]	[464.84386856541323, 464.96053523207325, 465.94353523207326, 466.11023523207325, 466.86023523207325, 466.9769018987333, 467.0935685653933, 467.2102352320533, 467.32690189871334, 467.44356856537337, 467.5602352320334, 467.6769018986934, 467.79356856535344, 467.91023523201346, 468.0269018986735, 468.1435685653335, 468.26023523199353, 468.37690189865356, 468.4935685653136, 468.6102352319736, 468.7269018986336, 468.960235231967]	2020_Nov_27_1408	59.931899206252815	1	0.375
7	78	FALSE	NN	a	['N', 'Z', 'B', 'T', 'V', 'U', 'Y', 'J', 'M', 'C', 'R', 'W', 'P', 'G', 'H', 'S']	[1335, 2911, 760, 1888, 2245, 2059, 2670, 1029, 1224, 829, 1587, 2448, 1456, 944, 986, 1731]	10	Absent	NA	NA	ABSENT	0.18605399131774905	470.9552159309387	472.956307888031	473.7729814687898	474.122983614537	477.0641040802002	4.1077961921691895	[470.9656538963318, 471.0825889110565, 472.04743003845215, 472.2336449623108, 472.984738111496, 473.10121297836304, 473.21812200546265, 473.3349211215973, 473.45169496536255, 473.56823897361755, 473.6854329109192, 473.80205512046814, 473.9187021255493, 474.0187919139862, 474.1355969905853, 474.25232911109924, 474.3691511154175, 474.4859380722046, 474.60269498825073, 474.7195360660553, 474.8363199234009, 475.0641031265259]	[470.960235231967, 471.076901898627, 472.059901898627, 472.226601898627, 472.976601898627, 473.093268565287, 473.20993523194704, 473.32660189860707, 473.4432685652671, 473.5599352319271, 473.67660189858714, 473.79326856524716, 473.9099352319072, 474.0266018985672, 474.14326856522723, 474.25993523188725, 474.3766018985473, 474.4932685652073, 474.6099352318673, 474.72660189852735, 474.8432685651874, 475.0766018985207]	2020_Nov_27_1408	59.931899206252815	1	0.375
7	79	FALSE	AA	a	['J', 'Z', 'M', 'K', 'Y', 'V', 'A', 'N', 'R', 'G', 'surprise', 'E', 'S', 'X', 'U', 'T']	[1029, 2911, 1224, 1122, 2670, 2245, 697, 1335, 1587, 944, 'stimAuditory/all_stimAuditory/216.wav', 904, 1731, 4000, 2059, 1888]	14	Present	stimAuditory/all_stimAuditory/213.wav	NA	PRESENT	1.4223499298095703	477.0619089603424	479.0725848674774	480.3559263069691	480.705929167972	483.1804699897766	4.107885122299194	[477.07234501838684, 477.18893003463745, 478.16379499435425, 478.3400409221649, 479.09098410606384, 479.2078790664673, 479.32454204559326, 479.4414529800415, 479.5582480430603, 479.67483401298523, 479.79161310195923, 479.90850591659546, 480.02535700798035, 480.14213490486145, 480.25895500183105, 480.3757429122925, 480.4925630092621, 480.60916209220886, 480.726126909256, 480.8428211212158, 480.95969796180725, 481.1804699897766]	[477.0766018985207, 477.19326856518074, 478.17626856518075, 478.34296856518074, 479.09296856518074, 479.20963523184076, 479.3263018985008, 479.4429685651608, 479.55963523182083, 479.67630189848086, 479.7929685651409, 479.9096352318009, 480.02630189846093, 480.14296856512095, 480.259635231781, 480.376301898441, 480.492968565101, 480.60963523176105, 480.72630189842107, 480.8429685650811, 480.9596352317411, 481.19296856507447]	2020_Nov_27_1408	59.931899206252815	1	0.375
