participant	trial_num	practice	task	condition	RSVP	RAP	probePos	probe_presence	surprise_sound	surprise_img	probe_response	probe_resp_time	first_fixation_time	trial_start_time	surprise_start_time	probe_start_time	trial_end_time	trial_duration	actualEventTimes	plannedEventTimes	date	framerate	marker_vol	RAP_vol
28	1	FALSE	NV	v	['B', 'V', 'W', 'S', 'T', 'E', 'K', 'J', 'N', 'C', 'X', 'Y', 'U', 'R', 'H', 'G']	[760, 2245, 2448, 1731, 1888, 904, 1122, 1029, 1335, 829, 4000, 2670, 2059, 1587, 986, 944]	11	Present	NA	NA	PRESENT	0.44111108779907227	2.86102294921875e-6	1.987117052078247	2.918657064437866	3.268944025039673	6.103869915008545	4.116752862930298	[0.02233600616455078, 0.12210488319396973, 1.106529951095581, 1.2733159065246582, 2.0239999294281006, 2.1407790184020996, 2.2576699256896973, 2.3743419647216797, 2.4912538528442383, 2.608098030090332, 2.724760055541992, 2.8414878845214844, 2.9583740234375, 3.0751259326934814, 3.1918389797210693, 3.3087780475616455, 3.4256339073181152, 3.5421929359436035, 3.658958911895752, 3.7759599685668945, 3.8924970626831055, 4.103869915008545]	[1.9073486328125e-06, 0.11666857401529947, 1.0996685740152994, 1.2663685740152995, 2.0163685740152992, 2.133035240681966, 2.2497019073486326, 2.3663685740152993, 2.483035240681966, 2.5997019073486327, 2.7163685740152994, 2.833035240681966, 2.949701907348633, 3.0663685740152995, 3.183035240681966, 3.299701907348633, 3.4163685740152996, 3.5330352406819663, 3.649701907348633, 3.7663685740152997, 3.8830352406819664, 4.1163685740153]	2021_Feb_10_1142	59.93583871940372	1	1
28	2	FALSE	NV	v	['T', 'Z', 'U', 'N', 'S', 'J', 'H', 'K', 'Y', 'R', 'M', 'V', 'G', 'X', 'E', 'A']	[1888, 2911, 2059, 1335, 1731, 1029, 986, 1122, 2670, 1587, 1224, 2245, 944, 4000, 904, 697]	14	Present	NA	NA	PRESENT	0.5333690643310547	6.089151859283447	8.100668907165527	9.384521007537842	9.73449206352234	12.220237016677856	4.119568109512329	[6.111485958099365, 6.228550910949707, 7.212770938873291, 7.379536867141724, 8.147160053253174, 8.247264862060547, 8.363956928253174, 8.480937004089355, 8.597536087036133, 8.714236974716187, 8.831064939498901, 8.948034048080444, 9.06463885307312, 9.181478023529053, 9.298218011856079, 9.41496205329895, 9.531898975372314, 9.648952960968018, 9.765515089035034, 9.882102966308594, 9.999186038970947, 10.220237970352173]	[6.1163685740153, 6.233035240681966, 7.216035240681966, 7.382735240681965, 8.132735240681965, 8.249401907348632, 8.3660685740153, 8.482735240681967, 8.599401907348634, 8.716068574015301, 8.832735240681968, 8.949401907348635, 9.066068574015302, 9.18273524068197, 9.299401907348637, 9.416068574015304, 9.532735240681971, 9.649401907348638, 9.766068574015305, 9.882735240681972, 9.99940190734864, 10.232735240681972]	2021_Feb_10_1142	59.93583871940372	1	1
28	3	FALSE	NV	v	['J', 'R', 'K', 'W', 'H', 'T', 'G', 'A', 'V', 'Y', 'C', 'Z', 'B', 'X', 'P', 'M']	[1029, 1587, 1122, 2448, 986, 1888, 944, 697, 2245, 2670, 829, 2911, 760, 4000, 1456, 1224]	14	Present	NA	NA	PRESENT	0.5061540603637695	12.212482929229736	14.21713900566101	15.500613927841188	15.850712060928345	18.33660387992859	4.119464874267578	[12.234817028045654, 12.351453065872192, 13.33591103553772, 13.502600908279419, 14.253437042236328, 14.370362043380737, 14.487063884735107, 14.603930950164795, 14.720696926116943, 14.837542057037354, 14.954238891601562, 15.070859909057617, 15.187819004058838, 15.30463695526123, 15.421474933624268, 15.538079977035522, 15.655073881149292, 15.771678924560547, 15.888567924499512, 16.005420923233032, 16.122058868408203, 16.33660387992859]	[12.232735240681972, 12.34940190734864, 13.33240190734864, 13.49910190734864, 14.24910190734864, 14.365768574015307, 14.482435240681975, 14.599101907348642, 14.715768574015309, 14.832435240681976, 14.949101907348643, 15.06576857401531, 15.182435240681977, 15.299101907348645, 15.415768574015312, 15.532435240681979, 15.649101907348646, 15.765768574015313, 15.88243524068198, 15.999101907348647, 16.115768574015313, 16.349101907348647]	2021_Feb_10_1142	59.93583871940372	1	1
28	4	FALSE	NV	v	['Y', 'J', 'S', 'E', 'A', 'V', 'M', 'X', 'G', 'H', 'C', 'T', 'W', 'P', 'R', 'B']	[2670, 1029, 1731, 904, 697, 2245, 1224, 4000, 944, 986, 829, 1888, 2448, 1456, 1587, 760]	8	Present	NA	NA	ABSENT	1.007101058959961	18.335511922836304	20.33327293395996	20.91729497909546	21.26719903945923	24.452970027923584	4.119697093963623	[18.35784602165222, 18.45771288871765, 19.44214701652527, 19.608962059020996, 20.376950979232788, 20.49330496788025, 20.610331058502197, 20.726892948150635, 20.84393000602722, 20.96063208580017, 21.06056499481201, 21.177300930023193, 21.29396104812622, 21.410754919052124, 21.527562856674194, 21.644397974014282, 21.761194944381714, 21.87795090675354, 21.994790077209473, 22.111587047576904, 22.228569984436035, 22.452969074249268]	[18.349101907348647, 18.465768574015314, 19.448768574015315, 19.615468574015313, 20.365468574015313, 20.48213524068198, 20.598801907348648, 20.715468574015315, 20.832135240681982, 20.94880190734865, 21.065468574015316, 21.182135240681983, 21.29880190734865, 21.415468574015318, 21.532135240681985, 21.648801907348652, 21.76546857401532, 21.882135240681986, 21.998801907348653, 22.11546857401532, 22.232135240681988, 22.465468574015322]	2021_Feb_10_1142	59.93583871940372	1	1
28	5	FALSE	NA	v	['Z', 'G', 'W', 'A', 'T', 'N', 'Y', 'P', 'V', 'M', 'E', 'K', 'C', 'X', 'B', 'S']	[2911, 944, 2448, 697, 1888, 1335, 2670, 1456, 2245, 1224, 904, 1122, 829, 4000, 760, 1731]	14	Present	NA	NA	PRESENT	0.34784603118896484	24.441823959350582	26.44987988471985	27.73369002342224	28.08348703384399	30.569336891174316	4.119457006454468	[24.46415686607361, 24.581127882003784, 25.56539797782898, 25.732176065444946, 26.482905864715576, 26.59983491897583, 26.71651792526245, 26.83330988883972, 26.95014786720276, 27.06686806678772, 27.183764934539795, 27.300440073013306, 27.417330026626587, 27.53389000892639, 27.650887966156006, 27.76752996444702, 27.88442301750183, 28.00122308731079, 28.11803102493286, 28.234714031219482, 28.351639986038208, 28.569336891174316]	[24.465468574015322, 24.58213524068199, 25.56513524068199, 25.73183524068199, 26.48183524068199, 26.598501907348655, 26.715168574015323, 26.83183524068199, 26.948501907348657, 27.065168574015324, 27.18183524068199, 27.29850190734866, 27.415168574015325, 27.531835240681993, 27.64850190734866, 27.765168574015327, 27.881835240681994, 27.99850190734866, 28.11516857401533, 28.231835240681995, 28.348501907348663, 28.581835240681997]	2021_Feb_10_1142	59.93583871940372	1	1
28	6	FALSE	NN	v	['J', 'Y', 'C', 'M', 'P', 'Z', 'G', 'N', 'B', 'U', 'E', 'K', 'A', 'R', 'S', 'W']	[1029, 2670, 829, 1224, 1456, 2911, 944, 1335, 760, 2059, 904, 1122, 697, 1587, 1731, 2448]	9	Absent	NA	NA	ABSENT	0.24127197265625	30.565196990966797	32.56617093086243	33.26644992828369	33.616705894470215	36.68570399284363	4.119533061981201	[30.587531089782715, 30.703902006149292, 31.688318967819214, 31.855138063430786, 32.606114864349365, 32.72280287742615, 32.83968496322632, 32.95645093917847, 33.073384046554565, 33.19016790390015, 33.30672597885132, 33.423484086990356, 33.54023504257202, 33.657214879989624, 33.7740159034729, 33.890708923339844, 34.007431983947754, 34.124232053756714, 34.24114990234375, 34.35792899131775, 34.45782995223999, 34.68570399284363]	[30.581835240681997, 30.698501907348664, 31.681501907348665, 31.848201907348663, 32.59820190734867, 32.714868574015334, 32.831535240682, 32.94820190734867, 33.064868574015335, 33.181535240682, 33.29820190734867, 33.41486857401534, 33.531535240682004, 33.64820190734867, 33.76486857401534, 33.881535240682005, 33.99820190734867, 34.11486857401534, 34.23153524068201, 34.348201907348674, 34.46486857401534, 34.698201907348675]	2021_Feb_10_1142	59.93583871940372	1	1
28	7	FALSE	AV	v	['P', 'W', 'Z', 'H', 'S', 'A', 'U', 'E', 'surprise', 'R', 'T', 'X', 'B', 'M', 'V', 'N']	[1456, 2448, 2911, 986, 1731, 697, 2059, 904, 'stimAuditory/all_stimAuditory/213.wav', 1587, 1888, 4000, 760, 1224, 2245, 1335]	12	Present	stimAuditory/all_stimAuditory/213.wav	stimVisual/all_stimVisual/202.jpg	PRESENT	0.725492000579834	36.67124390602112	38.68240785598755	39.732977867126465	40.08332300186157	42.80207085609436	4.1196630001068115	[36.69357895851135, 36.81064200401306, 37.79486894607544, 37.961503982543945, 38.71228885650635, 38.829118967056274, 38.94599795341492, 39.06280994415283, 39.17955994606018, 39.29647088050842, 39.41326689720154, 39.52987885475159, 39.66351008415222, 39.76339507102966, 39.88034200668335, 39.99698996543884, 40.113966941833496, 40.230835914611816, 40.34758687019348, 40.464202880859375, 40.581043004989624, 40.80207085609436]	[36.698201907348675, 36.81486857401534, 37.79786857401534, 37.96456857401534, 38.71456857401534, 38.831235240682005, 38.94790190734867, 39.06456857401534, 39.18123524068201, 39.297901907348674, 39.41456857401534, 39.53123524068201, 39.647901907348675, 39.76456857401534, 39.88123524068201, 39.99790190734868, 40.114568574015344, 40.23123524068201, 40.34790190734868, 40.464568574015345, 40.58123524068201, 40.81456857401535]	2021_Feb_10_1142	59.93583871940372	1	1
28	8	FALSE	NV	v	['W', 'T', 'Y', 'C', 'V', 'K', 'U', 'P', 'X', 'A', 'H', 'N', 'R', 'E', 'G', 'B']	[2448, 1888, 2670, 829, 2245, 1122, 2059, 1456, 4000, 697, 986, 1335, 1587, 904, 944, 760]	9	Present	NA	NA	PRESENT	0.2901630401611328	42.79431891441345	44.79877495765686	45.49912905693054	45.84928297996521	48.91843795776367	4.1196630001068115	[42.81665301322937, 42.93351602554321, 43.91790294647217, 44.08464789390564, 44.835484981536865, 44.9523868560791, 45.06909799575806, 45.18587899208069, 45.30271005630493, 45.4193480014801, 45.5362069606781, 45.65308690071106, 45.7699248790741, 45.88657188415527, 46.00334405899048, 46.12018299102783, 46.236896991729736, 46.35374093055725, 46.470606088638306, 46.58722186088562, 46.7041449546814, 46.918437004089355]	[42.81456857401535, 42.931235240682014, 43.91423524068201, 44.08093524068201, 44.83093524068201, 44.94760190734868, 45.064268574015344, 45.18093524068201, 45.29760190734868, 45.414268574015345, 45.53093524068201, 45.64760190734868, 45.76426857401535, 45.880935240682014, 45.99760190734868, 46.11426857401535, 46.230935240682015, 46.34760190734868, 46.46426857401535, 46.58093524068202, 46.697601907348684, 46.93093524068202]	2021_Feb_10_1142	59.93583871940372	1	1
28	9	FALSE	NA	v	['S', 'C', 'U', 'V', 'K', 'N', 'B', 'H', 'X', 'Y', 'J', 'A', 'Z', 'P', 'T', 'R']	[1731, 829, 2059, 2245, 1122, 1335, 760, 986, 4000, 2670, 1029, 697, 2911, 1456, 1888, 1587]	9	Present	NA	NA	PRESENT	0.29558491706848145	48.91755986213684	50.9151599407196	51.61565399169922	51.965476989746094	55.03480386734009	4.119643926620483	[48.93989300727844, 49.039774894714355, 50.024637937545776, 50.19104599952698, 50.958646059036255, 51.058533906936646, 51.192070960998535, 51.30896997451782, 51.40899586677551, 51.52573108673096, 51.642536878585815, 51.75932788848877, 51.876137018203735, 51.99284386634827, 52.10963487625122, 52.22643804550171, 52.34322905540466, 52.46002197265625, 52.57683205604553, 52.69361400604248, 52.81065797805786, 53.034801959991455]	[48.93093524068202, 49.047601907348685, 50.03060190734868, 50.19730190734868, 50.94730190734868, 51.06396857401535, 51.180635240682015, 51.29730190734868, 51.41396857401535, 51.53063524068202, 51.647301907348684, 51.76396857401535, 51.88063524068202, 51.997301907348685, 52.11396857401535, 52.23063524068202, 52.34730190734869, 52.463968574015354, 52.58063524068202, 52.69730190734869, 52.813968574015355, 53.04730190734869]	2021_Feb_10_1142	59.93583871940372	1	1
28	10	FALSE	NN	v	['W', 'C', 'H', 'Z', 'E', 'Y', 'N', 'M', 'V', 'S', 'A', 'R', 'K', 'B', 'J', 'P']	[2448, 829, 986, 2911, 904, 2670, 1335, 1224, 2245, 1731, 697, 1587, 1122, 760, 1029, 1456]	13	Absent	NA	NA	ABSENT	0.39608192443847656	55.02379107475281	57.03175401687622	58.19872093200683	58.54873299598694	61.1511709690094	4.119416952133179	[55.04612493515015, 55.16313195228577, 56.147289991378784, 56.31424593925476, 57.06498694419861, 57.18181085586548, 57.29857301712036, 57.41529393196106, 57.53214693069458, 57.649085998535156, 57.76592803001404, 57.88243889808655, 57.999428033828735, 58.115936040878296, 58.23268985748291, 58.34964108467102, 58.466508865356445, 58.58319807052612, 58.70014691352844, 58.81681799888611, 58.933692932128906, 59.15117001533508]	[55.04730190734869, 55.16396857401536, 56.146968574015354, 56.31366857401535, 57.06366857401535, 57.18033524068202, 57.29700190734869, 57.413668574015354, 57.53033524068202, 57.64700190734869, 57.763668574015355, 57.88033524068202, 57.99700190734869, 58.11366857401536, 58.230335240682024, 58.34700190734869, 58.46366857401536, 58.580335240682025, 58.69700190734869, 58.81366857401536, 58.93033524068203, 59.16366857401536]	2021_Feb_10_1142	59.93583871940372	1	1
28	11	FALSE	VA	v	['U', 'V', 'K', 'Y', 'J', 'G', 'B', 'H', 'A', 'surprise', 'M', 'R', 'X', 'E', 'W', 'C']	[2059, 2245, 1122, 2670, 1029, 944, 760, 986, 697, 'stimAuditory/all_stimAuditory/207.wav', 1224, 1587, 4000, 904, 2448, 829]	13	Present	NA	stimVisual/all_stimVisual/214.jpg	PRESENT	0.28144407272338867	61.14749598503113	63.14780688285827	64.31524300575256	64.6653618812561	67.26753807067871	4.119731187820435	[61.16982889175415, 61.28616285324097, 62.27046298980713, 62.437161922454834, 63.188055992126465, 63.304765939712524, 63.42172908782959, 63.538596868515015, 63.65537786483765, 63.77200508117676, 63.88890099525452, 64.00574207305908, 64.12255787849426, 64.23921799659729, 64.35602188110352, 64.47283387184143, 64.58937692642212, 64.7063479423523, 64.82295989990234, 64.93997406959534, 65.03989386558533, 65.26753687858582]	[61.16366857401536, 61.28033524068203, 62.263335240682025, 62.430035240682024, 63.180035240682024, 63.29670190734869, 63.41336857401536, 63.530035240682025, 63.64670190734869, 63.76336857401536, 63.88003524068203, 63.996701907348694, 64.11336857401535, 64.23003524068201, 64.34670190734867, 64.46336857401533, 64.580035240682, 64.69670190734865, 64.81336857401531, 64.93003524068197, 65.04670190734863, 65.28003524068197]	2021_Feb_10_1142	59.93583871940372	1	1
28	12	FALSE	NV	v	['B', 'C', 'K', 'W', 'T', 'Z', 'A', 'S', 'G', 'N', 'J', 'P', 'X', 'E', 'U', 'Y']	[760, 829, 1122, 2448, 1888, 2911, 697, 1731, 944, 1335, 1029, 1456, 4000, 904, 2059, 2670]	13	Present	NA	NA	PRESENT	0.30197906494140625	67.25343990325928	69.26432800292969	70.43127202987671	70.7816059589386	73.38390398025513	4.1195759773254395	[67.2757740020752, 67.39254903793335, 68.37692093849182, 68.54358196258545, 69.2943480014801, 69.41109585762024, 69.52812600135803, 69.64471197128296, 69.76180291175842, 69.87831807136536, 69.99519205093384, 70.11198902130127, 70.22896003723145, 70.34559106826782, 70.46248197555542, 70.57903599739075, 70.69626498222351, 70.81266403198242, 70.92954802513123, 71.04630303382874, 71.16296887397766, 71.38390398025513]	[67.28003524068197, 67.39670190734863, 68.37970190734863, 68.54640190734864, 69.29640190734864, 69.4130685740153, 69.52973524068196, 69.64640190734862, 69.76306857401528, 69.87973524068194, 69.9964019073486, 70.11306857401526, 70.22973524068192, 70.34640190734858, 70.46306857401524, 70.5797352406819, 70.69640190734856, 70.81306857401522, 70.92973524068188, 71.04640190734854, 71.1630685740152, 71.39640190734853]	2021_Feb_10_1142	59.93583871940372	1	1
28	13	FALSE	NN	v	['H', 'V', 'M', 'J', 'P', 'A', 'W', 'K', 'C', 'N', 'E', 'S', 'T', 'R', 'B', 'G']	[986, 2245, 1224, 1029, 1456, 697, 2448, 1122, 829, 1335, 904, 1731, 1888, 1587, 760, 944]	8	Absent	NA	NA	ABSENT	0.28250885009765625	73.37646508216858	75.38102793693542	75.96428203582764	76.31435894966125	79.50027108192444	4.119243144989014	[73.3987979888916, 73.51541495323181, 74.49977397918701, 74.66677498817444, 75.41759085655212, 75.53421998023987, 75.65112090110779, 75.76792097091675, 75.88473796844482, 76.00142693519592, 76.11846208572388, 76.28516793251038, 76.35200595855713, 76.46883201599121, 76.58558106422424, 76.7020959854126, 76.81877398490906, 76.93585586547852, 77.05260300636292, 77.16945505142212, 77.2861979007721, 77.50026988983154]	[73.39640190734853, 73.5130685740152, 74.4960685740152, 74.6627685740152, 75.4127685740152, 75.52943524068186, 75.64610190734852, 75.76276857401518, 75.87943524068184, 75.9961019073485, 76.11276857401516, 76.22943524068182, 76.34610190734848, 76.46276857401514, 76.5794352406818, 76.69610190734846, 76.81276857401512, 76.92943524068178, 77.04610190734844, 77.1627685740151, 77.27943524068176, 77.5127685740151]	2021_Feb_10_1142	59.93583871940372	1	1
28	14	FALSE	AA	v	['P', 'M', 'A', 'C', 'surprise', 'T', 'G', 'X', 'Y', 'W', 'V', 'R', 'B', 'S', 'U', 'Z']	[1456, 1224, 697, 829, 'stimAuditory/all_stimAuditory/220.wav', 1888, 944, 4000, 2670, 2448, 2245, 1587, 760, 1731, 2059, 2911]	8	Present	stimAuditory/all_stimAuditory/207.wav	stimVisual/all_stimVisual/50.jpg	PRESENT	0.5277609825134277	79.49939298629761	81.49708700180054	82.08085989952087	82.43066692352295	85.61663794517517	4.119550943374634	[79.52172708511353, 79.62189197540283, 80.60625290870667, 80.77335596084595, 81.54070091247559, 81.64067387580872, 81.77422308921814, 81.87419700622559, 82.00770497322083, 82.10784888267517, 82.22459197044373, 82.34139800071716, 82.45817995071411, 82.57500100135803, 82.69174408912659, 82.80840301513672, 82.92525291442871, 83.04208707809448, 83.15890598297119, 83.27582597732544, 83.3926010131836, 83.61663699150085]	[79.5127685740151, 79.62943524068176, 80.61243524068176, 80.77913524068177, 81.52913524068177, 81.64580190734843, 81.76246857401509, 81.87913524068175, 81.99580190734841, 82.11246857401507, 82.22913524068173, 82.34580190734839, 82.46246857401505, 82.57913524068171, 82.69580190734837, 82.81246857401503, 82.92913524068169, 83.04580190734835, 83.16246857401501, 83.27913524068167, 83.39580190734833, 83.62913524068166]	2021_Feb_10_1142	59.93583871940372	1	1
28	15	FALSE	NV	v	['W', 'V', 'G', 'M', 'E', 'P', 'C', 'U', 'X', 'R', 'H', 'B', 'N', 'K', 'S', 'Z']	[2448, 2245, 944, 1224, 904, 1456, 829, 2059, 4000, 1587, 986, 760, 1335, 1122, 1731, 2911]	9	Present	NA	NA	PRESENT	0.3323099613189697	85.60583806037903	87.61346006393433	88.3139169216156	88.66398906707764	91.7330038547516	4.119543790817261	[85.62817096710205, 85.7451000213623, 86.72956895828247, 86.89625406265259, 87.64702296257019, 87.76376104354858, 87.88065886497498, 87.99732995033264, 88.11422085762024, 88.23095202445984, 88.3478410243988, 88.46453499794006, 88.58145785331726, 88.69825601577759, 88.81512498855591, 88.9316189289093, 89.04831194877625, 89.16524004936218, 89.28190803527832, 89.39889788627625, 89.5155918598175, 89.73300385475159]	[85.62913524068166, 85.74580190734832, 86.72880190734833, 86.89550190734833, 87.64550190734833, 87.76216857401499, 87.87883524068165, 87.99550190734831, 88.11216857401497, 88.22883524068163, 88.3455019073483, 88.46216857401495, 88.57883524068161, 88.69550190734827, 88.81216857401493, 88.9288352406816, 89.04550190734825, 89.16216857401491, 89.27883524068157, 89.39550190734823, 89.5121685740149, 89.74550190734823]	2021_Feb_10_1142	59.93583871940372	1	1
28	16	FALSE	NN	v	['Y', 'W', 'R', 'Z', 'C', 'V', 'A', 'B', 'H', 'T', 'G', 'M', 'P', 'S', 'E', 'U']	[2670, 2448, 1587, 2911, 829, 2245, 697, 760, 986, 1888, 944, 1224, 1456, 1731, 904, 2059]	10	Absent	NA	NA	ABSENT	0.3456399440765381	91.72935891151428	93.72979307174684	94.5468978881836	94.89677786827087	97.8493709564209	4.119577884674072	[91.7516930103302, 91.86807203292847, 92.85264706611633, 93.01937294006348, 93.77010703086853, 93.88686990737915, 94.00378203392029, 94.12052702903748, 94.23741888999939, 94.35416507720947, 94.47082805633545, 94.58757400512695, 94.70430207252502, 94.82129001617432, 94.93788504600525, 95.05512285232544, 95.17148089408875, 95.28852891921997, 95.40523099899292, 95.52190899848938, 95.62197089195251, 95.84937191009521]	[91.74550190734823, 91.86216857401489, 92.84516857401489, 93.0118685740149, 93.7618685740149, 93.87853524068156, 93.99520190734822, 94.11186857401488, 94.22853524068154, 94.3452019073482, 94.46186857401486, 94.57853524068152, 94.69520190734818, 94.81186857401484, 94.9285352406815, 95.04520190734816, 95.16186857401482, 95.27853524068148, 95.39520190734814, 95.5118685740148, 95.62853524068146, 95.86186857401479]	2021_Feb_10_1142	59.93583871940372	1	1
28	17	FALSE	VV	v	['J', 'K', 'A', 'S', 'R', 'W', 'H', 'V', 'surprise', 'Y', 'E', 'X', 'N', 'Z', 'C', 'U']	[1029, 1122, 697, 1731, 1587, 2448, 986, 2245, 'stimAuditory/all_stimAuditory/122.wav', 2670, 904, 4000, 1335, 2911, 829, 2059]	12	Present	NA	stimVisual/all_stimVisual/121.jpg	PRESENT	0.8862588405609131	97.83524298667908	99.84623908996582	100.8966670036316	101.24658393859865	103.96573686599731	4.119497776031494	[97.857577085495, 97.97455096244812, 98.95883893966675, 99.12575387954712, 99.8763599395752, 99.9933569431305, 100.11014485359192, 100.22675704956055, 100.34366488456726, 100.46043300628662, 100.57729506492615, 100.69396591186523, 100.82746696472168, 100.92762994766235, 101.04452991485596, 101.16117286682129, 101.27800297737122, 101.39470291137695, 101.51145505905151, 101.62866687774658, 101.7451069355011, 101.96573686599731]	[97.86186857401479, 97.97853524068145, 98.96153524068146, 99.12823524068146, 99.87823524068146, 99.99490190734812, 100.11156857401478, 100.22823524068144, 100.3449019073481, 100.46156857401476, 100.57823524068142, 100.69490190734808, 100.81156857401474, 100.9282352406814, 101.04490190734806, 101.16156857401472, 101.27823524068138, 101.39490190734804, 101.5115685740147, 101.62823524068136, 101.74490190734802, 101.97823524068136]	2021_Feb_10_1142	59.93583871940372	1	1
28	18	FALSE	NA	v	['J', 'G', 'W', 'Z', 'V', 'H', 'N', 'X', 'M', 'C', 'R', 'E', 'K', 'T', 'B', 'A']	[1029, 944, 2448, 2911, 2245, 986, 1335, 4000, 1224, 829, 1587, 904, 1122, 1888, 760, 697]	8	Present	NA	NA	ABSENT	0.4668431282043457	103.9585280418396	105.96244192123412	106.54617285728456	106.8961250782013	110.08210396766664	4.119662046432495	[103.98087286949158, 104.09754204750061, 105.08198094367981, 105.24882292747498, 105.99953198432922, 106.11625504493713, 106.23308205604553, 106.35010385513306, 106.46682786941528, 106.5835120677948, 106.70018100738525, 106.81711196899414, 106.93408298492432, 107.05080103874207, 107.16743493080139, 107.28439497947693, 107.40106105804443, 107.51794290542603, 107.6345739364624, 107.75153398513794, 107.86818289756775, 108.08210301399231]	[103.97823524068136, 104.09490190734802, 105.07790190734802, 105.24460190734803, 105.99460190734803, 106.11126857401469, 106.22793524068135, 106.34460190734801, 106.46126857401467, 106.57793524068133, 106.69460190734799, 106.81126857401465, 106.92793524068131, 107.04460190734797, 107.16126857401463, 107.27793524068129, 107.39460190734795, 107.51126857401461, 107.62793524068127, 107.74460190734793, 107.86126857401459, 108.09460190734792]	2021_Feb_10_1142	59.93583871940372	1	1
28	19	FALSE	NA	v	['Y', 'W', 'A', 'V', 'B', 'T', 'C', 'N', 'X', 'Z', 'P', 'E', 'H', 'J', 'R', 'S']	[2670, 2448, 697, 2245, 760, 1888, 829, 1335, 4000, 2911, 1456, 904, 986, 1029, 1587, 1731]	9	Present	NA	NA	PRESENT	0.2881309986114502	110.0815999507904	112.07897400856018	112.77929091453552	113.12917304039	116.19847106933594	4.119497060775757	[110.10393285751343, 110.20385694503784, 111.1883020401001, 111.35522699356079, 112.12307906150818, 112.22267293930054, 112.33941793441772, 112.45623898506165, 112.58973407745361, 112.68986201286316, 112.80662488937378, 112.92339205741882, 113.04016304016113, 113.15700197219849, 113.27399396896362, 113.39066791534424, 113.50730800628662, 113.62404894828796, 113.74088287353516, 113.85776686668396, 113.97469997406006, 114.19847106933594]	[110.09460190734792, 110.21126857401458, 111.19426857401459, 111.36096857401459, 112.11096857401459, 112.22763524068125, 112.34430190734791, 112.46096857401457, 112.57763524068123, 112.69430190734789, 112.81096857401455, 112.92763524068121, 113.04430190734787, 113.16096857401453, 113.27763524068119, 113.39430190734785, 113.51096857401451, 113.62763524068117, 113.74430190734783, 113.86096857401449, 113.97763524068115, 114.21096857401449]	2021_Feb_10_1142	59.93583871940372	1	1
28	20	FALSE	NA	v	['U', 'W', 'Z', 'H', 'S', 'T', 'G', 'K', 'C', 'X', 'M', 'Y', 'J', 'A', 'R', 'P']	[2059, 2448, 2911, 986, 1731, 1888, 944, 1122, 829, 4000, 1224, 2670, 1029, 697, 1587, 1456]	10	Present	NA	NA	PRESENT	0.3005499839782715	116.18796801567078	118.1952588558197	119.01226091384888	119.36213302612305	122.31483793258668	4.119579076766968	[116.2103009223938, 116.32709407806396, 117.31141090393066, 117.47839903831482, 118.22901606559753, 118.34577989578247, 118.46269702911377, 118.57951807975769, 118.69627499580383, 118.81296992301941, 118.92986798286438, 119.0466799736023, 119.1633620262146, 119.28019595146179, 119.39713096618652, 119.51392197608948, 119.6305320262909, 119.74735593795776, 119.86399698257446, 119.98098087310791, 120.09750604629517, 120.31483697891235]	[116.21096857401449, 116.32763524068115, 117.31063524068115, 117.47733524068116, 118.22733524068116, 118.34400190734782, 118.46066857401448, 118.57733524068114, 118.6940019073478, 118.81066857401446, 118.92733524068112, 119.04400190734778, 119.16066857401444, 119.2773352406811, 119.39400190734776, 119.51066857401442, 119.62733524068108, 119.74400190734774, 119.8606685740144, 119.97733524068106, 120.09400190734772, 120.32733524068105]	2021_Feb_10_1142	59.93583871940372	1	1
28	21	FALSE	AV	v	['M', 'P', 'J', 'N', 'Y', 'G', 'V', 'H', 'surprise', 'B', 'C', 'X', 'A', 'T', 'Z', 'U']	[1224, 1456, 1029, 1335, 2670, 944, 2245, 986, 'stimAuditory/all_stimAuditory/203.wav', 760, 829, 4000, 697, 1888, 2911, 2059]	12	Present	stimAuditory/all_stimAuditory/220.wav	stimVisual/all_stimVisual/107.jpg	PRESENT	0.33000612258911133	122.31146001815796	124.31172704696657	125.36226391792296	125.71214509010316	128.4312040805817	4.119477033615112	[122.3337938785553, 122.45021891593933, 123.43471693992615, 123.60134100914001, 124.35214591026306, 124.46896386146545, 124.58567404747009, 124.7026309967041, 124.81945204734802, 124.93616986274719, 125.05295896530151, 125.16977787017822, 125.2864830493927, 125.40337491035461, 125.5199658870697, 125.63694286346436, 125.75361585617065, 125.87028789520264, 125.98727202415466, 126.10408902168274, 126.20389795303345, 126.43120288848877]	[122.32733524068105, 122.44400190734771, 123.42700190734772, 123.59370190734772, 124.34370190734772, 124.46036857401438, 124.57703524068104, 124.6937019073477, 124.81036857401436, 124.92703524068102, 125.04370190734768, 125.16036857401434, 125.277035240681, 125.39370190734766, 125.51036857401432, 125.62703524068098, 125.74370190734764, 125.8603685740143, 125.97703524068096, 126.09370190734762, 126.21036857401428, 126.44370190734762]	2021_Feb_10_1142	59.93583871940372	1	1
28	22	FALSE	NN	v	['N', 'C', 'J', 'P', 'T', 'Z', 'E', 'B', 'Y', 'A', 'G', 'V', 'W', 'K', 'S', 'M']	[1335, 829, 1029, 1456, 1888, 2911, 904, 760, 2670, 697, 944, 2245, 2448, 1122, 1731, 1224]	8	Absent	NA	NA	ABSENT	0.1905200481414795	128.41738605499268	130.42809391021729	131.01182293891907	131.36171698570251	134.5475709438324	4.119477033615112	[128.43971991539001, 128.5566439628601, 129.54091906547546, 129.7077989578247, 130.45840096473694, 130.5752489566803, 130.69221305847168, 130.8090078830719, 130.92581391334534, 131.042494058609, 131.15930891036987, 131.27606296539307, 131.3930070400238, 131.50971508026123, 131.6268150806427, 131.74332189559937, 131.85997605323792, 131.97685408592224, 132.09359693527222, 132.2104139328003, 132.3272340297699, 132.54756999015808]	[128.44370190734762, 128.5603685740143, 129.5433685740143, 129.7100685740143, 130.4600685740143, 130.57673524068096, 130.69340190734763, 130.8100685740143, 130.92673524068098, 131.04340190734766, 131.16006857401433, 131.276735240681, 131.39340190734768, 131.51006857401435, 131.62673524068103, 131.7434019073477, 131.86006857401438, 131.97673524068105, 132.09340190734773, 132.2100685740144, 132.32673524068107, 132.5600685740144]	2021_Feb_10_1142	59.93583871940372	1	1
28	23	FALSE	NA	v	['Y', 'G', 'V', 'S', 'K', 'U', 'A', 'X', 'H', 'N', 'B', 'J', 'R', 'E', 'Z', 'T']	[2670, 944, 2245, 1731, 1122, 2059, 697, 4000, 986, 1335, 760, 1029, 1587, 904, 2911, 1888]	8	Present	NA	NA	PRESENT	0.20270991325378415	134.54051208496094	136.54431986808777	137.12808299064636	137.4780879020691	140.6639380455017	4.11961817741394	[134.56284594535828, 134.6797399520874, 135.66419386863708, 135.83080792427063, 136.58160996437073, 136.69848108291626, 136.81505298614502, 136.9320330619812, 137.04883289337158, 137.16565990447998, 137.28224396705627, 137.39918494224548, 137.51608300209045, 137.63292002677917, 137.74950695037842, 137.86651992797852, 137.9832639694214, 138.10011291503906, 138.2165548801422, 138.3335189819336, 138.45018696784973, 138.6639368534088]	[134.5600685740144, 134.67673524068107, 135.65973524068107, 135.82643524068106, 136.57643524068106, 136.69310190734774, 136.8097685740144, 136.9264352406811, 137.04310190734776, 137.15976857401444, 137.2764352406811, 137.39310190734778, 137.50976857401446, 137.62643524068113, 137.7431019073478, 137.85976857401448, 137.97643524068116, 138.09310190734783, 138.2097685740145, 138.32643524068118, 138.44310190734785, 138.67643524068117]	2021_Feb_10_1142	59.93583871940372	1	1
28	24	FALSE	NV	v	['K', 'W', 'R', 'Z', 'J', 'M', 'U', 'G', 'X', 'Y', 'E', 'B', 'P', 'V', 'A', 'S']	[1122, 2448, 1587, 2911, 1029, 1224, 2059, 944, 4000, 2670, 904, 760, 1456, 2245, 697, 1731]	9	Present	NA	NA	PRESENT	0.2883338928222656	140.6636519432068	142.66057896614075	143.36142992973328	143.71130800247192	146.78030395507812	4.119724988937378	[140.6859850883484, 140.7858760356903, 141.77075099945068, 141.93730401992798, 142.70466995239258, 142.8046989440918, 142.92145586013794, 143.03833603858948, 143.1550328731537, 143.27183604240417, 143.38863492012024, 143.50546407699585, 143.62225008010864, 143.73904991149902, 143.85584497451782, 143.97270488739014, 144.08942103385925, 144.20627403259277, 144.32311391830444, 144.43977999687195, 144.5565700531006, 144.7803030014038]	[140.67643524068117, 140.79310190734785, 141.77610190734785, 141.94280190734784, 142.69280190734784, 142.80946857401452, 142.9261352406812, 143.04280190734787, 143.15946857401454, 143.2761352406812, 143.3928019073479, 143.50946857401456, 143.62613524068124, 143.7428019073479, 143.85946857401458, 143.97613524068126, 144.09280190734793, 144.2094685740146, 144.32613524068128, 144.44280190734796, 144.55946857401463, 144.79280190734795]	2021_Feb_10_1142	59.93583871940372	1	1
28	25	FALSE	NV	v	['Y', 'S', 'A', 'N', 'H', 'K', 'M', 'X', 'U', 'R', 'W', 'Z', 'T', 'P', 'J', 'C']	[2670, 1731, 697, 1335, 986, 1122, 1224, 4000, 2059, 1587, 2448, 2911, 1888, 1456, 1029, 829]	8	Present	NA	NA	ABSENT	0.3408830165863037	146.77008390426636	148.77699494361875	149.3609049320221	149.7113800048828	152.89667105674744	4.119676113128662	[146.79241800308228, 146.90918707847595, 147.89354300498962, 148.06044387817383, 148.81108808517456, 148.9277880191803, 149.044753074646, 149.16146802902222, 149.27830696105957, 149.39512586593628, 149.51201486587524, 149.62872290611267, 149.74554085731506, 149.86240601539612, 149.97892308235168, 150.09591102600098, 150.21248698234558, 150.32954907417297, 150.44613099098206, 150.56297397613525, 150.67976808547974, 150.89666986465454]	[146.79280190734795, 146.90946857401462, 147.89246857401463, 148.05916857401462, 148.80916857401462, 148.9258352406813, 149.04250190734797, 149.15916857401464, 149.27583524068132, 149.392501907348, 149.50916857401467, 149.62583524068134, 149.74250190734801, 149.8591685740147, 149.97583524068136, 150.09250190734804, 150.2091685740147, 150.32583524068139, 150.44250190734806, 150.55916857401473, 150.6758352406814, 150.90916857401473]	2021_Feb_10_1142	59.93583871940372	1	1
28	26	FALSE	NV	v	['K', 'W', 'N', 'E', 'G', 'Y', 'R', 'P', 'B', 'U', 'A', 'X', 'T', 'V', 'M', 'C']	[1122, 2448, 1335, 904, 944, 2670, 1587, 1456, 760, 2059, 697, 4000, 1888, 2245, 1224, 829]	12	Present	NA	NA	PRESENT	0.26621103286743164	152.8934359550476	154.89360308647156	155.94373106956482	156.2938849925995	159.01303791999817	4.119434833526611	[152.91577005386353, 153.0321969985962, 154.0166940689087, 154.18377304077148, 154.93423700332642, 155.05109906196594, 155.1678569316864, 155.28456592559814, 155.401437997818, 155.5182249546051, 155.6349048614502, 155.75183391571045, 155.8686170578003, 155.98539900779724, 156.1022229194641, 156.2190489768982, 156.33579301834106, 156.45263600349426, 156.5692548751831, 156.68605494499207, 156.7859649658203, 157.01303696632385]	[152.90916857401473, 153.0258352406814, 154.0088352406814, 154.1755352406814, 154.9255352406814, 155.04220190734807, 155.15886857401475, 155.27553524068142, 155.3922019073481, 155.50886857401477, 155.62553524068144, 155.74220190734812, 155.8588685740148, 155.97553524068147, 156.09220190734814, 156.20886857401482, 156.3255352406815, 156.44220190734816, 156.55886857401484, 156.6755352406815, 156.7922019073482, 157.0255352406815]	2021_Feb_10_1142	59.93583871940372	1	1
28	27	FALSE	VA	v	['J', 'B', 'V', 'C', 'surprise', 'K', 'Z', 'X', 'R', 'G', 'N', 'H', 'T', 'Y', 'U', 'W']	[1029, 760, 2245, 829, 'stimAuditory/all_stimAuditory/219.wav', 1122, 2911, 4000, 1587, 944, 1335, 986, 1888, 2670, 2059, 2448]	8	Present	NA	stimVisual/all_stimVisual/114.jpg	PRESENT	0.6147880554199219	158.99945306777954	161.01010990142822	161.59362888336182	161.94356298446655	165.12940287590027	4.119292974472046	[159.0217878818512, 159.13847589492798, 160.12297701835632, 160.28989505767822, 161.0403950214386, 161.1573450565338, 161.2741858959198, 161.3909158706665, 161.52440786361694, 161.62447500228882, 161.741455078125, 161.85811495780945, 161.97497391700745, 162.09172892570496, 162.20857000350952, 162.3254358768463, 162.4419629573822, 162.55889987945557, 162.6761200428009, 162.79248189926147, 162.90925192832947, 163.12940406799316]	[159.0255352406815, 159.14220190734818, 160.12520190734818, 160.29190190734818, 161.04190190734818, 161.15856857401485, 161.27523524068152, 161.3919019073482, 161.50856857401487, 161.62523524068155, 161.74190190734822, 161.8585685740149, 161.97523524068157, 162.09190190734824, 162.20856857401492, 162.3252352406816, 162.44190190734827, 162.55856857401494, 162.67523524068162, 162.7919019073483, 162.90856857401496, 163.14190190734828]	2021_Feb_10_1142	59.93583871940372	1	1
28	28	FALSE	NA	v	['J', 'E', 'C', 'T', 'G', 'R', 'Z', 'Y', 'A', 'U', 'N', 'K', 'X', 'B', 'V', 'W']	[1029, 904, 829, 1888, 944, 1587, 2911, 2670, 697, 2059, 1335, 1122, 4000, 760, 2245, 2448]	13	Present	NA	NA	PRESENT	0.45129895210266113	165.12264704704285	167.1261339187622	168.2932870388031	168.6432490348816	171.24576997756958	4.119636058807373	[165.14497900009155, 165.26170301437378, 166.24622106552124, 166.41308188438416, 167.163635969162, 167.28051686286926, 167.39719891548157, 167.5141110420227, 167.63097405433655, 167.74758005142212, 167.86437702178955, 167.98117089271545, 168.09797286987305, 168.2149200439453, 168.33168601989746, 168.4484419822693, 168.56524991989136, 168.68249106407166, 168.7988018989563, 168.9154760837555, 169.0322949886322, 169.2457709312439]	[165.14190190734828, 165.25856857401496, 166.24156857401496, 166.40826857401495, 167.15826857401495, 167.27493524068163, 167.3916019073483, 167.50826857401498, 167.62493524068165, 167.74160190734833, 167.858268574015, 167.97493524068167, 168.09160190734835, 168.20826857401502, 168.3249352406817, 168.44160190734837, 168.55826857401505, 168.67493524068172, 168.7916019073484, 168.90826857401507, 169.02493524068174, 169.25826857401506]	2021_Feb_10_1142	59.93583871940372	1	1
28	29	FALSE	NA	v	['A', 'S', 'K', 'B', 'Z', 'T', 'P', 'N', 'V', 'X', 'W', 'Y', 'H', 'J', 'R', 'G']	[697, 1731, 1122, 760, 2911, 1888, 1456, 1335, 2245, 4000, 2448, 2670, 986, 1029, 1587, 944]	10	Present	NA	NA	PRESENT	0.4325728416442871	171.22877407073975	173.24237298965454	174.05970096588135	174.4094500541687	177.3621380329132	4.119765043258667	[171.25110697746277, 171.36790299415588, 172.3525140285492, 172.51949000358582, 173.28706288337708, 173.38670587539673, 173.50351786613464, 173.62026500701904, 173.73710894584656, 173.85388708114624, 173.9706859588623, 174.08749389648438, 174.20434188842773, 174.3211510181427, 174.43788290023804, 174.5548279285431, 174.67165994644165, 174.78839206695557, 174.9050898551941, 175.0220229625702, 175.1386640071869, 175.3621380329132]	[171.25826857401506, 171.37493524068174, 172.35793524068174, 172.52463524068173, 173.27463524068173, 173.3913019073484, 173.50796857401508, 173.62463524068176, 173.74130190734843, 173.8579685740151, 173.97463524068178, 174.09130190734845, 174.20796857401513, 174.3246352406818, 174.44130190734847, 174.55796857401515, 174.67463524068182, 174.7913019073485, 174.90796857401517, 175.02463524068185, 175.14130190734852, 175.37463524068184]	2021_Feb_10_1142	59.93583871940372	1	1
28	30	FALSE	NN	v	['S', 'W', 'U', 'T', 'G', 'P', 'A', 'V', 'R', 'J', 'E', 'Z', 'Y', 'C', 'N', 'K']	[1731, 2448, 2059, 1888, 944, 1456, 697, 2245, 1587, 1029, 904, 2911, 2670, 829, 1335, 1122]	14	Absent	NA	NA	ABSENT	0.29318785667419434	177.3521020412445	179.3587589263916	180.6427810192108	180.99258708953855	183.4785029888153	4.119744062423706	[177.37443494796753, 177.4911069869995, 178.47561693191528, 178.64243698120117, 179.39317989349365, 179.50997304916382, 179.62685894966125, 179.74356293678284, 179.86020588874817, 179.97718286514282, 180.09382796287537, 180.2106330394745, 180.32755208015442, 180.44444298744202, 180.5611469745636, 180.67783904075623, 180.79466605186462, 180.91134786605835, 181.02839589118958, 181.1450960636139, 181.26179385185242, 181.4785029888153]	[177.37463524068184, 177.49130190734851, 178.47430190734852, 178.6410019073485, 179.3910019073485, 179.50766857401518, 179.62433524068186, 179.74100190734853, 179.8576685740152, 179.97433524068188, 180.09100190734856, 180.20766857401523, 180.3243352406819, 180.44100190734858, 180.55766857401525, 180.67433524068193, 180.7910019073486, 180.90766857401528, 181.02433524068195, 181.14100190734862, 181.2576685740153, 181.49100190734862]	2021_Feb_10_1142	59.93583871940372	1	1
28	31	FALSE	NN	v	['Z', 'R', 'B', 'U', 'H', 'M', 'W', 'V', 'Y', 'C', 'S', 'E', 'N', 'J', 'A', 'T']	[2911, 1587, 760, 2059, 986, 1224, 2448, 2245, 2670, 829, 1731, 904, 1335, 1029, 697, 1888]	8	Absent	NA	NA	ABSENT	0.18637919425964355	183.47538089752197	185.47537088394165	186.05893898010257	186.40895795822144	189.59487295150757	4.119502067565918	[183.4977159500122, 183.61428093910217, 184.59862399101257, 184.76541304588318, 185.51605486869812, 185.63288593292236, 185.74968099594116, 185.86652493476868, 185.98345398902893, 186.10031294822693, 186.2169370651245, 186.3336579799652, 186.45052289962769, 186.5674569606781, 186.68429899215698, 186.8011019229889, 186.91779899597168, 187.03449606895447, 187.15152406692505, 187.26802587509155, 187.3682930469513, 187.59486985206604]	[183.49100190734862, 183.6076685740153, 184.5906685740153, 184.7573685740153, 185.5073685740153, 185.62403524068196, 185.74070190734864, 185.8573685740153, 185.97403524068199, 186.09070190734866, 186.20736857401533, 186.324035240682, 186.44070190734868, 186.55736857401536, 186.67403524068203, 186.7907019073487, 186.90736857401538, 187.02403524068205, 187.14070190734873, 187.2573685740154, 187.37403524068208, 187.6073685740154]	2021_Feb_10_1142	59.93583871940372	1	1
28	32	FALSE	AV	v	['U', 'C', 'Y', 'M', 'P', 'A', 'E', 'surprise', 'B', 'R', 'X', 'T', 'G', 'V', 'J', 'N']	[2059, 829, 2670, 1224, 1456, 697, 904, 'stimAuditory/all_stimAuditory/217.wav', 760, 1587, 4000, 1888, 944, 2245, 1029, 1335]	11	Present	stimAuditory/all_stimAuditory/122.wav	stimVisual/all_stimVisual/104.jpg	PRESENT	0.25498199462890625	189.5816090106964	191.59176588058472	192.52531695365903	192.8754940032959	195.71123790740967	4.119472026824951	[189.60394191741943, 189.72048592567444, 190.70494985580444, 190.87193202972412, 191.62247896194458, 191.73936295509338, 191.85624504089355, 191.97306895256042, 192.08988690376282, 192.20662593841553, 192.32322692871094, 192.4568190574646, 192.55683398246765, 192.67406606674194, 192.79047989845276, 192.90738892555237, 193.0241219997406, 193.14105987548828, 193.2577259540558, 193.37455987930298, 193.49132990837097, 193.71123790740967]	[189.6073685740154, 189.72403524068207, 190.70703524068207, 190.87373524068207, 191.62373524068207, 191.74040190734874, 191.85706857401541, 191.9737352406821, 192.09040190734876, 192.20706857401544, 192.3237352406821, 192.4404019073488, 192.55706857401546, 192.67373524068213, 192.7904019073488, 192.90706857401548, 193.02373524068216, 193.14040190734883, 193.2570685740155, 193.37373524068218, 193.49040190734885, 193.72373524068217]	2021_Feb_10_1142	59.93583871940372	1	1
28	33	FALSE	NV	v	['V', 'J', 'A', 'S', 'W', 'B', 'E', 'P', 'H', 'Z', 'U', 'M', 'C', 'X', 'G', 'R']	[2245, 1029, 697, 1731, 2448, 760, 904, 1456, 986, 2911, 2059, 1224, 829, 4000, 944, 1587]	14	Present	NA	NA	PRESENT	0.2515439987182617	195.7047069072723	197.70821404457092	198.9916939735413	199.34178185462952	201.82760286331177	4.119388818740845	[195.72704005241394, 195.84368705749512, 196.82824397087097, 196.99491906166077, 197.74558806419373, 197.86251997947693, 197.97923493385315, 198.09614205360413, 198.21286606788635, 198.32977986335754, 198.4464249610901, 198.56339502334595, 198.68002200126648, 198.79701399803162, 198.9135389328003, 199.03053092956543, 199.14723587036133, 199.26408886909485, 199.3808400630951, 199.49766087532043, 199.61454105377197, 199.82760405540466]	[195.72373524068217, 195.84040190734885, 196.82340190734885, 196.99010190734884, 197.74010190734884, 197.85676857401552, 197.9734352406822, 198.09010190734887, 198.20676857401554, 198.32343524068222, 198.4401019073489, 198.55676857401556, 198.67343524068224, 198.7901019073489, 198.9067685740156, 199.02343524068226, 199.14010190734894, 199.2567685740156, 199.37343524068228, 199.49010190734896, 199.60676857401563, 199.84010190734895]	2021_Feb_10_1142	59.93583871940372	1	1
28	34	FALSE	NV	v	['T', 'M', 'E', 'H', 'C', 'Z', 'B', 'K', 'Y', 'N', 'G', 'R', 'P', 'X', 'A', 'J']	[1888, 1224, 904, 986, 829, 2911, 760, 1122, 2670, 1335, 944, 1587, 1456, 4000, 697, 1029]	14	Present	NA	NA	PRESENT	0.2887411117553711	201.810879945755	203.82445001602173	205.1081199645996	205.4581859111786	207.9439709186554	4.119520902633667	[201.83321404457092, 201.9500229358673, 202.93469905853271, 203.10146188735962, 203.86876106262207, 203.9688138961792, 204.0856008529663, 204.20232892036438, 204.31919288635254, 204.43594193458557, 204.55270385742188, 204.66951298713684, 204.78637290000916, 204.90327286720276, 205.0200810432434, 205.1368498802185, 205.2537019252777, 205.37048888206482, 205.4871120452881, 205.60407400131226, 205.72090101242065, 205.9439709186554]	[201.84010190734895, 201.95676857401563, 202.93976857401563, 203.10646857401562, 203.85646857401562, 203.9731352406823, 204.08980190734897, 204.20646857401564, 204.32313524068232, 204.439801907349, 204.55646857401567, 204.67313524068234, 204.78980190734902, 204.9064685740157, 205.02313524068236, 205.13980190734904, 205.2564685740157, 205.3731352406824, 205.48980190734906, 205.60646857401574, 205.7231352406824, 205.95646857401573]	2021_Feb_10_1142	59.93583871940372	1	1
28	35	FALSE	AN	v	['Y', 'S', 'G', 'H', 'C', 'surprise', 'B', 'M', 'V', 'W', 'J', 'E', 'P', 'N', 'A', 'T']	[2670, 1731, 944, 986, 829, 'stimAuditory/all_stimAuditory/121.wav', 760, 1224, 2245, 2448, 1029, 904, 1456, 1335, 697, 1888]	9	Absent	stimAuditory/all_stimAuditory/203.wav	stimVisual/all_stimVisual/203.jpg	ABSENT	0.33333611488342285	207.9341459274292	209.94075107574463	210.6413609981537	210.9910888671875	214.0603370666504	4.119585990905762	[207.95648002624512, 208.073322057724, 209.05773901939392, 209.22434496879578, 209.97513699531555, 210.09202003479004, 210.20863103866577, 210.32557606697083, 210.4422619342804, 210.57580399513245, 210.6760060787201, 210.79272198677063, 210.90947604179382, 211.02639603614807, 211.14314007759094, 211.2600359916687, 211.37673592567444, 211.49365186691284, 211.6101839542389, 211.7270290851593, 211.8439600467682, 212.0603370666504]	[207.95646857401573, 208.0731352406824, 209.0561352406824, 209.2228352406824, 209.9728352406824, 210.08950190734907, 210.20616857401575, 210.32283524068242, 210.4395019073491, 210.55616857401577, 210.67283524068245, 210.78950190734912, 210.9061685740158, 211.02283524068247, 211.13950190734914, 211.25616857401582, 211.3728352406825, 211.48950190734917, 211.60616857401584, 211.7228352406825, 211.8395019073492, 212.0728352406825]	2021_Feb_10_1142	59.93583871940372	1	1
28	36	FALSE	NV	v	['W', 'V', 'M', 'U', 'K', 'P', 'N', 'E', 'H', 'T', 'J', 'B', 'C', 'X', 'S', 'A']	[2448, 2245, 1224, 2059, 1122, 1456, 1335, 904, 986, 1888, 1029, 760, 829, 4000, 1731, 697]	14	Present	NA	NA	PRESENT	0.2346501350402832	214.05747890472412	216.05724692344663	217.3408088684082	217.6908130645752	220.17670392990112	4.119457006454468	[214.07981300354004, 214.19639086723328, 215.18078589439392, 215.34749102592468, 216.09826397895813, 216.2149510383606, 216.33184695243835, 216.4488000869751, 216.56549191474915, 216.68229985237122, 216.79903101921082, 216.91594791412354, 217.0326840877533, 217.14930891990662, 217.266254901886, 217.3830349445343, 217.49989295005798, 217.6165909767151, 217.7334179878235, 217.8502459526062, 217.9502818584442, 218.17670392990112]	[214.0728352406825, 214.18950190734918, 215.1725019073492, 215.33920190734918, 216.08920190734918, 216.20586857401585, 216.32253524068253, 216.4392019073492, 216.55586857401588, 216.67253524068255, 216.78920190734922, 216.9058685740159, 217.02253524068257, 217.13920190734925, 217.25586857401592, 217.3725352406826, 217.48920190734927, 217.60586857401594, 217.72253524068262, 217.8392019073493, 217.95586857401597, 218.1892019073493]	2021_Feb_10_1142	59.93583871940372	1	1
28	37	FALSE	NV	v	['W', 'G', 'T', 'A', 'R', 'P', 'Z', 'S', 'V', 'J', 'N', 'X', 'H', 'B', 'Y', 'C']	[2448, 944, 1888, 697, 1587, 1456, 2911, 1731, 2245, 1029, 1335, 4000, 986, 760, 2670, 829]	12	Present	NA	NA	PRESENT	0.3191859722137451	220.16364097595215	222.17341899871823	223.2240359783173	223.5740668773651	226.29307103157043	4.119652032852173	[220.18597388267517, 220.30258297920227, 221.2870728969574, 221.45392489433289, 222.20460104942322, 222.32146096229553, 222.43817591667175, 222.55501008033752, 222.67177987098694, 222.7885398864746, 222.90555906295776, 223.0223228931427, 223.13895893096924, 223.25590801239014, 223.37255096435547, 223.48949599266052, 223.60608792304993, 223.72336888313293, 223.83977508544922, 223.9566090106964, 224.0733768939972, 224.29307103157043]	[220.1892019073493, 220.30586857401596, 221.28886857401596, 221.45556857401596, 222.20556857401596, 222.32223524068263, 222.4389019073493, 222.55556857401598, 222.67223524068265, 222.78890190734933, 222.905568574016, 223.02223524068268, 223.13890190734935, 223.25556857401602, 223.3722352406827, 223.48890190734937, 223.60556857401605, 223.72223524068272, 223.8389019073494, 223.95556857401607, 224.07223524068274, 224.30556857401606]	2021_Feb_10_1142	59.93583871940372	1	1
28	38	FALSE	VA	v	['E', 'P', 'C', 'A', 'R', 'G', 'Z', 'Y', 'N', 'K', 'surprise', 'U', 'V', 'X', 'M', 'T']	[904, 1456, 829, 697, 1587, 944, 2911, 2670, 1335, 1122, 'stimAuditory/all_stimAuditory/222.wav', 2059, 2245, 4000, 1224, 1888]	14	Present	NA	stimVisual/all_stimVisual/117.jpg	PRESENT	0.6036889553070068	226.28665900230408	228.28982400894165	229.57426595687863	229.9237849712372	232.40943789482117	4.119613885879517	[226.30899286270142, 226.4258589744568, 227.4102818965912, 227.57688403129578, 228.3278250694275, 228.4446189403534, 228.56131887435913, 228.67806005477905, 228.79489994049072, 228.91172003746033, 229.02841305732727, 229.14541888237, 229.26200199127197, 229.37888193130493, 229.49570894241333, 229.61231207847595, 229.72928500175476, 229.84601187705994, 229.96286392211914, 230.07975697517395, 230.19654393196106, 230.40943694114685]	[226.30556857401606, 226.42223524068274, 227.40523524068274, 227.57193524068273, 228.32193524068273, 228.4386019073494, 228.55526857401608, 228.67193524068276, 228.78860190734943, 228.9052685740161, 229.02193524068278, 229.13860190734945, 229.25526857401613, 229.3719352406828, 229.48860190734948, 229.60526857401615, 229.72193524068282, 229.8386019073495, 229.95526857401617, 230.07193524068285, 230.18860190734952, 230.42193524068284]	2021_Feb_10_1142	59.93583871940372	1	1
28	39	FALSE	NV	v	['S', 'W', 'R', 'P', 'B', 'H', 'M', 'X', 'C', 'Z', 'A', 'G', 'E', 'Y', 'J', 'N']	[1731, 2448, 1587, 1456, 760, 986, 1224, 4000, 829, 2911, 697, 944, 904, 2670, 1029, 1335]	8	Present	NA	NA	PRESENT	0.36885690689086914	232.39304995536804	234.40633296966553	234.98984289169312	235.3400559425354	238.52580499649048	4.119472026824951	[232.41538405418396, 232.53210592269897, 233.5165569782257, 233.68369603157043, 234.45125007629395, 234.550950050354, 234.6676468849182, 234.78446698188782, 234.90116596221924, 235.017963886261, 235.13499307632446, 235.2515549659729, 235.36837100982666, 235.48530888557434, 235.60193395614624, 235.71887707710266, 235.83555388450623, 235.95250487327576, 236.06929397583008, 236.18590307235718, 236.30286192893982, 236.52580404281616]	[232.42193524068284, 232.53860190734952, 233.52160190734952, 233.6883019073495, 234.4383019073495, 234.5549685740162, 234.67163524068286, 234.78830190734953, 234.9049685740162, 235.02163524068288, 235.13830190734956, 235.25496857401623, 235.3716352406829, 235.48830190734958, 235.60496857401625, 235.72163524068293, 235.8383019073496, 235.95496857401628, 236.07163524068295, 236.18830190734963, 236.3049685740163, 236.53830190734962]	2021_Feb_10_1142	59.93583871940372	1	1
28	40	FALSE	NA	v	['M', 'J', 'V', 'G', 'E', 'U', 'C', 'N', 'H', 'Y', 'B', 'P', 'X', 'Z', 'T', 'W']	[1224, 1029, 2245, 944, 904, 2059, 829, 1335, 986, 2670, 760, 1456, 4000, 2911, 1888, 2448]	13	Present	NA	NA	PRESENT	1.0535659790039062	238.51628589630127	240.5225839614868	241.6898159980774	242.03960704803467	244.6421749591827	4.119590997695923	[238.53861904144287, 238.6554079055786, 239.6396360397339, 239.80661988258362, 240.5571858882904, 240.6741259098053, 240.79087805747986, 240.9076600074768, 241.02426886558533, 241.14120602607727, 241.25795888900757, 241.37492394447327, 241.49153900146484, 241.60830187797546, 241.7250690460205, 241.84204602241516, 241.95882487297058, 242.07556200027466, 242.19239401817322, 242.30924892425537, 242.42578601837158, 242.64216899871826]	[238.53830190734962, 238.6549685740163, 239.6379685740163, 239.8046685740163, 240.5546685740163, 240.67133524068296, 240.78800190734964, 240.9046685740163, 241.021335240683, 241.13800190734966, 241.25466857401634, 241.371335240683, 241.48800190734968, 241.60466857401636, 241.72133524068303, 241.8380019073497, 241.95466857401638, 242.07133524068306, 242.18800190734973, 242.3046685740164, 242.42133524068308, 242.6546685740164]	2021_Feb_10_1142	59.93583871940372	1	1
28	41	FALSE	NV	v	['C', 'V', 'N', 'B', 'J', 'M', 'K', 'H', 'S', 'A', 'P', 'X', 'Y', 'E', 'G', 'R']	[829, 2245, 1335, 760, 1029, 1224, 1122, 986, 1731, 697, 1456, 4000, 2670, 904, 944, 1587]	12	Present	NA	NA	PRESENT	0.266787052154541	244.63922905921936	246.63879895210263	247.68952298164368	248.03940796852112	250.7585380077362	4.119739055633545	[244.66156196594238, 244.77852606773376, 245.7627580165863, 245.92962503433228, 246.68029189109802, 246.7972810268402, 246.91385006904602, 247.0307788848877, 247.1474940776825, 247.2643609046936, 247.3810338973999, 247.49789094924927, 247.61482286453247, 247.7315709590912, 247.84832286834717, 247.96493792533875, 248.0819010734558, 248.19859099388123, 248.3154489994049, 248.4321858882904, 248.53222608566284, 248.75853896141052]	[244.6546685740164, 244.77133524068307, 245.75433524068308, 245.92103524068307, 246.67103524068307, 246.78770190734974, 246.90436857401642, 247.0210352406831, 247.13770190734976, 247.25436857401644, 247.3710352406831, 247.4877019073498, 247.60436857401646, 247.72103524068314, 247.8377019073498, 247.95436857401648, 248.07103524068316, 248.18770190734983, 248.3043685740165, 248.42103524068318, 248.53770190734986, 248.77103524068318]	2021_Feb_10_1142	59.93583871940372	1	1
28	42	FALSE	VN	v	['T', 'G', 'M', 'V', 'U', 'surprise', 'H', 'B', 'C', 'N', 'S', 'E', 'Z', 'P', 'R', 'J']	[1888, 944, 1224, 2245, 2059, 'stimAuditory/all_stimAuditory/109.wav', 986, 760, 829, 1335, 1731, 904, 2911, 1456, 1587, 1029]	9	Absent	NA	stimVisual/all_stimVisual/212.jpg	ABSENT	0.29535508155822754	250.7457559108734	252.75528192520144	253.45590996742249	253.80583095550537	256.8749039173126	4.119621992111206	[250.76808905601501, 250.88478899002075, 251.86918306350708, 252.03588008880615, 252.78669595718384, 252.9037308692932, 253.02041101455688, 253.1371660232544, 253.25381994247437, 253.38745999336243, 253.48743104934692, 253.60425806045532, 253.72128105163574, 253.83768105506897, 253.95462894439697, 254.07153797149658, 254.18814206123352, 254.30508399009705, 254.42181396484375, 254.53846788406372, 254.65549302101135, 254.87490391731262]	[250.77103524068318, 250.88770190734985, 251.87070190734985, 252.03740190734985, 252.78740190734985, 252.90406857401652, 253.0207352406832, 253.13740190734987, 253.25406857401654, 253.37073524068322, 253.4874019073499, 253.60406857401657, 253.72073524068324, 253.8374019073499, 253.9540685740166, 254.07073524068326, 254.18740190734994, 254.3040685740166, 254.42073524068329, 254.53740190734996, 254.65406857401663, 254.88740190734995]	2021_Feb_10_1142	59.93583871940372	1	1
28	43	FALSE	NA	v	['G', 'B', 'R', 'U', 'E', 'H', 'C', 'Z', 'X', 'N', 'P', 'A', 'K', 'W', 'M', 'Y']	[944, 760, 1587, 2059, 904, 986, 829, 2911, 4000, 1335, 1456, 697, 1122, 2448, 1224, 2670]	9	Present	NA	NA	PRESENT	0.1801919937133789	256.8687858581543	258.8714179992676	259.5722510814667	259.92212104797363	262.99127101898193	4.1198530197143555	[256.8911190032959, 257.0078070163727, 257.9921760559082, 258.1589820384979, 258.90978503227234, 259.0265519618988, 259.14339303970337, 259.2601730823517, 259.37690687179565, 259.49382305145264, 259.6105408668518, 259.7274339199066, 259.84416103363037, 259.96101999282837, 260.0778169631958, 260.194375038147, 260.3114540576935, 260.42804408073425, 260.545019865036, 260.6617588996887, 260.7785038948059, 260.9912700653076]	[256.88740190734995, 257.0040685740166, 257.98706857401663, 258.1537685740166, 258.9037685740166, 259.0204352406833, 259.13710190735, 259.25376857401665, 259.3704352406833, 259.48710190735, 259.60376857401667, 259.72043524068334, 259.83710190735, 259.9537685740167, 260.07043524068337, 260.18710190735004, 260.3037685740167, 260.4204352406834, 260.53710190735006, 260.65376857401674, 260.7704352406834, 261.00376857401676]	2021_Feb_10_1142	59.93583871940372	1	1
28	44	FALSE	NN	v	['R', 'M', 'E', 'Z', 'K', 'J', 'H', 'B', 'C', 'A', 'V', 'N', 'G', 'S', 'Y', 'W']	[1587, 1224, 904, 2911, 1122, 1029, 986, 760, 829, 697, 2245, 1335, 944, 1731, 2670, 2448]	12	Absent	NA	NA	ABSENT	0.37724995613098145	262.97500491142273	264.9882640838623	266.038694858551	266.38852190971375	269.10763788223267	4.119373798370361	[262.99733805656433, 263.1141529083252, 264.09888100624084, 264.265291929245, 265.0329759120941, 265.1329560279846, 265.24969601631165, 265.3664219379425, 265.48320293426514, 265.600133895874, 265.71680307388306, 265.8338038921356, 265.95041608810425, 266.06737208366394, 266.18403792381287, 266.3009650707245, 266.41763401031494, 266.5343930721283, 266.65128087997437, 266.7682008743286, 266.8848628997803, 267.10763597488403]	[263.00376857401676, 263.12043524068343, 264.10343524068344, 264.27013524068343, 265.02013524068343, 265.1368019073501, 265.2534685740168, 265.37013524068345, 265.4868019073501, 265.6034685740168, 265.7201352406835, 265.83680190735015, 265.9534685740168, 266.0701352406835, 266.1868019073502, 266.30346857401685, 266.4201352406835, 266.5368019073502, 266.65346857401687, 266.77013524068354, 266.8868019073502, 267.12013524068357]	2021_Feb_10_1142	59.93583871940372	1	1
28	45	FALSE	NA	v	['N', 'Z', 'U', 'T', 'E', 'S', 'B', 'V', 'C', 'K', 'X', 'M', 'R', 'W', 'P', 'G']	[1335, 2911, 2059, 1888, 904, 1731, 760, 2245, 829, 1122, 4000, 1224, 1587, 2448, 1456, 944]	11	Present	NA	NA	PRESENT	0.17385506629943848	269.09817695617676	271.1043908596039	272.03859400749207	272.388151884079	275.224004983902	4.119614124298096	[269.1205110549927, 269.23744106292725, 270.22172808647156, 270.3884770870209, 271.13921093940735, 271.2562758922577, 271.37293887138367, 271.48971796035767, 271.6064279079437, 271.7232789993286, 271.83996987342834, 271.95697498321533, 272.0737018585205, 272.1905999183655, 272.3072009086609, 272.4238669872284, 272.5408329963684, 272.65761399269104, 272.77444887161255, 272.89104986190796, 273.0078749656677, 273.2240059375763]	[269.12013524068357, 269.23680190735024, 270.21980190735025, 270.38650190735024, 271.13650190735024, 271.2531685740169, 271.3698352406836, 271.48650190735026, 271.60316857401693, 271.7198352406836, 271.8365019073503, 271.95316857401696, 272.06983524068363, 272.1865019073503, 272.303168574017, 272.41983524068365, 272.5365019073503, 272.653168574017, 272.7698352406837, 272.88650190735035, 273.003168574017, 273.2365019073504]	2021_Feb_10_1142	59.93583871940372	1	1
28	46	FALSE	NN	v	['T', 'Z', 'M', 'B', 'E', 'K', 'R', 'S', 'J', 'C', 'H', 'G', 'U', 'A', 'W', 'V']	[1888, 2911, 1224, 760, 904, 1122, 1587, 1731, 1029, 829, 986, 944, 2059, 697, 2448, 2245]	9	Absent	NA	NA	ABSENT	0.3072690963745117	275.2215909957886	277.220685005188	277.9211308956146	278.2712399959564	281.3403708934784	4.119685888290405	[275.2439248561859, 275.36049485206604, 276.3448739051819, 276.5115580558777, 277.2625410556793, 277.37924695014954, 277.4960560798645, 277.61277294158936, 277.7293770313263, 277.8463680744171, 277.96304297447205, 278.0798749923706, 278.19680190086365, 278.31351685523987, 278.43031787872314, 278.54723286628723, 278.6639049053192, 278.7806088924408, 278.8976089954376, 279.01431703567505, 279.1143310070038, 279.3403708934784]	[275.2365019073504, 275.35316857401705, 276.33616857401705, 276.50286857401704, 277.25286857401704, 277.3695352406837, 277.4862019073504, 277.60286857401707, 277.71953524068374, 277.8362019073504, 277.9528685740171, 278.06953524068376, 278.18620190735044, 278.3028685740171, 278.4195352406838, 278.53620190735046, 278.65286857401713, 278.7695352406838, 278.8862019073505, 279.00286857401716, 279.11953524068383, 279.3528685740172]	2021_Feb_10_1142	59.93583871940372	1	1
28	47	FALSE	NV	v	['Z', 'T', 'B', 'N', 'Y', 'H', 'A', 'P', 'G', 'E', 'C', 'J', 'X', 'S', 'U', 'V']	[2911, 1888, 760, 1335, 2670, 986, 697, 1456, 944, 904, 829, 1029, 4000, 1731, 2059, 2245]	13	Present	NA	NA	PRESENT	0.311568021774292	281.3277609348297	283.3373849391937	284.5042290687561	284.85427498817444	287.4567379951477	4.1193530559539795	[281.35009503364563, 281.4668929576874, 282.4513008594513, 282.6179039478302, 283.3688099384308, 283.485720872879, 283.60232400894165, 283.7192370891571, 283.8358619213104, 283.952565908432, 284.0694580078125, 284.18635606765747, 284.3029808998108, 284.419725894928, 284.5366139411926, 284.65386390686035, 284.77023792266846, 284.8869140148163, 285.0039620399475, 285.12068700790405, 285.237596988678, 285.4567379951477]	[281.3528685740172, 281.46953524068385, 282.45253524068386, 282.61923524068385, 283.36923524068385, 283.4859019073505, 283.6025685740172, 283.7192352406839, 283.83590190735055, 283.9525685740172, 284.0692352406839, 284.18590190735057, 284.30256857401724, 284.4192352406839, 284.5359019073506, 284.65256857401727, 284.76923524068394, 284.8859019073506, 285.0025685740173, 285.11923524068396, 285.23590190735064, 285.469235240684]	2021_Feb_10_1142	59.93583871940372	1	1
28	48	FALSE	NV	v	['M', 'C', 'W', 'B', 'R', 'S', 'P', 'Z', 'U', 'V', 'H', 'A', 'K', 'X', 'T', 'Y']	[1224, 829, 2448, 760, 1587, 1731, 1456, 2911, 2059, 2245, 986, 697, 1122, 4000, 1888, 2670]	14	Present	NA	NA	PRESENT	0.2762949466705322	287.4507529735565	289.4535548686981	290.7374620437622	291.0876259803772	293.5731039047241	4.119549036026001	[287.47308707237244, 287.5900058746338, 288.5741720199585, 288.74103593826294, 289.4918270111084, 289.6088020801544, 289.7255439758301, 289.84238505363464, 289.95888090133667, 290.07571506500244, 290.1925950050354, 290.3095009326935, 290.42625093460083, 290.5428910255432, 290.6598708629608, 290.77652406692505, 290.89339804649353, 291.0101308822632, 291.1267828941345, 291.24384903907776, 291.3604168891907, 291.5731029510498]	[287.469235240684, 287.58590190735066, 288.56890190735066, 288.73560190735066, 289.48560190735066, 289.60226857401733, 289.718935240684, 289.8356019073507, 289.95226857401735, 290.068935240684, 290.1856019073507, 290.3022685740174, 290.41893524068405, 290.5356019073507, 290.6522685740174, 290.7689352406841, 290.88560190735075, 291.0022685740174, 291.1189352406841, 291.23560190735077, 291.35226857401744, 291.5856019073508]	2021_Feb_10_1142	59.93583871940372	1	1
28	49	FALSE	NN	v	['V', 'H', 'G', 'Z', 'A', 'E', 'M', 'R', 'J', 'P', 'B', 'N', 'W', 'S', 'Y', 'K']	[2245, 986, 944, 2911, 697, 904, 1224, 1587, 1029, 1456, 760, 1335, 2448, 1731, 2670, 1122]	14	Absent	NA	NA	ABSENT	0.425616979598999	293.5571038722992	295.57013607025146	296.85368490219116	297.2037489414215	299.6894700527191	4.119333982467651	[293.57944989204407, 293.6962990760803, 294.68103194236755, 294.8475179672241, 295.6150538921356, 295.71519899368286, 295.8317790031433, 295.94881892204285, 296.0652930736542, 296.1820390224457, 296.298907995224, 296.41569805145264, 296.5325388908386, 296.6494770050049, 296.7661290168762, 296.88308787345886, 296.9996829032898, 297.11663699150085, 297.2332739830017, 297.3500008583069, 297.4668040275574, 297.68947100639343]	[293.5856019073508, 293.70226857401747, 294.68526857401747, 294.85196857401746, 295.60196857401746, 295.71863524068414, 295.8353019073508, 295.9519685740175, 296.06863524068416, 296.18530190735083, 296.3019685740175, 296.4186352406842, 296.53530190735086, 296.65196857401753, 296.7686352406842, 296.8853019073509, 297.00196857401755, 297.1186352406842, 297.2353019073509, 297.3519685740176, 297.46863524068425, 297.7019685740176]	2021_Feb_10_1142	59.93583871940372	1	1
28	50	FALSE	NA	v	['T', 'K', 'M', 'C', 'S', 'N', 'Z', 'W', 'J', 'B', 'X', 'R', 'G', 'Y', 'A', 'P']	[1888, 1122, 1224, 829, 1731, 1335, 2911, 2448, 1029, 760, 4000, 1587, 944, 2670, 697, 1456]	11	Present	NA	NA	PRESENT	0.3343219757080078	299.680242061615	301.68613386154175	302.6201639175415	302.9701199531555	305.80583786964417	4.119704008102417	[299.702574968338, 299.81951808929443, 300.80385088920593, 300.9705619812012, 301.72130703926086, 301.8380959033966, 301.95506501197815, 302.07182002067566, 302.18854904174805, 302.30515789985657, 302.4220039844513, 302.53877091407776, 302.65576004981995, 302.77251386642456, 302.8892819881439, 303.0061089992523, 303.1228919029236, 303.2397060394287, 303.35652899742126, 303.47314500808716, 303.59007596969604, 303.80583786964417]	[299.7019685740176, 299.8186352406843, 300.8016352406843, 300.96833524068427, 301.71833524068427, 301.83500190735094, 301.9516685740176, 302.0683352406843, 302.18500190735097, 302.30166857401764, 302.4183352406843, 302.535001907351, 302.65166857401766, 302.76833524068434, 302.885001907351, 303.0016685740177, 303.11833524068436, 303.23500190735103, 303.3516685740177, 303.4683352406844, 303.58500190735106, 303.8183352406844]	2021_Feb_10_1142	59.93583871940372	1	1
28	51	FALSE	NA	v	['Y', 'P', 'G', 'E', 'R', 'A', 'S', 'X', 'Z', 'V', 'H', 'U', 'W', 'J', 'T', 'K']	[2670, 1456, 944, 904, 1587, 697, 1731, 4000, 2911, 2245, 986, 2059, 2448, 1029, 1888, 1122]	8	Present	NA	NA	PRESENT	0.3319089412689209	305.8035008907318	307.8028690814972	308.38673186302185	308.7371549606323	311.9222049713135	4.119335889816284	[305.82583498954773, 305.9423930644989, 306.9267530441284, 307.0936369895935, 307.84449791908264, 307.9611940383911, 308.0780608654022, 308.1948289871216, 308.3114528656006, 308.42818689346313, 308.545058965683, 308.6619989871979, 308.7786989212036, 308.895712852478, 309.0122458934784, 309.1293158531189, 309.24581003189087, 309.3628098964691, 309.47940587997437, 309.5963878631592, 309.6963610649109, 309.9222059249878]	[305.8183352406844, 305.9350019073511, 306.9180019073511, 307.0847019073511, 307.8347019073511, 307.95136857401775, 308.0680352406844, 308.1847019073511, 308.3013685740178, 308.41803524068445, 308.5347019073511, 308.6513685740178, 308.76803524068447, 308.88470190735114, 309.0013685740178, 309.1180352406845, 309.23470190735117, 309.35136857401784, 309.4680352406845, 309.5847019073512, 309.70136857401786, 309.9347019073512]	2021_Feb_10_1142	59.93583871940372	1	1
28	52	FALSE	NV	v	['M', 'C', 'W', 'K', 'A', 'B', 'Y', 'J', 'E', 'N', 'X', 'T', 'H', 'V', 'U', 'G']	[1224, 829, 2448, 1122, 697, 760, 2670, 1029, 904, 1335, 4000, 1888, 986, 2245, 2059, 944]	11	Present	NA	NA	PRESENT	0.2562999725341797	311.909863948822	313.91876196861267	314.85305404663086	315.2027380466461	318.0385708808899	4.119808912277222	[311.93219685554504, 312.0489749908447, 313.03294491767883, 313.1999430656433, 313.95064401626587, 314.06745505332947, 314.18488097190857, 314.30172896385193, 314.41773295402527, 314.53451800346375, 314.6513319015503, 314.76815700531006, 314.88491702079773, 315.0017080307007, 315.1186890602112, 315.2354440689087, 315.3521900177002, 315.4689350128174, 315.58588194847107, 315.7033910751343, 315.8193109035492, 316.0385708808899]	[311.9347019073512, 312.0513685740179, 313.0343685740179, 313.2010685740179, 313.9510685740179, 314.06773524068456, 314.18440190735123, 314.3010685740179, 314.4177352406846, 314.53440190735125, 314.6510685740179, 314.7677352406846, 314.8844019073513, 315.00106857401795, 315.1177352406846, 315.2344019073513, 315.351068574018, 315.46773524068465, 315.5844019073513, 315.701068574018, 315.81773524068467, 316.051068574018]	2021_Feb_10_1142	59.93583871940372	1	1
28	53	FALSE	NA	v	['C', 'K', 'J', 'P', 'T', 'M', 'R', 'E', 'V', 'A', 'Z', 'X', 'Y', 'W', 'N', 'S']	[829, 1122, 1029, 1456, 1888, 1224, 1587, 904, 2245, 697, 2911, 4000, 2670, 2448, 1335, 1731]	12	Present	NA	NA	PRESENT	0.2924778461456299	318.03268098831177	320.03553104400635	321.0859079360962	321.43592596054077	324.1549370288849	4.11940598487854	[318.0550150871277, 318.1717998981476, 319.1560719013214, 319.3228678703308, 320.0739870071411, 320.1907579898834, 320.3076078891754, 320.4244439601898, 320.54110407829285, 320.65781593322754, 320.77470088005066, 320.89135003089905, 321.0082778930664, 321.12489891052246, 321.24187994003296, 321.3585789203644, 321.4754819869995, 321.5921959877014, 321.7089328765869, 321.8257739543915, 321.9426100254059, 322.1549379825592]	[318.051068574018, 318.1677352406847, 319.1507352406847, 319.3174352406847, 320.0674352406847, 320.18410190735136, 320.30076857401804, 320.4174352406847, 320.5341019073514, 320.65076857401806, 320.76743524068473, 320.8841019073514, 321.0007685740181, 321.11743524068476, 321.23410190735143, 321.3507685740181, 321.4674352406848, 321.58410190735145, 321.7007685740181, 321.8174352406848, 321.9341019073515, 322.1674352406848]	2021_Feb_10_1142	59.93583871940372	1	1
28	54	FALSE	NV	v	['R', 'P', 'J', 'N', 'M', 'V', 'G', 'X', 'C', 'H', 'E', 'Y', 'A', 'Z', 'B', 'S']	[1587, 1456, 1029, 1335, 1224, 2245, 944, 4000, 829, 986, 904, 2670, 697, 2911, 760, 1731]	8	Present	NA	NA	PRESENT	0.2818489074707031	324.1392719745636	326.1516680717468	326.73552107810974	327.0858030319214	330.2713038921356	4.119635820388794	[324.1616048812866, 324.2782390117645, 325.2627868652344, 325.42956805229187, 326.1975989341736, 326.2970449924469, 326.4139039516449, 326.5306658744812, 326.6474039554596, 326.7640929222107, 326.8808150291443, 326.9976010322571, 327.11464285850525, 327.2315089702606, 327.34815192222595, 327.46487307548523, 327.581768989563, 327.698490858078, 327.81518387794495, 327.9320809841156, 328.0490939617157, 328.2713050842285]	[324.1674352406848, 324.2841019073515, 325.2671019073515, 325.4338019073515, 326.1838019073515, 326.30046857401817, 326.41713524068484, 326.5338019073515, 326.6504685740182, 326.76713524068487, 326.88380190735154, 327.0004685740182, 327.1171352406849, 327.23380190735156, 327.35046857401824, 327.4671352406849, 327.5838019073516, 327.70046857401826, 327.81713524068493, 327.9338019073516, 328.0504685740183, 328.28380190735163]	2021_Feb_10_1142	59.93583871940372	1	1
28	55	FALSE	NA	v	['V', 'H', 'K', 'Y', 'U', 'B', 'J', 'S', 'P', 'X', 'R', 'T', 'Z', 'E', 'W', 'N']	[2245, 986, 1122, 2670, 2059, 760, 1029, 1731, 1456, 4000, 1587, 1888, 2911, 904, 2448, 1335]	10	Present	NA	NA	PRESENT	0.29450392723083496	330.26226687431335	332.26817989349365	333.0851800441742	333.43568086624146	336.38767099380493	4.119491100311279	[330.2846009731293, 330.4015009403229, 331.385705947876, 331.552610874176, 332.3034188747406, 332.4203610420227, 332.5370090007782, 332.653706073761, 332.7704539299011, 332.88734197616577, 333.0041038990021, 333.1208028793335, 333.23759293556213, 333.3544020652771, 333.4713089466095, 333.58803391456604, 333.705039024353, 333.8215968608856, 333.93838596343994, 334.0553059577942, 334.1723608970642, 334.3876700401306]	[330.28380190735163, 330.4004685740183, 331.3834685740183, 331.5501685740183, 332.3001685740183, 332.416835240685, 332.53350190735165, 332.6501685740183, 332.766835240685, 332.8835019073517, 333.00016857401835, 333.116835240685, 333.2335019073517, 333.35016857401837, 333.46683524068504, 333.5835019073517, 333.7001685740184, 333.81683524068507, 333.93350190735174, 334.0501685740184, 334.1668352406851, 334.40016857401844]	2021_Feb_10_1142	59.93583871940372	1	1
28	56	FALSE	NA	v	['M', 'R', 'G', 'A', 'T', 'K', 'J', 'W', 'S', 'P', 'B', 'X', 'Y', 'V', 'U', 'N']	[1224, 1587, 944, 697, 1888, 1122, 1029, 2448, 1731, 1456, 760, 4000, 2670, 2245, 2059, 1335]	12	Present	NA	NA	PRESENT	0.22765803337097168	336.3856930732727	338.3845810890198	339.43500804901123	339.7852900028229	342.50403785705566	4.119456768035889	[336.40802693367004, 336.5246069431305, 337.49204993247986, 337.6588568687439, 338.4265670776367, 338.54327392578125, 338.66020798683167, 338.77676796913147, 338.8937990665436, 339.0103569030762, 339.1273000240326, 339.2439670562744, 339.36090898513794, 339.47761392593384, 339.5945439338684, 339.71122002601624, 339.8277909755707, 339.9447829723358, 340.06160593032837, 340.17839908599854, 340.2784950733185, 340.50403785705566]	[336.40016857401844, 336.5168352406851, 337.4998352406851, 337.6665352406851, 338.4165352406851, 338.5332019073518, 338.64986857401846, 338.76653524068513, 338.8832019073518, 338.9998685740185, 339.11653524068515, 339.2332019073518, 339.3498685740185, 339.4665352406852, 339.58320190735185, 339.6998685740185, 339.8165352406852, 339.9332019073519, 340.04986857401855, 340.1665352406852, 340.2832019073519, 340.51653524068524]	2021_Feb_10_1142	59.93583871940372	1	1
28	57	FALSE	NA	v	['A', 'E', 'C', 'Y', 'Z', 'R', 'M', 'W', 'T', 'U', 'N', 'X', 'B', 'H', 'P', 'V']	[697, 904, 829, 2670, 2911, 1587, 1224, 2448, 1888, 2059, 1335, 4000, 760, 986, 1456, 2245]	12	Present	NA	NA	PRESENT	0.20031094551086423	342.4916970729828	344.5005328655243	345.5514450073242	345.90145802497864	348.62040400505066	4.119871139526367	[342.5140309333801, 342.6310398578644, 343.61518597602844, 343.78209495544434, 344.53281903266907, 344.6497859954834, 344.76656103134155, 344.88335394859314, 345.00014996528625, 345.1167240142822, 345.2337439060211, 345.3504719734192, 345.46719002723694, 345.58412408828735, 345.701052904129, 345.8174469470978, 345.934287071228, 346.0510730743408, 346.16798186302185, 346.2846598625183, 346.4015460014343, 346.62040400505066]	[342.51653524068524, 342.6332019073519, 343.6162019073519, 343.7829019073519, 344.5329019073519, 344.6495685740186, 344.76623524068526, 344.88290190735194, 344.9995685740186, 345.1162352406853, 345.23290190735196, 345.34956857401863, 345.4662352406853, 345.582901907352, 345.69956857401866, 345.81623524068533, 345.932901907352, 346.0495685740187, 346.16623524068535, 346.282901907352, 346.3995685740187, 346.63290190735205]	2021_Feb_10_1142	59.93583871940372	1	1
28	58	FALSE	NA	v	['T', 'W', 'E', 'P', 'G', 'K', 'U', 'Z', 'N', 'B', 'V', 'A', 'X', 'J', 'C', 'Y']	[1888, 2448, 904, 1456, 944, 1122, 2059, 2911, 1335, 760, 2245, 697, 4000, 1029, 829, 2670]	13	Present	NA	NA	PRESENT	0.26170897483825684	348.6149010658264	350.6173360347748	351.78435707092285	352.1345388889313	354.7367708683014	4.119434833526611	[348.63723397254944, 348.75396704673767, 349.73833107948303, 349.9052150249481, 350.6560399532318, 350.77274894714355, 350.88971996307373, 351.0064480304718, 351.1232669353485, 351.2399408817291, 351.3567199707031, 351.473464012146, 351.5903089046478, 351.70695900917053, 351.82384991645813, 351.94068002700806, 352.0573489665985, 352.17424988746643, 352.2910749912262, 352.4078919887543, 352.52461194992065, 352.7367708683014]	[348.63290190735205, 348.7495685740187, 349.7325685740187, 349.8992685740187, 350.6492685740187, 350.7659352406854, 350.88260190735207, 350.99926857401874, 351.1159352406854, 351.2326019073521, 351.34926857401877, 351.46593524068544, 351.5826019073521, 351.6992685740188, 351.81593524068546, 351.93260190735214, 352.0492685740188, 352.1659352406855, 352.28260190735216, 352.39926857401883, 352.5159352406855, 352.74926857401886]	2021_Feb_10_1142	59.93583871940372	1	1
28	59	FALSE	NN	v	['E', 'T', 'Z', 'H', 'P', 'S', 'U', 'V', 'G', 'C', 'R', 'W', 'Y', 'J', 'B', 'A']	[904, 1888, 2911, 986, 1456, 1731, 2059, 2245, 944, 829, 1587, 2448, 2670, 1029, 760, 697]	9	Absent	NA	NA	ABSENT	0.3859419822692871	354.7212059497833	356.73352789878845	357.4340269565582	357.78445506095886	360.8531379699707	4.119610071182251	[354.74354004859924, 354.8604829311371, 355.8451159000397, 356.011461019516, 356.77940106391907, 356.87929701805115, 356.99596905708313, 357.11278796195984, 357.22963190078735, 357.34637904167175, 357.463073015213, 357.5798840522766, 357.69663405418396, 357.8132860660553, 357.93028593063354, 358.04689502716064, 358.163733959198, 358.28048491477966, 358.3975019454956, 358.514142036438, 358.63094687461853, 358.8531379699707]	[354.74926857401886, 354.86593524068553, 355.84893524068553, 356.0156352406855, 356.7656352406855, 356.8823019073522, 356.9989685740189, 357.11563524068555, 357.2323019073522, 357.3489685740189, 357.4656352406856, 357.58230190735225, 357.6989685740189, 357.8156352406856, 357.93230190735227, 358.04896857401894, 358.1656352406856, 358.2823019073523, 358.39896857401897, 358.51563524068564, 358.6323019073523, 358.86563524068566]	2021_Feb_10_1142	59.93583871940372	1	1
28	60	FALSE	AV	v	['U', 'P', 'T', 'Z', 'N', 'surprise', 'Y', 'S', 'X', 'K', 'M', 'W', 'E', 'V', 'R', 'H']	[2059, 1456, 1888, 2911, 1335, 'stimAuditory/all_stimAuditory/104.wav', 2670, 1731, 4000, 1122, 1224, 2448, 904, 2245, 1587, 986]	9	Present	stimAuditory/all_stimAuditory/219.wav	stimVisual/all_stimVisual/105.jpg	PRESENT	0.23866701126098633	360.8442339897156	362.8501720428467	363.5504140853882	363.90036487579346	366.9695038795471	4.1193318367004395	[360.8665680885315, 360.98334193229675, 361.9678828716278, 362.1346380710602, 362.88542890548706, 363.00218391418457, 363.11911487579346, 363.235888004303, 363.3527488708496, 363.4694039821625, 363.5861530303955, 363.70290088653564, 363.8198709487915, 363.93663001060486, 364.05325198173523, 364.1702148914337, 364.28665685653687, 364.4037640094757, 364.5204050540924, 364.63741087913513, 364.7542350292206, 364.9695029258728]	[360.86563524068566, 360.98230190735234, 361.96530190735234, 362.13200190735233, 362.88200190735233, 362.998668574019, 363.1153352406857, 363.23200190735236, 363.34866857401903, 363.4653352406857, 363.5820019073524, 363.69866857401905, 363.8153352406857, 363.9320019073524, 364.0486685740191, 364.16533524068575, 364.2820019073524, 364.3986685740191, 364.5153352406858, 364.63200190735245, 364.7486685740191, 364.98200190735247]	2021_Feb_10_1142	59.93583871940372	1	1
28	61	FALSE	NV	v	['T', 'R', 'C', 'Z', 'Y', 'M', 'H', 'N', 'A', 'G', 'E', 'J', 'W', 'X', 'B', 'P']	[1888, 1587, 829, 2911, 2670, 1224, 986, 1335, 697, 944, 904, 1029, 2448, 4000, 760, 1456]	14	Present	NA	NA	PRESENT	0.24390101432800293	366.9678449630738	368.9662809371948	370.2501800060272	370.6005129814148	373.0858709812164	4.1195900440216064	[366.99017906188965, 367.1065340042114, 368.07405185699463, 368.2409770488739, 369.008593082428, 369.12534189224243, 369.24211406707764, 369.35902404785156, 369.4757158756256, 369.59254789352417, 369.7091689109802, 369.82615208625793, 369.94292187690735, 370.05969190597534, 370.1764109134674, 370.29307985305786, 370.4100139141083, 370.5099539756775, 370.643718957901, 370.7435119152069, 370.86053800582886, 371.0858700275421]	[366.98200190735247, 367.09866857401914, 368.08166857401915, 368.24836857401914, 368.99836857401914, 369.1150352406858, 369.2317019073525, 369.34836857401916, 369.46503524068584, 369.5817019073525, 369.6983685740192, 369.81503524068586, 369.93170190735253, 370.0483685740192, 370.1650352406859, 370.28170190735256, 370.39836857401923, 370.5150352406859, 370.6317019073526, 370.74836857401925, 370.8650352406859, 371.0983685740193]	2021_Feb_10_1142	59.93583871940372	1	1
28	62	FALSE	NN	v	['B', 'E', 'W', 'J', 'N', 'R', 'Z', 'K', 'G', 'T', 'U', 'H', 'C', 'S', 'V', 'P']	[760, 904, 2448, 1029, 1335, 1587, 2911, 1122, 944, 1888, 2059, 986, 829, 1731, 2245, 1456]	12	Absent	NA	NA	ABSENT	0.2005519866943359	373.0738260746002	375.082720041275	376.13309693336487	376.4831290245056	379.20223808288574	4.119518041610718	[373.09615993499756, 373.21303486824036, 374.1971559524536, 374.36416602134705, 375.1148920059204, 375.23169589042664, 375.3486158847809, 375.4654469490051, 375.58226799964905, 375.698842048645, 375.81578493118286, 375.93233585357666, 376.0492510795593, 376.16599106788635, 376.2826430797577, 376.39966797828674, 376.5164668560028, 376.63345289230347, 376.7500820159912, 376.8668279647827, 376.983510017395, 377.20223808288574]	[373.0983685740193, 373.21503524068595, 374.19803524068595, 374.36473524068595, 375.11473524068595, 375.2314019073526, 375.3480685740193, 375.46473524068597, 375.58140190735264, 375.6980685740193, 375.814735240686, 375.93140190735267, 376.04806857401934, 376.164735240686, 376.2814019073527, 376.39806857401936, 376.51473524068604, 376.6314019073527, 376.7480685740194, 376.86473524068606, 376.98140190735273, 377.2147352406861]	2021_Feb_10_1142	59.93583871940372	1	1
28	63	FALSE	NN	v	['V', 'T', 'J', 'U', 'S', 'H', 'Y', 'R', 'N', 'G', 'P', 'M', 'Z', 'B', 'A', 'E']	[2245, 1888, 1029, 2059, 1731, 986, 2670, 1587, 1335, 944, 1456, 1224, 2911, 760, 697, 904]	13	Absent	NA	NA	ABSENT	0.21395397186279297	379.1970109939575	381.1990599632263	382.36614894866943	382.71612095832825	385.31860399246216	4.11954402923584	[379.21934485435486, 379.33591198921204, 380.32041096687317, 380.4872078895569, 381.2381429672241, 381.3547339439392, 381.4717059135437, 381.5883409976959, 381.70524501800537, 381.82198095321655, 381.9386639595032, 382.05552101135254, 382.17231488227844, 382.289186000824, 382.4058349132538, 382.52278208732605, 382.63959097862244, 382.7564480304718, 382.87312507629395, 382.9898769855499, 383.1066188812256, 383.31860399246216]	[379.2147352406861, 379.33140190735276, 380.31440190735276, 380.48110190735275, 381.23110190735275, 381.3477685740194, 381.4644352406861, 381.5811019073528, 381.69776857401945, 381.8144352406861, 381.9311019073528, 382.04776857401947, 382.16443524068615, 382.2811019073528, 382.3977685740195, 382.51443524068617, 382.63110190735284, 382.7477685740195, 382.8644352406862, 382.98110190735287, 383.09776857401954, 383.3311019073529]	2021_Feb_10_1142	59.93583871940372	1	1
28	64	FALSE	NN	v	['P', 'R', 'V', 'G', 'W', 'J', 'U', 'T', 'E', 'C', 'A', 'H', 'N', 'M', 'B', 'Z']	[1456, 1587, 2245, 944, 2448, 1029, 2059, 1888, 904, 829, 697, 986, 1335, 1224, 760, 2911]	14	Absent	NA	NA	ABSENT	0.1784658432006836	385.3032310009002	387.31537890434265	388.5995130538941	388.9493610858917	391.4349708557129	4.119591951370239	[385.3255648612976, 385.44252705574036, 386.42668294906616, 386.5935490131378, 387.3614809513092, 387.4612100124359, 387.57802391052246, 387.69472193717957, 387.8114778995514, 387.92832708358765, 388.0451898574829, 388.1619219779968, 388.2787139415741, 388.39543199539185, 388.51237893104553, 388.62897992134094, 388.745707988739, 388.86257696151733, 388.9795219898224, 389.09628987312317, 389.2131440639496, 389.4349708557129]	[385.3311019073529, 385.44776857401956, 386.43076857401957, 386.59746857401956, 387.34746857401956, 387.46413524068623, 387.5808019073529, 387.6974685740196, 387.81413524068626, 387.93080190735293, 388.0474685740196, 388.1641352406863, 388.28080190735295, 388.3974685740196, 388.5141352406863, 388.630801907353, 388.74746857401965, 388.8641352406863, 388.980801907353, 389.0974685740197, 389.21413524068635, 389.4474685740197]	2021_Feb_10_1142	59.93583871940372	1	1
28	65	FALSE	VV	v	['U', 'W', 'K', 'H', 'N', 'R', 'V', 'C', 'surprise', 'E', 'B', 'X', 'P', 'G', 'M', 'S']	[2059, 2448, 1122, 986, 1335, 1587, 2245, 829, 'stimAuditory/all_stimAuditory/223.wav', 904, 760, 4000, 1456, 944, 1224, 1731]	12	Present	NA	stimVisual/all_stimVisual/219.jpg	PRESENT	0.23883414268493652	391.42649698257446	393.4318759441376	394.4822769165039	394.8322730064392	397.5513370037079	4.1194610595703125	[391.4488298892975, 391.56558990478516, 392.54993200302124, 392.71685099601746, 393.4675669670105, 393.5842270851135, 393.70111989974976, 393.81781792640686, 393.9348249435425, 394.0514690876007, 394.1683919429779, 394.28509187698364, 394.4185540676117, 394.51850986480713, 394.63520908355713, 394.7521438598633, 394.86899304389954, 394.98578786849976, 395.10264706611633, 395.2194650173187, 395.3361840248108, 395.5513370037079]	[391.4474685740197, 391.56413524068637, 392.5471352406864, 392.71383524068636, 393.46383524068636, 393.58050190735304, 393.6971685740197, 393.8138352406864, 393.93050190735306, 394.04716857401974, 394.1638352406864, 394.2805019073531, 394.39716857401976, 394.51383524068643, 394.6305019073531, 394.7471685740198, 394.86383524068646, 394.98050190735313, 395.0971685740198, 395.2138352406865, 395.33050190735315, 395.5638352406865]	2021_Feb_10_1142	59.93583871940372	1	1
28	66	FALSE	NV	v	['C', 'K', 'V', 'B', 'Z', 'H', 'R', 'T', 'Y', 'M', 'E', 'P', 'W', 'X', 'A', 'S']	[829, 1122, 2245, 760, 2911, 986, 1587, 1888, 2670, 1224, 904, 1456, 2448, 4000, 697, 1731]	14	Present	NA	NA	PRESENT	0.2761249542236328	397.5498049259186	399.54809403419495	400.8317880630493	401.1820299625397	403.6677038669586	4.119609832763672	[397.5721380710602, 397.6885840892792, 398.65616106987, 398.8229489326477, 399.59064292907715, 399.70741987228394, 399.8241629600525, 399.94094705581665, 400.05778908729553, 400.17457389831543, 400.29140305519104, 400.4082748889923, 400.5249059200287, 400.64156794548035, 400.7584910392761, 400.8751449584961, 400.975154876709, 401.0919909477234, 401.2087709903717, 401.32567405700684, 401.4426579475403, 401.6677029132843]	[397.5638352406865, 397.6805019073532, 398.6635019073532, 398.83020190735317, 399.58020190735317, 399.69686857401985, 399.8135352406865, 399.9302019073532, 400.04686857401987, 400.16353524068654, 400.2802019073532, 400.3968685740199, 400.51353524068656, 400.63020190735324, 400.7468685740199, 400.8635352406866, 400.98020190735326, 401.09686857401994, 401.2135352406866, 401.3302019073533, 401.44686857401996, 401.6802019073533]	2021_Feb_10_1142	59.93583871940372	1	1
28	67	FALSE	NN	v	['Z', 'B', 'R', 'C', 'A', 'E', 'W', 'M', 'P', 'S', 'J', 'T', 'K', 'U', 'N', 'V']	[2911, 760, 1587, 829, 697, 904, 2448, 1224, 1456, 1731, 1029, 1888, 1122, 2059, 1335, 2245]	11	Absent	NA	NA	ABSENT	0.15284490585327148	403.6558618545532	405.6647400856018	406.5981678962707	406.94822692871094	409.78407096862793	4.119330883026123	[403.67819595336914, 403.7950129508972, 404.7791850566864, 404.94605588912964, 405.69694685935974, 405.81373405456543, 405.93069791793823, 406.0473439693451, 406.164165019989, 406.2809410095215, 406.39786291122437, 406.51448702812195, 406.6317310333252, 406.7480158805847, 406.8647699356079, 406.98165488243103, 407.0985140800476, 407.2153260707855, 407.33214688301086, 407.4488570690155, 407.56566405296326, 407.78407192230225]	[403.6802019073533, 403.79686857402, 404.77986857402, 404.94656857402, 405.69656857402, 405.81323524068665, 405.9299019073533, 406.04656857402, 406.1632352406867, 406.27990190735335, 406.39656857402, 406.5132352406867, 406.62990190735337, 406.74656857402005, 406.8632352406867, 406.9799019073534, 407.09656857402007, 407.21323524068674, 407.3299019073534, 407.4465685740201, 407.56323524068677, 407.7965685740201]	2021_Feb_10_1142	59.93583871940372	1	1
28	68	FALSE	NV	v	['M', 'J', 'A', 'E', 'Z', 'B', 'H', 'X', 'C', 'V', 'S', 'N', 'W', 'P', 'R', 'U']	[1224, 1029, 697, 904, 2911, 760, 986, 4000, 829, 2245, 1731, 1335, 2448, 1456, 1587, 2059]	8	Present	NA	NA	PRESENT	0.10220909118652344	409.779000043869	411.7808918952942	412.36463689804083	412.7147710323334	415.9004380702973	4.119546175003052	[409.80133295059204, 409.9180209636688, 410.9023768901825, 411.06933307647705, 411.8200409412384, 411.9368619918823, 412.0537669658661, 412.17065691947937, 412.2873680591583, 412.40411591529846, 412.52100896835327, 412.63773488998413, 412.75438594818115, 412.8712520599365, 412.9878189563751, 413.10468101501465, 413.221647977829, 413.33833503723145, 413.45525193214417, 413.5717749595642, 413.6719250679016, 413.90043807029724]	[409.7965685740201, 409.9132352406868, 410.8962352406868, 411.0629352406868, 411.8129352406868, 411.92960190735346, 412.04626857402013, 412.1629352406868, 412.2796019073535, 412.39626857402016, 412.51293524068683, 412.6296019073535, 412.7462685740202, 412.86293524068685, 412.9796019073535, 413.0962685740202, 413.2129352406869, 413.32960190735355, 413.4462685740202, 413.5629352406869, 413.6796019073536, 413.9129352406869]	2021_Feb_10_1142	59.93583871940372	1	1
28	69	FALSE	VV	v	['P', 'S', 'Y', 'K', 'H', 'C', 'W', 'G', 'J', 'Z', 'surprise', 'N', 'T', 'X', 'R', 'V']	[1456, 1731, 2670, 1122, 986, 829, 2448, 944, 1029, 2911, 'stimAuditory/all_stimAuditory/202.wav', 1335, 1888, 4000, 1587, 2245]	14	Present	NA	stimVisual/all_stimVisual/200.jpg	PRESENT	0.2983989715576172	415.8852598667145	417.8972399234772	419.1811239719391	419.5312309265137	422.01680397987366	4.119564056396484	[415.9075930118561, 416.0245590209961, 417.00897002220154, 417.17565989494324, 417.9430959224701, 418.043142080307, 418.1599860191345, 418.27673292160034, 418.3937659263611, 418.5105788707733, 418.62726306915283, 418.74403405189514, 418.86066007614136, 418.9775359630585, 419.1112940311432, 419.21108198165894, 419.3280289173126, 419.44464588165283, 419.56148886680603, 419.6782810688019, 419.79512190818787, 420.01680302619934]	[415.9129352406869, 416.0296019073536, 417.0126019073536, 417.1793019073536, 417.9293019073536, 418.04596857402026, 418.16263524068694, 418.2793019073536, 418.3959685740203, 418.51263524068696, 418.62930190735364, 418.7459685740203, 418.862635240687, 418.97930190735366, 419.09596857402033, 419.212635240687, 419.3293019073537, 419.44596857402036, 419.56263524068703, 419.6793019073537, 419.7959685740204, 420.0293019073537]	2021_Feb_10_1142	59.93583871940372	1	1
28	70	FALSE	NN	v	['J', 'C', 'T', 'Z', 'U', 'N', 'S', 'G', 'E', 'B', 'A', 'V', 'M', 'H', 'W', 'Y']	[1029, 829, 1888, 2911, 2059, 1335, 1731, 944, 904, 760, 697, 2245, 1224, 986, 2448, 2670]	9	Absent	NA	NA	ABSENT	0.1912829875946045	422.0085508823395	424.0136249065399	424.71416187286377	425.064022064209	428.13317108154297	4.119546175003052	[422.0308840274811, 422.14747500419617, 423.13187408447266, 423.29874992370605, 424.04949402809143, 424.16628193855286, 424.28318905830383, 424.39995288848877, 424.51660990715027, 424.6335210800171, 424.7502489089966, 424.86718106269836, 424.9839859008789, 425.10060000419617, 425.2173008918762, 425.3342399597168, 425.4510669708252, 425.5679349899292, 425.68446707725525, 425.80148696899414, 425.9181110858917, 426.1331698894501]	[422.0293019073537, 422.1459685740204, 423.1289685740204, 423.2956685740204, 424.0456685740204, 424.16233524068707, 424.27900190735375, 424.3956685740204, 424.5123352406871, 424.62900190735377, 424.74566857402044, 424.8623352406871, 424.9790019073538, 425.09566857402046, 425.21233524068714, 425.3290019073538, 425.4456685740205, 425.56233524068716, 425.67900190735384, 425.7956685740205, 425.9123352406872, 426.14566857402053]	2021_Feb_10_1142	59.93583871940372	1	1
28	71	FALSE	NV	v	['T', 'K', 'N', 'B', 'H', 'R', 'E', 'G', 'X', 'P', 'W', 'V', 'Y', 'C', 'M', 'A']	[1888, 1122, 1335, 760, 986, 1587, 904, 944, 4000, 1456, 2448, 2245, 2670, 829, 1224, 697]	9	Present	NA	NA	PRESENT	0.2285170555114746	428.1318929195404	430.1299538612366	430.8302550315857	431.1809570789337	434.2495369911194	4.1195831298828125	[428.154226064682, 428.27082085609436, 429.2382879257202, 429.40501499176025, 430.1726369857788, 430.28961300849915, 430.40626287460327, 430.523108959198, 430.6397280693054, 430.75682306289673, 430.87353801727295, 430.99037194252014, 431.10707998275757, 431.2237470149994, 431.32365703582764, 431.44041204452515, 431.55729389190674, 431.67412400245667, 431.7908549308777, 431.9077060222626, 432.02451491355896, 432.2495379447937]	[428.14566857402053, 428.2623352406872, 429.2453352406872, 429.4120352406872, 430.1620352406872, 430.2787019073539, 430.39536857402055, 430.5120352406872, 430.6287019073539, 430.7453685740206, 430.86203524068725, 430.9787019073539, 431.0953685740206, 431.21203524068727, 431.32870190735395, 431.4453685740206, 431.5620352406873, 431.67870190735397, 431.79536857402064, 431.9120352406873, 432.028701907354, 432.26203524068734]	2021_Feb_10_1142	59.93583871940372	1	1
28	72	FALSE	NV	v	['U', 'Z', 'Y', 'M', 'G', 'C', 'E', 'J', 'B', 'T', 'R', 'X', 'P', 'S', 'A', 'N']	[2059, 2911, 2670, 1224, 944, 829, 904, 1029, 760, 1888, 1587, 4000, 1456, 1731, 697, 1335]	12	Present	NA	NA	PRESENT	0.20914387702941897	434.237979888916	436.2460870742798	437.2969079017639	437.6467070579529	440.3659038543701	4.119816780090332	[434.2603130340576, 434.3769118785858, 435.36136293411255, 435.52826285362244, 436.2790389060974, 436.39587903022766, 436.5127000808716, 436.62940096855164, 436.7461259365082, 436.862998008728, 436.97997403144836, 437.09662985801697, 437.21355295181274, 437.3302159309387, 437.4469060897827, 437.5638129711151, 437.6806468963623, 437.79738998413086, 437.9139549732208, 438.0308790206909, 438.1476528644562, 438.365905046463]	[434.26203524068734, 434.378701907354, 435.361701907354, 435.528401907354, 436.278401907354, 436.3950685740207, 436.51173524068736, 436.62840190735403, 436.7450685740207, 436.8617352406874, 436.97840190735405, 437.09506857402073, 437.2117352406874, 437.3284019073541, 437.44506857402075, 437.5617352406874, 437.6784019073541, 437.7950685740208, 437.91173524068745, 438.0284019073541, 438.1450685740208, 438.37840190735415]	2021_Feb_10_1142	59.93583871940372	1	1
28	73	FALSE	NV	v	['S', 'W', 'K', 'Z', 'A', 'R', 'N', 'E', 'B', 'P', 'X', 'C', 'J', 'T', 'U', 'M']	[1731, 2448, 1122, 2911, 697, 1587, 1335, 904, 760, 1456, 4000, 829, 1029, 1888, 2059, 1224]	11	Present	NA	NA	PRESENT	0.11050105094909668	440.3610200881958	442.36282300949097	443.2965040206909	443.6465950012207	446.48227095603943	4.119447946548462	[440.3833529949188, 440.50029587745667, 441.4846000671387, 441.6514298915863, 442.40217900276184, 442.51883697509766, 442.6358048915863, 442.7524359226227, 442.8691930770874, 442.98624897003174, 443.10274386405945, 443.21969985961914, 443.33637499809265, 443.45328998565674, 443.57013988494873, 443.68680596351624, 443.80345702171326, 443.9204409122467, 444.0373258590698, 444.15383100509644, 444.2539439201355, 444.48227095603943]	[440.37840190735415, 440.4950685740208, 441.4780685740208, 441.6447685740208, 442.3947685740208, 442.5114352406875, 442.62810190735416, 442.74476857402084, 442.8614352406875, 442.9781019073542, 443.09476857402086, 443.21143524068754, 443.3281019073542, 443.4447685740209, 443.56143524068756, 443.67810190735423, 443.7947685740209, 443.9114352406876, 444.02810190735426, 444.14476857402093, 444.2614352406876, 444.49476857402095]	2021_Feb_10_1142	59.93583871940372	1	1
28	74	FALSE	NV	v	['N', 'Z', 'S', 'V', 'J', 'K', 'P', 'W', 'X', 'Y', 'H', 'G', 'T', 'A', 'R', 'B']	[1335, 2911, 1731, 2245, 1029, 1122, 1456, 2448, 4000, 2670, 986, 944, 1888, 697, 1587, 760]	9	Present	NA	NA	PRESENT	0.2830989360809326	446.4674379825592	448.4789230823517	449.1807460784912	449.52933406829834	452.59863805770874	4.119714975357056	[446.48977303504944, 446.6063859462738, 447.5909140110016, 447.75812101364136, 448.52517008781433, 448.62539887428284, 448.74222207069397, 448.8590269088745, 448.9755940437317, 449.0924460887909, 449.2091610431671, 449.3260340690613, 449.44296407699585, 449.55959391593933, 449.67655992507935, 449.79320001602173, 449.90982604026794, 450.02676796913147, 450.1436438560486, 450.2603049278259, 450.3770098686218, 450.59863686561584]	[446.49476857402095, 446.6114352406876, 447.59443524068763, 447.7611352406876, 448.5111352406876, 448.6278019073543, 448.74446857402097, 448.86113524068764, 448.9778019073543, 449.094468574021, 449.21113524068767, 449.32780190735434, 449.444468574021, 449.5611352406877, 449.67780190735436, 449.79446857402104, 449.9111352406877, 450.0278019073544, 450.14446857402106, 450.26113524068774, 450.3778019073544, 450.61113524068776]	2021_Feb_10_1142	59.93583871940372	1	1
28	75	FALSE	NV	v	['P', 'S', 'B', 'Y', 'M', 'C', 'W', 'K', 'J', 'V', 'U', 'X', 'R', 'E', 'G', 'Z']	[1456, 1731, 760, 2670, 1224, 829, 2448, 1122, 1029, 2245, 2059, 4000, 1587, 904, 944, 2911]	12	Present	NA	NA	PRESENT	0.2633810043334961	452.590539932251	454.5956220626831	455.64610385894775	455.9958288669586	458.7150039672851	4.119381904602051	[452.6128740310669, 452.72956800460815, 453.7140529155731, 453.8809189796448, 454.6316030025482, 454.7484130859375, 454.86519408226013, 454.98208808898926, 455.09881806373596, 455.21572494506836, 455.33246088027954, 455.4492039680481, 455.5659189224243, 455.68273091316223, 455.7996139526367, 455.9165139198303, 456.03300404548645, 456.14992690086365, 456.26662707328796, 456.3835759162903, 456.50017189979553, 456.7150049209595]	[452.61113524068776, 452.72780190735443, 453.71080190735444, 453.87750190735443, 454.62750190735443, 454.7441685740211, 454.8608352406878, 454.97750190735445, 455.0941685740211, 455.2108352406878, 455.3275019073545, 455.44416857402115, 455.5608352406878, 455.6775019073545, 455.79416857402117, 455.91083524068785, 456.0275019073545, 456.1441685740212, 456.26083524068787, 456.37750190735454, 456.4941685740212, 456.72750190735456]	2021_Feb_10_1142	59.93583871940372	1	1
28	76	FALSE	NN	v	['C', 'G', 'S', 'H', 'T', 'M', 'R', 'V', 'J', 'Y', 'A', 'Z', 'K', 'U', 'E', 'W']	[829, 944, 1731, 986, 1888, 1224, 1587, 2245, 1029, 2670, 697, 2911, 1122, 2059, 904, 2448]	12	Absent	NA	NA	ABSENT	0.2288510799407959	458.7138090133667	460.71183800697327	461.762335062027	462.11205792427063	464.83137106895447	4.119533061981201	[458.7361419200897, 458.8527400493622, 459.8203489780426, 459.9871599674225, 460.7545759677887, 460.8713369369507, 460.9882159233093, 461.10522294044495, 461.22184586524963, 461.33881998062134, 461.43856501579285, 461.55540895462036, 461.67227005958557, 461.78900504112244, 461.92265701293945, 462.0225899219513, 462.1393220424652, 462.2561049461365, 462.37291502952576, 462.4897050857544, 462.6065819263458, 462.8313698768616]	[458.72750190735456, 458.84416857402124, 459.82716857402124, 459.99386857402123, 460.74386857402123, 460.8605352406879, 460.9772019073546, 461.09386857402126, 461.21053524068793, 461.3272019073546, 461.4438685740213, 461.56053524068795, 461.67720190735463, 461.7938685740213, 461.910535240688, 462.02720190735465, 462.1438685740213, 462.260535240688, 462.3772019073547, 462.49386857402135, 462.610535240688, 462.84386857402137]	2021_Feb_10_1142	59.93583871940372	1	1
28	77	FALSE	NV	v	['W', 'K', 'C', 'U', 'Y', 'E', 'R', 'B', 'V', 'X', 'H', 'S', 'T', 'Z', 'M', 'N']	[2448, 1122, 829, 2059, 2670, 904, 1587, 760, 2245, 4000, 986, 1731, 1888, 2911, 1224, 1335]	10	Present	NA	NA	PRESENT	0.16126298904418945	464.8201198577881	466.8282279968262	467.64526987075806	467.99552488327026	470.9477369785309	4.119508981704712	[464.8424530029297, 464.9590480327606, 465.9434230327606, 466.11048793792725, 466.8609790802002, 466.9778518676758, 467.09462690353394, 467.21153688430786, 467.3283860683441, 467.4450960159302, 467.56197690963745, 467.67867398262024, 467.79540395736694, 467.9122579097748, 468.0290570259094, 468.14585304260254, 468.2624249458313, 468.37940192222595, 468.4959909915924, 468.6129970550537, 468.7299699783325, 468.9477379322052]	[464.84386857402137, 464.96053524068805, 465.94353524068805, 466.11023524068804, 466.86023524068804, 466.9769019073547, 467.0935685740214, 467.21023524068806, 467.32690190735474, 467.4435685740214, 467.5602352406881, 467.67690190735476, 467.79356857402144, 467.9102352406881, 468.0269019073548, 468.14356857402146, 468.26023524068813, 468.3769019073548, 468.4935685740215, 468.61023524068816, 468.72690190735483, 468.9602352406882]	2021_Feb_10_1142	59.93583871940372	1	1
28	78	FALSE	NN	v	['M', 'B', 'K', 'H', 'J', 'N', 'W', 'E', 'R', 'A', 'S', 'V', 'Y', 'G', 'Z', 'U']	[1224, 760, 1122, 986, 1029, 1335, 2448, 904, 1587, 697, 1731, 2245, 2670, 944, 2911, 2059]	14	Absent	NA	NA	ABSENT	0.22264385223388672	470.94298696517944	472.94447898864746	474.2284278869629	474.57892990112305	477.0641040802002	4.119625091552734	[470.96531987190247, 471.0822260379791, 472.06678199768066, 472.2335510253906, 472.9842290878296, 473.1011109352112, 473.2177929878235, 473.33455896377563, 473.4513590335846, 473.5682280063629, 473.68487095832825, 473.8016529083252, 473.91843605041504, 474.035404920578, 474.1520299911499, 474.2688548564911, 474.3858468532562, 474.5024690628052, 474.6192650794983, 474.7360510826111, 474.8360049724579, 475.0641040802002]	[470.9602352406882, 471.07690190735485, 472.05990190735486, 472.22660190735485, 472.97660190735485, 473.0932685740215, 473.2099352406882, 473.32660190735487, 473.44326857402154, 473.5599352406882, 473.6766019073549, 473.79326857402157, 473.90993524068824, 474.0266019073549, 474.1432685740216, 474.25993524068826, 474.37660190735494, 474.4932685740216, 474.6099352406883, 474.72660190735496, 474.84326857402164, 475.076601907355]	2021_Feb_10_1142	59.93583871940372	1	1
28	79	FALSE	NA	v	['H', 'J', 'Y', 'G', 'V', 'M', 'E', 'X', 'B', 'Z', 'N', 'R', 'P', 'C', 'U', 'K']	[986, 1029, 2670, 944, 2245, 1224, 904, 4000, 760, 2911, 1335, 1587, 1456, 829, 2059, 1122]	8	Present	NA	NA	PRESENT	0.18717288970947263	477.0495550632477	479.0608580112457	479.64485788345337	479.99468207359314	483.1804709434509	4.1196129322052	[477.0718879699707, 477.1884698867798, 478.17293405532837, 478.339891910553, 479.10750102996826, 479.20725202560425, 479.32424807548523, 479.44093799591064, 479.5578029155731, 479.6746790409088, 479.7914009094238, 479.9081480503082, 480.0250029563904, 480.14173793792725, 480.2586159706116, 480.37533593177795, 480.49194288253784, 480.60891699790955, 480.7256579399109, 480.8425588607788, 480.9591438770294, 481.18047189712524]	[477.076601907355, 477.19326857402166, 478.17626857402166, 478.34296857402165, 479.09296857402165, 479.2096352406883, 479.326301907355, 479.4429685740217, 479.55963524068835, 479.676301907355, 479.7929685740217, 479.9096352406884, 480.02630190735505, 480.1429685740217, 480.2596352406884, 480.37630190735507, 480.49296857402175, 480.6096352406884, 480.7263019073551, 480.84296857402177, 480.95963524068844, 481.1929685740218]	2021_Feb_10_1142	59.93583871940372	1	1
