participant	trial_num	practice	task	condition	RSVP	RAP	probePos	probe_presence	surprise_sound	surprise_img	probe_response	probe_resp_time	first_fixation_time	trial_start_time	surprise_start_time	probe_start_time	trial_end_time	trial_duration	actualEventTimes	plannedEventTimes	date	framerate	marker_vol	RAP_vol
28	1	FALSE	NN	a	['A', 'E', 'H', 'W', 'J', 'P', 'Z', 'C', 'T', 'Y', 'K', 'G', 'V', 'N', 'M', 'B']	[697, 904, 986, 2448, 1029, 1456, 2911, 829, 1888, 2670, 1122, 944, 2245, 1335, 1224, 760]	9	Absent	NA	NA	ABSENT	0.5214030742645264	2.86102294921875e-6	1.997067928314209	2.697076988180215	3.0470788955088475	6.103869915008545	4.106801986694336	[0.013110876083374023, 0.11289000511169434, 1.0871930122375488, 1.2641448974609375, 2.014864921569824, 2.1317498683929443, 2.248633861541748, 2.3653738498687744, 2.48203182220459, 2.598991870880127, 2.7156529426574707, 2.8324778079986572, 2.94925594329834, 3.066131830215454, 3.1828129291534424, 3.2995779514312744, 3.4165079593658447, 3.5332980155944824, 3.6499178409576416, 3.766852855682373, 3.8836748600006104, 4.103869915008545]	[1.9073486328125e-06, 0.11666857400863281, 1.0996685740086327, 1.2663685740086328, 2.0163685740086326, 2.1330352406686326, 2.2497019073286326, 2.3663685739886327, 2.4830352406486327, 2.5997019073086327, 2.7163685739686327, 2.8330352406286328, 2.949701907288633, 3.066368573948633, 3.183035240608633, 3.299701907268633, 3.416368573928633, 3.533035240588633, 3.649701907248633, 3.766368573908633, 3.883035240568633, 4.116368573901966]	2021_Feb_10_1120	59.94089233143739	1	0.375
28	2	FALSE	NV	a	['R', 'H', 'B', 'K', 'Z', 'V', 'N', 'P', 'G', 'U', 'X', 'S', 'T', 'A', 'E', 'Y']	[1587, 986, 760, 1122, 2911, 2245, 1335, 1456, 944, 2059, 4000, 1731, 1888, 697, 904, 2670]	11	Present	NA	NA	PRESENT	0.42151784896850586	6.106238842010498	8.109777927398682	9.043119366910371	9.393120320564687	12.220237970352173	4.110460042953491	[6.1193459033966064, 6.236142873764038, 7.2035558223724365, 7.387410879135132, 8.138112783432007, 8.254841804504395, 8.371630907058716, 8.488710880279541, 8.605839967727661, 8.722080945968628, 8.838824987411499, 8.955718994140625, 9.07245397567749, 9.189432859420776, 9.306155920028687, 9.42286491394043, 9.539671897888184, 9.65660285949707, 9.773136854171753, 9.890033960342407, 10.00663685798645, 10.220236778259277]	[6.116368573901966, 6.233035240561966, 7.216035240561966, 7.382735240561965, 8.132735240561965, 8.249401907221966, 8.366068573881966, 8.482735240541967, 8.599401907201967, 8.716068573861968, 8.832735240521968, 8.949401907181969, 9.066068573841969, 9.18273524050197, 9.29940190716197, 9.41606857382197, 9.532735240481971, 9.649401907141971, 9.766068573801972, 9.882735240461972, 9.999401907121973, 10.232735240455305]	2021_Feb_10_1120	59.94089233143739	1	0.375
28	3	FALSE	NA	a	['N', 'K', 'H', 'E', 'U', 'V', 'Z', 'R', 'A', 'Y', 'X', 'J', 'C', 'W', 'B', 'T']	[1335, 1122, 986, 904, 2059, 2245, 2911, 1587, 697, 2670, 4000, 1029, 829, 2448, 760, 1888]	11	Present	NA	NA	PRESENT	0.2993330955505371	12.212512016296388	14.22632098197937	15.15966218307248	15.509664328819692	18.336602926254272	4.110281944274902	[12.2256178855896, 12.342481851577759, 13.319923877716064, 13.493884801864624, 14.244477987289429, 14.361281871795654, 14.478091955184937, 14.594910860061646, 14.711683988571167, 14.82857894897461, 14.945499897003174, 15.062153816223145, 15.179057836532593, 15.295759916305542, 15.412714958190918, 15.529270887374878, 15.64597487449646, 15.76285982131958, 15.879474878311157, 15.996481895446777, 16.11316680908203, 16.33660387992859]	[12.232735240455305, 12.349401907115306, 13.332401907115306, 13.499101907115307, 14.249101907115307, 14.365768573775307, 14.482435240435308, 14.599101907095308, 14.715768573755309, 14.83243524041531, 14.94910190707531, 15.06576857373531, 15.18243524039531, 15.299101907055311, 15.415768573715312, 15.532435240375312, 15.649101907035313, 15.765768573695313, 15.882435240355314, 15.999101907015314, 16.115768573675314, 16.34910190700865]	2021_Feb_10_1120	59.94089233143739	1	0.375
28	4	FALSE	NN	a	['V', 'N', 'M', 'B', 'C', 'T', 'Y', 'E', 'Z', 'A', 'R', 'U', 'K', 'J', 'W', 'S']	[2245, 1335, 1224, 760, 829, 1888, 2670, 904, 2911, 697, 1587, 2059, 1122, 1029, 2448, 1731]	8	Absent	NA	NA	ABSENT	0.3598499298095703	18.33585405349731	20.342588901519775	20.92592938737715	21.27593129470578	24.452969789505005	4.1103808879852295	[18.348960876464844, 18.465648889541626, 19.436291933059692, 19.617324829101562, 20.367811918258667, 20.48463797569275, 20.60141682624817, 20.71825098991394, 20.834921836853027, 20.95173978805542, 21.06849980354309, 21.1853768825531, 21.302157878875732, 21.418996810913086, 21.535719871520996, 21.652589797973633, 21.76948094367981, 21.88608694076538, 22.002846002578735, 22.11951780319214, 22.236352920532227, 22.4529709815979]	[18.34910190700865, 18.465768573668647, 19.448768573668648, 19.615468573668647, 20.365468573668647, 20.482135240328645, 20.598801906988644, 20.715468573648643, 20.83213524030864, 20.94880190696864, 21.06546857362864, 21.182135240288638, 21.298801906948636, 21.415468573608635, 21.532135240268634, 21.648801906928632, 21.76546857358863, 21.88213524024863, 21.99880190690863, 22.115468573568627, 22.232135240228626, 22.46546857356196]	2021_Feb_10_1120	59.94089233143739	1	0.375
28	5	FALSE	NA	a	['Y', 'R', 'S', 'V', 'M', 'G', 'H', 'B', 'X', 'E', 'C', 'U', 'P', 'K', 'Z', 'N']	[2670, 1587, 1731, 2245, 1224, 944, 986, 760, 4000, 904, 829, 2059, 1456, 1122, 2911, 1335]	9	Present	NA	NA	PRESENT	0.3411698341369629	24.45883297920227	26.45868992805481	27.158698987920815	27.508700895249447	30.569336891174316	4.110646963119507	[24.4719398021698, 24.58910584449768, 25.552658796310425, 25.74026584625244, 26.49074697494507, 26.590974807739258, 26.70774793624878, 26.824565887451172, 26.9412739276886, 27.058100938796997, 27.17487096786499, 27.291669845581055, 27.408528804779053, 27.525335788726807, 27.64204978942871, 27.75882887840271, 27.875852823257446, 27.992462873458862, 28.10914397239685, 28.22611379623413, 28.34283685684204, 28.569336891174316]	[24.46546857356196, 24.58213524022196, 25.56513524022196, 25.731835240221958, 26.481835240221958, 26.598501906881957, 26.715168573541956, 26.831835240201954, 26.948501906861953, 27.06516857352195, 27.18183524018195, 27.29850190684195, 27.415168573501948, 27.531835240161946, 27.648501906821945, 27.765168573481944, 27.881835240141942, 27.99850190680194, 28.11516857346194, 28.23183524012194, 28.348501906781937, 28.58183524011527]	2021_Feb_10_1120	59.94089233143739	1	0.375
28	6	FALSE	NN	a	['R', 'Z', 'S', 'N', 'U', 'B', 'W', 'T', 'P', 'V', 'C', 'G', 'H', 'A', 'M', 'K']	[1587, 2911, 1731, 1335, 2059, 760, 2448, 1888, 1456, 2245, 829, 944, 986, 697, 1224, 1122]	14	Absent	NA	NA	ABSENT	0.20965099334716797	30.56580686569214	32.575201988220215	33.85854318929333	34.20854533504054	36.68570399284363	4.110502004623413	[30.578913927078247, 30.695274829864502, 31.669034004211426, 31.846736907958984, 32.59743094444275, 32.7142379283905, 32.83087778091431, 32.94769287109375, 33.06468081474304, 33.18133783340454, 33.29826879501343, 33.41497182846069, 33.531757831573486, 33.64848279953003, 33.76520395278931, 33.88230490684509, 33.99876594543457, 34.11577892303467, 34.23256492614746, 34.34932279586792, 34.46603989601135, 34.685704946517944]	[30.58183524011527, 30.69850190677527, 31.68150190677527, 31.84820190677527, 32.59820190677527, 32.714868573435275, 32.83153524009528, 32.94820190675528, 33.06486857341528, 33.181535240075284, 33.29820190673529, 33.41486857339529, 33.53153524005529, 33.64820190671529, 33.764868573375296, 33.8815352400353, 33.9982019066953, 34.1148685733553, 34.231535240015305, 34.34820190667531, 34.46486857333531, 34.69820190666864]	2021_Feb_10_1120	59.94089233143739	1	0.375
28	7	FALSE	NN	a	['P', 'M', 'S', 'C', 'G', 'U', 'N', 'K', 'E', 'W', 'J', 'Y', 'A', 'Z', 'R', 'V']	[1456, 1224, 1731, 829, 944, 2059, 1335, 1122, 904, 2448, 1029, 2670, 697, 2911, 1587, 2245]	10	Absent	NA	NA	ABSENT	0.6381869316101074	36.688652992248535	38.69183588027954	39.50851065313123	39.858512560459864	42.80207085609436	4.110234975814819	[36.701759815216064, 36.81854701042175, 37.78539299964905, 37.969905853271484, 38.7205069065094, 38.837376832962036, 38.954086780548096, 39.07110595703125, 39.1878559589386, 39.30465579032898, 39.42142987251282, 39.53826594352722, 39.65533781051636, 39.7716338634491, 39.88860487937927, 40.00529479980469, 40.122116804122925, 40.23928785324097, 40.35553598403931, 40.472476959228516, 40.58938384056091, 40.80207085609436]	[36.69820190666864, 36.814868573328646, 37.79786857332864, 37.96456857332864, 38.71456857332864, 38.831235239988644, 38.947901906648646, 39.06456857330865, 39.18123523996865, 39.29790190662865, 39.414568573288655, 39.53123523994866, 39.64790190660866, 39.76456857326866, 39.881235239928664, 39.997901906588666, 40.11456857324867, 40.23123523990867, 40.34790190656867, 40.464568573228675, 40.58123523988868, 40.81456857322201]	2021_Feb_10_1120	59.94089233143739	1	0.375
28	8	FALSE	NV	a	['B', 'R', 'N', 'T', 'C', 'U', 'E', 'K', 'G', 'P', 'M', 'J', 'X', 'V', 'W', 'H']	[760, 1587, 1335, 1888, 829, 2059, 904, 1122, 944, 1456, 1224, 1029, 4000, 2245, 2448, 986]	13	Present	NA	NA	PRESENT	0.3077409267425537	42.79508399963379	44.8078498840332	45.974524656864894	46.324526564193526	48.91843795776367	4.110588073730469	[42.80819082260132, 42.92497491836548, 43.9017608165741, 44.07636785507202, 44.82691979408264, 44.94383001327515, 45.06076979637146, 45.17741394042969, 45.294392824172974, 45.41090989112854, 45.5277578830719, 45.644639015197754, 45.76128888130188, 45.87830591201782, 45.994884967803955, 46.1118278503418, 46.2284779548645, 46.3453688621521, 46.46197199821472, 46.57896399497986, 46.69563293457031, 46.91843891143799]	[42.81456857322201, 42.931235239882014, 43.91423523988201, 44.08093523988201, 44.83093523988201, 44.94760190654201, 45.064268573202014, 45.180935239862016, 45.29760190652202, 45.41426857318202, 45.53093523984202, 45.647601906502025, 45.76426857316203, 45.88093523982203, 45.99760190648203, 46.114268573142034, 46.23093523980204, 46.34760190646204, 46.46426857312204, 46.58093523978204, 46.697601906442046, 46.93093523977538]	2021_Feb_10_1120	59.94089233143739	1	0.375
28	9	FALSE	NA	a	['Z', 'V', 'J', 'A', 'C', 'Y', 'M', 'P', 'X', 'B', 'K', 'T', 'S', 'N', 'E', 'H']	[2911, 2245, 1029, 697, 829, 2670, 1224, 1456, 4000, 760, 1122, 1888, 1731, 1335, 904, 986]	9	Present	NA	NA	PRESENT	0.2561049461364746	48.91849899291992	50.9244589805603	51.624465894659096	51.97446804040631	55.03480291366577	4.110343933105469	[48.93160581588745, 49.04815483093262, 50.018126010894775, 50.19982194900513, 50.95037388801575, 51.06711387634277, 51.183772802352905, 51.30061984062195, 51.41726493835449, 51.53407287597656, 51.65095901489258, 51.76814579963684, 51.88461089134216, 52.00147080421448, 52.118143796920776, 52.23494791984558, 52.35176992416382, 52.468522787094116, 52.58526086807251, 52.7021689414978, 52.8189218044281, 53.03480291366577]	[48.93093523977538, 49.04760190643538, 50.03060190643538, 50.19730190643538, 50.94730190643538, 51.06396857309538, 51.18063523975538, 51.297301906415385, 51.41396857307539, 51.53063523973539, 51.64730190639539, 51.763968573055394, 51.880635239715396, 51.9973019063754, 52.1139685730354, 52.2306352396954, 52.347301906355405, 52.46396857301541, 52.58063523967541, 52.69730190633541, 52.813968572995414, 53.04730190632875]	2021_Feb_10_1120	59.94089233143739	1	0.375
28	10	FALSE	NA	a	['E', 'A', 'R', 'S', 'K', 'N', 'M', 'U', 'Z', 'Y', 'T', 'B', 'X', 'C', 'W', 'J']	[904, 697, 1587, 1731, 1122, 1335, 1224, 2059, 2911, 2670, 1888, 760, 4000, 829, 2448, 1029]	13	Present	NA	NA	PRESENT	0.34950709342956543	55.04147100448608	57.04059886932373	58.207272688481105	58.557275549484054	61.15117001533508	4.1105711460113525	[55.05457782745361, 55.17125988006592, 56.134493827819824, 56.30577778816223, 57.073365926742554, 57.17343997955322, 57.29017090797424, 57.40703988075256, 57.52377700805664, 57.64054298400879, 57.75735092163086, 57.874236822128296, 57.9909348487854, 58.10788297653198, 58.22475790977478, 58.34149694442749, 58.45818901062012, 58.575124979019165, 58.69170379638672, 58.8086359500885, 58.92522478103638, 59.15117001533508]	[55.04730190632875, 55.16396857298875, 56.14696857298875, 56.313668572988746, 57.063668572988746, 57.18033523964875, 57.29700190630875, 57.41366857296875, 57.530335239628755, 57.64700190628876, 57.76366857294876, 57.88033523960876, 57.997001906268764, 58.113668572928766, 58.23033523958877, 58.34700190624877, 58.46366857290877, 58.580335239568775, 58.69700190622878, 58.81366857288878, 58.93033523954878, 59.163668572882116]	2021_Feb_10_1120	59.94089233143739	1	0.375
28	11	FALSE	NN	a	['V', 'A', 'U', 'P', 'J', 'B', 'K', 'Y', 'R', 'M', 'T', 'W', 'H', 'S', 'N', 'G']	[2245, 697, 2059, 1456, 1029, 760, 1122, 2670, 1587, 1224, 1888, 2448, 986, 1731, 1335, 944]	9	Absent	NA	NA	ABSENT	0.28189802169799805	61.14834499359131	63.1568968296051	63.856903982122475	64.20690588945111	67.26753783226013	4.110641002655029	[61.16145181655884, 61.277742862701416, 62.250860929489136, 62.429242849349976, 63.17975091934204, 63.29666185379028, 63.413378953933716, 63.530176877975464, 63.647029876708984, 63.763893842697144, 63.88073492050171, 63.99746894836426, 64.11420679092407, 64.23105597496033, 64.34790897369385, 64.46466398239136, 64.5813319683075, 64.6982798576355, 64.81484484672546, 64.93178296089172, 65.04851579666138, 65.26753878593445]	[61.163668572882116, 61.28033523954212, 62.263335239542116, 62.430035239542114, 63.180035239542114, 63.29670190620212, 63.41336857286212, 63.53003523952212, 63.64670190618212, 63.763368572842126, 63.88003523950213, 63.99670190616213, 64.11336857282213, 64.23003523948212, 64.34670190614212, 64.46336857280211, 64.5800352394621, 64.6967019061221, 64.8133685727821, 64.93003523944209, 65.04670190610209, 65.28003523943542]	2021_Feb_10_1120	59.94089233143739	1	0.375
28	12	FALSE	NV	a	['V', 'Z', 'W', 'R', 'P', 'K', 'T', 'U', 'S', 'M', 'X', 'A', 'C', 'N', 'Y', 'J']	[2245, 2911, 2448, 1587, 1456, 1122, 1888, 2059, 1731, 1224, 4000, 697, 829, 1335, 2670, 1029]	11	Present	NA	NA	PRESENT	0.19065093994140625	67.271155834198	69.27338004112244	70.20672124221555	70.55672314954418	73.38390398025513	4.11052393913269	[67.2842628955841, 67.40097689628601, 68.36722779273987, 68.5526750087738, 69.3030469417572, 69.41988682746887, 69.53652381896973, 69.65338182449341, 69.77014398574829, 69.8870038986206, 70.00381898880005, 70.12053179740906, 70.23800086975098, 70.35436081886292, 70.47120380401611, 70.58775496482849, 70.70497393608093, 70.82149481773376, 70.93823289871216, 71.055006980896, 71.1718099117279, 71.38390493392944]	[67.28003523943542, 67.39670190609542, 68.37970190609542, 68.54640190609543, 69.29640190609543, 69.41306857275542, 69.52973523941542, 69.64640190607541, 69.7630685727354, 69.8797352393954, 69.9964019060554, 70.11306857271539, 70.22973523937539, 70.34640190603538, 70.46306857269538, 70.57973523935537, 70.69640190601537, 70.81306857267536, 70.92973523933536, 71.04640190599535, 71.16306857265535, 71.39640190598868]	2021_Feb_10_1120	59.94089233143739	1	0.375
28	13	FALSE	AV	a	['M', 'B', 'N', 'Y', 'surprise', 'H', 'P', 'X', 'U', 'Z', 'A', 'W', 'E', 'J', 'V', 'K']	[1224, 760, 1335, 2670, 'stimAuditory/all_stimAuditory/211.wav', 986, 1456, 4000, 2059, 2911, 697, 2448, 904, 1029, 2245, 1122]	8	Present	stimAuditory/all_stimAuditory/211.wav	NA	PRESENT	0.33178019523620605	73.3775520324707	75.38977193832397	75.97311337785567	76.3231152851843	79.50026988983154	4.110497951507568	[73.39065790176392, 73.50743293762207, 74.48359394073486, 74.6588499546051, 75.40934991836548, 75.52636790275574, 75.64322590827942, 75.75990295410156, 75.87664699554443, 75.99357080459595, 76.11015200614929, 76.2270119190216, 76.34395694732666, 76.46068286895752, 76.5773389339447, 76.69431900978088, 76.81094193458557, 76.92791390419006, 77.04439187049866, 77.161456823349, 77.27809882164001, 77.50026893615723]	[73.39640190598868, 73.51306857264868, 74.49606857264868, 74.66276857264869, 75.41276857264869, 75.52943523930868, 75.64610190596868, 75.76276857262867, 75.87943523928867, 75.99610190594866, 76.11276857260866, 76.22943523926865, 76.34610190592865, 76.46276857258864, 76.57943523924864, 76.69610190590863, 76.81276857256863, 76.92943523922862, 77.04610190588862, 77.16276857254861, 77.27943523920861, 77.51276857254194]	2021_Feb_10_1120	59.94089233143739	1	0.375
28	14	FALSE	NV	a	['Z', 'Y', 'N', 'W', 'C', 'A', 'M', 'S', 'P', 'K', 'H', 'X', 'R', 'U', 'J', 'V']	[2911, 2670, 1335, 2448, 829, 697, 1224, 1731, 1456, 1122, 986, 4000, 1587, 2059, 1029, 2245]	12	Present	NA	NA	PRESENT	0.3922460079193115	79.50061297416687	81.50611186027527	82.55611996644696	82.9061228274499	85.61663699150085	4.110525131225586	[79.5137197971344, 79.63072896003723, 80.59995985031128, 80.78210401535034, 81.53256797790527, 81.64955592155457, 81.76620697975159, 81.8831889629364, 81.99997782707214, 82.1166479587555, 82.23361396789551, 82.35036396980286, 82.4670398235321, 82.58399701118469, 82.70053482055664, 82.81761479377747, 82.9342110157013, 83.05111289024353, 83.1679208278656, 83.28467679023743, 83.40136885643005, 83.61663699150085]	[79.51276857254194, 79.62943523920194, 80.61243523920194, 80.77913523920195, 81.52913523920195, 81.64580190586194, 81.76246857252194, 81.87913523918193, 81.99580190584193, 82.11246857250192, 82.22913523916192, 82.34580190582192, 82.46246857248191, 82.5791352391419, 82.6958019058019, 82.8124685724619, 82.92913523912189, 83.04580190578189, 83.16246857244188, 83.27913523910188, 83.39580190576187, 83.6291352390952]	2021_Feb_10_1120	59.94089233143739	1	0.375
28	15	FALSE	NV	a	['C', 'P', 'A', 'Z', 'T', 'N', 'W', 'R', 'K', 'X', 'U', 'E', 'S', 'Y', 'J', 'V']	[829, 1456, 697, 2911, 1888, 1335, 2448, 1587, 1122, 4000, 2059, 904, 1731, 2670, 1029, 2245]	10	Present	NA	NA	PRESENT	0.3176300525665283	85.62381792068481	87.62259197235107	88.43926650678418	88.78926865253139	91.7330038547516	4.110411882400513	[85.63692378997803, 85.75398182868958, 86.71632480621338, 86.8883638381958, 87.65601396560669, 87.75580501556396, 87.87267994880676, 87.98951983451843, 88.10639882087708, 88.22314500808716, 88.34000182151794, 88.45678496360779, 88.5736939907074, 88.690349817276, 88.80696392059326, 88.92373991012573, 89.04077982902527, 89.15755081176758, 89.2741928100586, 89.3911190032959, 89.50774693489075, 89.73300385475159]	[85.6291352390952, 85.7458019057552, 86.7288019057552, 86.89550190575521, 87.64550190575521, 87.7621685724152, 87.8788352390752, 87.9955019057352, 88.11216857239519, 88.22883523905519, 88.34550190571518, 88.46216857237518, 88.57883523903517, 88.69550190569517, 88.81216857235516, 88.92883523901516, 89.04550190567515, 89.16216857233515, 89.27883523899514, 89.39550190565514, 89.51216857231513, 89.74550190564847]	2021_Feb_10_1120	59.94089233143739	1	0.375
28	16	FALSE	VA	a	['A', 'E', 'V', 'Y', 'surprise', 'J', 'K', 'X', 'S', 'T', 'G', 'W', 'M', 'B', 'R', 'U']	[697, 904, 2245, 2670, 'stimAuditory/all_stimAuditory/202.wav', 1029, 1122, 4000, 1731, 1888, 944, 2448, 1224, 760, 1587, 2059]	8	Present	NA	NA	PRESENT	0.5142269134521484	91.73084592819214	93.7389018535614	94.3222432930931	94.67224520042171	97.8493709564209	4.110469102859497	[91.74395298957825, 91.86038780212402, 92.83269500732422, 93.01153898239136, 93.76220083236694, 93.87910079956055, 93.99588394165039, 94.11282896995544, 94.22949981689453, 94.34620690345764, 94.46319794654846, 94.57989597320557, 94.69656991958618, 94.81360077857971, 94.93021583557129, 95.04698491096497, 95.16383695602417, 95.28067994117737, 95.39751100540161, 95.5141658782959, 95.63105177879333, 95.8493709564209]	[91.74550190564847, 91.86216857230846, 92.84516857230847, 93.01186857230847, 93.76186857230847, 93.87853523896847, 93.99520190562846, 94.11186857228846, 94.22853523894845, 94.34520190560845, 94.46186857226844, 94.57853523892844, 94.69520190558843, 94.81186857224843, 94.92853523890842, 95.04520190556842, 95.16186857222841, 95.27853523888841, 95.3952019055484, 95.5118685722084, 95.6285352388684, 95.86186857220173]	2021_Feb_10_1120	59.94089233143739	1	0.375
28	17	FALSE	NV	a	['Z', 'G', 'M', 'E', 'A', 'R', 'N', 'K', 'J', 'X', 'C', 'V', 'P', 'T', 'S', 'W']	[2911, 944, 1224, 904, 697, 1587, 1335, 1122, 1029, 4000, 829, 2245, 1456, 1888, 1731, 2448]	10	Present	NA	NA	PRESENT	0.3676722049713135	97.85380101203918	99.85540795326231	100.67208153402112	101.02208367976831	103.96573781967165	4.110329866409302	[97.86690783500671, 97.98372077941895, 98.94906187057495, 99.13464999198914, 99.88555979728699, 100.00230693817139, 100.11925101280212, 100.23600387573242, 100.35269784927368, 100.46955585479736, 100.58617877960205, 100.7029218673706, 100.81998801231384, 100.93660688400269, 101.05351281166077, 101.1703360080719, 101.28718090057373, 101.386953830719, 101.50379395484924, 101.62078285217285, 101.73739981651306, 101.96573686599731]	[97.86186857220173, 97.97853523886172, 98.96153523886173, 99.12823523886173, 99.87823523886173, 99.99490190552173, 100.11156857218172, 100.22823523884172, 100.34490190550171, 100.46156857216171, 100.5782352388217, 100.6949019054817, 100.8115685721417, 100.92823523880169, 101.04490190546169, 101.16156857212168, 101.27823523878168, 101.39490190544167, 101.51156857210167, 101.62823523876166, 101.74490190542166, 101.97823523875499]	2021_Feb_10_1120	59.94089233143739	1	0.375
28	18	FALSE	NV	a	['M', 'H', 'K', 'V', 'G', 'C', 'N', 'W', 'X', 'Y', 'Z', 'E', 'R', 'S', 'T', 'A']	[1224, 986, 1122, 2245, 944, 829, 1335, 2448, 4000, 2670, 2911, 904, 1587, 1731, 1888, 697]	9	Present	NA	NA	PRESENT	0.2521171569824219	103.95998191833496	105.97142386436462	106.67143197055633	107.02143387788496	110.08210396766664	4.110680103302002	[103.97308993339539, 104.08995199203491, 105.06542778015137, 105.24127197265625, 105.99199199676514, 106.10874700546265, 106.2254798412323, 106.34235787391663, 106.45912289619446, 106.57594394683838, 106.69265484809875, 106.80961990356445, 106.92634582519531, 107.04316782951355, 107.15993094444275, 107.27685379981995, 107.39340901374817, 107.51043581962585, 107.62713885307312, 107.7439169883728, 107.86049795150757, 108.08210492134094]	[103.97823523875499, 104.09490190541499, 105.07790190541499, 105.244601905415, 105.994601905415, 106.11126857207499, 106.22793523873499, 106.34460190539498, 106.46126857205498, 106.57793523871497, 106.69460190537497, 106.81126857203496, 106.92793523869496, 107.04460190535495, 107.16126857201495, 107.27793523867494, 107.39460190533494, 107.51126857199493, 107.62793523865493, 107.74460190531492, 107.86126857197492, 108.09460190530825]	2021_Feb_10_1120	59.94089233143739	1	0.375
28	19	FALSE	AA	a	['M', 'W', 'N', 'P', 'surprise', 'T', 'Z', 'X', 'E', 'C', 'S', 'R', 'B', 'V', 'K', 'H']	[1224, 2448, 1335, 1456, 'stimAuditory/all_stimAuditory/223.wav', 1888, 2911, 4000, 904, 829, 1731, 1587, 760, 2245, 1122, 986]	8	Present	stimAuditory/all_stimAuditory/202.wav	NA	PRESENT	0.23259305953979492	110.0833740234375	112.0879499912262	112.67129119233932	113.02129333808652	116.19847083091736	4.110520839691162	[110.09647989273071, 110.21313095092773, 111.181804895401, 111.3643569946289, 112.11530995368958, 112.23203587532043, 112.34884595870972, 112.46562600135803, 112.58239388465881, 112.69919395446777, 112.81597089767456, 112.93282699584961, 113.04948782920837, 113.16620993614197, 113.28327488899231, 113.39983487129211, 113.51677298545837, 113.6333749294281, 113.75026178359985, 113.86712193489075, 113.9838478565216, 114.19846987724304]	[110.09460190530825, 110.21126857196825, 111.19426857196825, 111.36096857196826, 112.11096857196826, 112.22763523862825, 112.34430190528825, 112.46096857194824, 112.57763523860824, 112.69430190526823, 112.81096857192823, 112.92763523858822, 113.04430190524822, 113.16096857190821, 113.27763523856821, 113.3943019052282, 113.5109685718882, 113.6276352385482, 113.74430190520819, 113.86096857186818, 113.97763523852818, 114.21096857186151]	2021_Feb_10_1120	59.94089233143739	1	0.375
28	20	FALSE	NV	a	['W', 'T', 'S', 'K', 'Y', 'J', 'H', 'A', 'U', 'P', 'N', 'E', 'R', 'X', 'G', 'Z']	[2448, 1888, 1731, 1122, 2670, 1029, 986, 697, 2059, 1456, 1335, 904, 1587, 4000, 944, 2911]	14	Present	NA	NA	PRESENT	0.33393383026123047	116.20639395713806	118.20448088645936	119.48782232595104	119.83782423327968	122.31483793258668	4.110357046127319	[116.21949982643127, 116.33647894859314, 117.29815983772278, 117.47081589698792, 118.23835778236389, 118.33833885192871, 118.45525479316711, 118.57203483581543, 118.6889009475708, 118.80563592910767, 118.92226600646973, 119.03931593894958, 119.15588188171387, 119.27287983894348, 119.38952279090881, 119.50643587112427, 119.62324094772339, 119.7398419380188, 119.85672998428345, 119.97361588478088, 120.09015083312988, 120.31483793258667]	[116.21096857186151, 116.32763523852151, 117.31063523852151, 117.47733523852152, 118.22733523852152, 118.34400190518151, 118.46066857184151, 118.5773352385015, 118.6940019051615, 118.8106685718215, 118.92733523848149, 119.04400190514149, 119.16066857180148, 119.27733523846148, 119.39400190512147, 119.51066857178147, 119.62733523844146, 119.74400190510146, 119.86066857176145, 119.97733523842145, 120.09400190508144, 120.32733523841478]	2021_Feb_10_1120	59.94089233143739	1	0.375
28	21	FALSE	NV	a	['S', 'Z', 'P', 'G', 'N', 'H', 'Y', 'B', 'X', 'W', 'U', 'K', 'E', 'R', 'M', 'C']	[1731, 2911, 1456, 944, 1335, 986, 2670, 760, 4000, 2448, 2059, 1122, 904, 1587, 1224, 829]	9	Present	NA	NA	PRESENT	0.2584989070892334	122.31316304206848	124.32057094573976	125.02057905193143	125.37058095926008	128.43120288848877	4.110631942749023	[122.32627081871033, 122.44267678260803, 123.41452693939209, 123.59403800964355, 124.3447117805481, 124.46166181564331, 124.57837390899658, 124.69532489776611, 124.8119249343872, 124.92883396148682, 125.0454888343811, 125.16244196891785, 125.27926898002625, 125.39583683013916, 125.51279592514038, 125.62942385673523, 125.74626278877258, 125.86309599876404, 125.97996091842651, 126.0968689918518, 126.21344780921936, 126.43120288848877]	[122.32733523841478, 122.44400190507477, 123.42700190507477, 123.59370190507478, 124.34370190507478, 124.46036857173478, 124.57703523839477, 124.69370190505477, 124.81036857171476, 124.92703523837476, 125.04370190503475, 125.16036857169475, 125.27703523835474, 125.39370190501474, 125.51036857167473, 125.62703523833473, 125.74370190499472, 125.86036857165472, 125.97703523831471, 126.09370190497471, 126.2103685716347, 126.44370190496804]	2021_Feb_10_1120	59.94089233143739	1	0.375
28	22	FALSE	NN	a	['S', 'W', 'C', 'M', 'H', 'V', 'U', 'T', 'A', 'G', 'R', 'N', 'J', 'P', 'K', 'B']	[1731, 2448, 829, 1224, 986, 2245, 2059, 1888, 697, 944, 1587, 1335, 1029, 1456, 1122, 760]	12	Absent	NA	NA	ABSENT	0.3678090572357178	128.4359359741211	130.43713998794556	131.48714785569868	131.83715000144588	134.5475709438324	4.110430955886841	[128.4490418434143, 128.56601691246033, 129.53089380264282, 129.7172498703003, 130.46781492233276, 130.5848309993744, 130.70154190063477, 130.81833386421204, 130.93518996238708, 131.0519278049469, 131.16868901252747, 131.285395860672, 131.3853738307953, 131.51904678344727, 131.61927199363708, 131.73580193519592, 131.85271978378296, 131.9695019721985, 132.08630681037903, 132.20311379432678, 132.31985783576965, 132.54756999015808]	[128.44370190496804, 128.56036857162803, 129.54336857162804, 129.71006857162803, 130.46006857162803, 130.57673523828802, 130.69340190494802, 130.810068571608, 130.926735238268, 131.043401904928, 131.160068571588, 131.276735238248, 131.393401904908, 131.51006857156798, 131.62673523822798, 131.74340190488797, 131.86006857154797, 131.97673523820797, 132.09340190486796, 132.21006857152796, 132.32673523818795, 132.56006857152127]	2021_Feb_10_1120	59.94089233143739	1	0.375
28	23	FALSE	VV	a	['R', 'A', 'T', 'E', 'C', 'surprise', 'G', 'M', 'X', 'K', 'S', 'B', 'W', 'Y', 'J', 'N']	[1587, 697, 1888, 904, 829, 'stimAuditory/all_stimAuditory/122.wav', 944, 1224, 4000, 1122, 1731, 760, 2448, 2670, 1029, 1335]	9	Present	NA	NA	PRESENT	0.4762680530548096	134.54253387451172	136.55353784561157	137.25354595180326	137.6035478591319	140.6639368534088	4.110399007797241	[134.55564093589783, 134.67229199409485, 135.64726185798645, 135.82367587089539, 136.57439398765564, 136.6911859512329, 136.8078169822693, 136.92476987838745, 137.04137587547302, 137.15844583511353, 137.27500295639038, 137.3920669555664, 137.50870084762573, 137.62543487548828, 137.74221682548523, 137.85896587371826, 137.9759759902954, 138.09273099899292, 138.20940685272217, 138.32620787620544, 138.44304084777832, 138.6639368534088]	[134.56006857152127, 134.67673523818127, 135.65973523818127, 135.82643523818126, 136.57643523818126, 136.69310190484126, 136.80976857150125, 136.92643523816125, 137.04310190482124, 137.15976857148124, 137.27643523814123, 137.39310190480123, 137.50976857146122, 137.62643523812122, 137.7431019047812, 137.8597685714412, 137.9764352381012, 138.0931019047612, 138.2097685714212, 138.3264352380812, 138.44310190474118, 138.6764352380745]	2021_Feb_10_1120	59.94089233143739	1	0.375
28	24	FALSE	NN	a	['H', 'K', 'B', 'P', 'M', 'S', 'U', 'R', 'J', 'A', 'E', 'V', 'T', 'Z', 'C', 'N']	[986, 1122, 760, 1456, 1224, 1731, 2059, 1587, 1029, 697, 904, 2245, 1888, 2911, 829, 1335]	14	Absent	NA	NA	ABSENT	0.7768580913543701	140.66563987731934	142.6698338985443	143.9531743843617	144.3031762916903	146.78030490875244	4.11047101020813	[140.67874789237976, 140.795569896698, 141.76362895965576, 141.9470248222351, 142.69744992256165, 142.81417798995972, 142.93106389045715, 143.0480899810791, 143.16475582122803, 143.28131294250488, 143.39818286895752, 143.51496696472168, 143.63192796707153, 143.74852299690247, 143.8655378818512, 143.98209595680237, 144.09908890724182, 144.21565079689026, 144.33266401290894, 144.4491798877716, 144.5663139820099, 144.78030586242676]	[140.6764352380745, 140.7931019047345, 141.7761019047345, 141.9428019047345, 142.6928019047345, 142.8094685713945, 142.92613523805448, 143.04280190471448, 143.15946857137448, 143.27613523803447, 143.39280190469447, 143.50946857135446, 143.62613523801446, 143.74280190467445, 143.85946857133445, 143.97613523799444, 144.09280190465444, 144.20946857131443, 144.32613523797443, 144.44280190463442, 144.55946857129442, 144.79280190462774]	2021_Feb_10_1120	59.94089233143739	1	0.375
28	25	FALSE	NN	a	['H', 'E', 'S', 'C', 'G', 'Z', 'Y', 'A', 'J', 'B', 'N', 'K', 'R', 'W', 'U', 'M']	[986, 904, 1731, 829, 944, 2911, 2670, 697, 1029, 760, 1335, 1122, 1587, 2448, 2059, 1224]	10	Absent	NA	NA	ABSENT	0.2943592071533203	146.78864789009094	148.78634595870972	149.6030195394685	149.95302168521573	152.89666986465454	4.110323905944824	[146.80175495147705, 146.90180683135986, 147.8799970149994, 148.0533058643341, 148.82076787948608, 148.92063879966736, 149.03731894493103, 149.15428590774536, 149.27095484733582, 149.38787484169006, 149.50458788871765, 149.62153577804565, 149.7385699748993, 149.85506391525269, 149.97176384925842, 150.0886688232422, 150.2052879333496, 150.32224893569946, 150.4389238357544, 150.555832862854, 150.67262196540833, 150.89667081832886]	[146.79280190462774, 146.90946857128773, 147.89246857128774, 148.05916857128773, 148.80916857128773, 148.92583523794772, 149.04250190460772, 149.1591685712677, 149.2758352379277, 149.3925019045877, 149.5091685712477, 149.6258352379077, 149.7425019045677, 149.85916857122768, 149.97583523788768, 150.09250190454767, 150.20916857120767, 150.32583523786766, 150.44250190452766, 150.55916857118766, 150.67583523784765, 150.90916857118097]	2021_Feb_10_1120	59.94089233143739	1	0.375
28	26	FALSE	NN	a	['V', 'H', 'Y', 'R', 'E', 'P', 'U', 'G', 'N', 'W', 'C', 'T', 'J', 'M', 'A', 'B']	[2245, 986, 2670, 1587, 904, 1456, 2059, 944, 1335, 2448, 829, 1888, 1029, 1224, 697, 760]	9	Absent	NA	NA	ABSENT	0.5626859664916992	152.89539885520935	154.9026918411255	155.60269994731718	155.95270304673872	159.01303791999817	4.110346078872681	[152.90850496292114, 153.02497696876526, 153.9963607788086, 154.17620086669922, 154.92696380615234, 155.04383897781372, 155.1604368686676, 155.27743792533875, 155.39412784576416, 155.51112699508667, 155.62777996063232, 155.74438381195068, 155.86145091056824, 155.9781618118286, 156.09499597549438, 156.21165585517883, 156.32854986190796, 156.44526982307434, 156.56216382980347, 156.67897200584412, 156.7957727909088, 157.01303696632385]	[152.90916857118097, 153.02583523784097, 154.00883523784097, 154.17553523784096, 154.92553523784096, 155.04220190450096, 155.15886857116095, 155.27553523782095, 155.39220190448094, 155.50886857114094, 155.62553523780093, 155.74220190446093, 155.85886857112092, 155.97553523778092, 156.0922019044409, 156.2088685711009, 156.3255352377609, 156.4422019044209, 156.5588685710809, 156.6755352377409, 156.79220190440088, 157.0255352377342]	2021_Feb_10_1120	59.94089233143739	1	0.375
28	27	FALSE	NA	a	['Y', 'T', 'H', 'A', 'K', 'U', 'V', 'G', 'C', 'R', 'N', 'X', 'W', 'J', 'S', 'B']	[2670, 1888, 986, 697, 1122, 2059, 2245, 944, 829, 1587, 1335, 4000, 2448, 1029, 1731, 760]	12	Present	NA	NA	PRESENT	0.5039539337158203	159.01812982559204	161.01873993873596	162.06874804490766	162.41874995223628	165.12940382957458	4.110663890838623	[159.03123593330383, 159.1482298374176, 160.1127278804779, 160.2993769645691, 161.0501458644867, 161.16685390472412, 161.28382396697998, 161.40029191970825, 161.5172688961029, 161.6171419620514, 161.7509570121765, 161.85079979896545, 161.9676148891449, 162.08442878723145, 162.20121097564697, 162.31801390647888, 162.43478798866272, 162.55159783363342, 162.66868686676025, 162.78535890579224, 162.90199780464172, 163.12940287590027]	[159.0255352377342, 159.1422019043942, 160.1252019043942, 160.2919019043942, 161.0419019043942, 161.1585685710542, 161.27523523771418, 161.39190190437418, 161.50856857103417, 161.62523523769417, 161.74190190435417, 161.85856857101416, 161.97523523767416, 162.09190190433415, 162.20856857099415, 162.32523523765414, 162.44190190431414, 162.55856857097413, 162.67523523763413, 162.79190190429412, 162.90856857095412, 163.14190190428744]	2021_Feb_10_1120	59.94089233143739	1	0.375
28	28	FALSE	NA	a	['M', 'S', 'U', 'C', 'K', 'B', 'Z', 'X', 'H', 'W', 'G', 'N', 'J', 'E', 'A', 'P']	[1224, 1731, 2059, 829, 1122, 760, 2911, 4000, 986, 2448, 944, 1335, 1029, 904, 697, 1456]	8	Present	NA	NA	PRESENT	0.36438488960266113	165.12484097480774	167.13524293899536	167.71858318643416	168.06858533218136	171.24576997756958	4.110527038574219	[165.13794898986816, 165.25441980361938, 166.22909498214722, 166.40590000152588, 167.15648078918457, 167.27331280708313, 167.39005279541016, 167.5069499015808, 167.6236629486084, 167.74033188819885, 167.85719680786133, 167.97416186332703, 168.09093499183655, 168.207692861557, 168.32447791099548, 168.44109797477722, 168.55798888206482, 168.67492580413818, 168.79161095619202, 168.90837597846985, 169.02530598640442, 169.2457709312439]	[165.14190190428744, 165.25856857094743, 166.24156857094744, 166.40826857094743, 167.15826857094743, 167.27493523760742, 167.39160190426742, 167.5082685709274, 167.6249352375874, 167.7416019042474, 167.8582685709074, 167.9749352375674, 168.0916019042274, 168.20826857088738, 168.32493523754738, 168.44160190420737, 168.55826857086737, 168.67493523752736, 168.79160190418736, 168.90826857084735, 169.02493523750735, 169.25826857084067]	2021_Feb_10_1120	59.94089233143739	1	0.375
28	29	FALSE	AA	a	['W', 'S', 'B', 'Y', 'R', 'surprise', 'H', 'V', 'X', 'G', 'E', 'Z', 'K', 'C', 'T', 'A']	[2448, 1731, 760, 2670, 1587, 'stimAuditory/all_stimAuditory/105.wav', 986, 2245, 4000, 944, 904, 2911, 1122, 829, 1888, 697]	9	Present	stimAuditory/all_stimAuditory/223.wav	NA	PRESENT	0.45696115493774414	171.24776792526245	173.25173902511597	173.95174593921476	174.3017478465434	177.3621368408203	4.110397815704346	[171.26087498664856, 171.37751293182373, 172.34546184539795, 172.52890300750732, 173.2799367904663, 173.39652299880981, 173.5131847858429, 173.62997484207153, 173.7467348575592, 173.8635959625244, 173.98046278953552, 174.09706592559814, 174.21383690834045, 174.33081078529358, 174.4475338459015, 174.56430888175964, 174.68127298355103, 174.7979338169098, 174.91487789154053, 175.03152084350586, 175.14840078353882, 175.36213779449463]	[171.25826857084067, 171.37493523750067, 172.35793523750067, 172.52463523750066, 173.27463523750066, 173.39130190416066, 173.50796857082065, 173.62463523748065, 173.74130190414064, 173.85796857080064, 173.97463523746063, 174.09130190412063, 174.20796857078062, 174.32463523744062, 174.4413019041006, 174.5579685707606, 174.6746352374206, 174.7913019040806, 174.9079685707406, 175.0246352374006, 175.14130190406058, 175.3746352373939]	2021_Feb_10_1120	59.94089233143739	1	0.375
28	30	FALSE	NV	a	['G', 'B', 'P', 'W', 'H', 'N', 'J', 'U', 'X', 'R', 'V', 'C', 'S', 'Y', 'A', 'E']	[944, 760, 1456, 2448, 986, 1335, 1029, 2059, 4000, 1587, 2245, 829, 1731, 2670, 697, 904]	9	Present	NA	NA	PRESENT	0.27817797660827637	177.37088799476624	179.3678719997406	180.0678798675137	180.41788201326096	183.4785039424896	4.110631942749023	[177.38399386405945, 177.48398184776306, 178.46182680130005, 178.63537192344666, 179.38597083091736, 179.50297498703003, 179.61957597732544, 179.7363669872284, 179.85314679145813, 179.9698338508606, 180.08680295944214, 180.2036008834839, 180.3203089237213, 180.4370129108429, 180.55400896072388, 180.67071390151978, 180.7875759601593, 180.90429592132568, 181.02117395401, 181.13788986206055, 181.25479888916016, 181.4785029888153]	[177.3746352373939, 177.4913019040539, 178.4743019040539, 178.6410019040539, 179.3910019040539, 179.5076685707139, 179.62433523737388, 179.74100190403388, 179.85766857069387, 179.97433523735387, 180.09100190401386, 180.20766857067386, 180.32433523733386, 180.44100190399385, 180.55766857065385, 180.67433523731384, 180.79100190397384, 180.90766857063383, 181.02433523729383, 181.14100190395382, 181.25766857061382, 181.49100190394714]	2021_Feb_10_1120	59.94089233143739	1	0.375
28	31	FALSE	NA	a	['V', 'H', 'W', 'E', 'G', 'Z', 'P', 'Y', 'K', 'B', 'C', 'U', 'X', 'J', 'A', 'M']	[2245, 986, 2448, 904, 944, 2911, 1456, 2670, 1122, 760, 829, 2059, 4000, 1029, 697, 1224]	13	Present	NA	NA	PRESENT	0.5707318782806396	183.47791194915771	185.48445296287537	186.65112749728848	187.00112964303568	189.59486985206604	4.110416889190674	[183.49101996421814, 183.6073830127716, 184.57819390296936, 184.75829100608826, 185.50915479660034, 185.62603497505188, 185.74268293380737, 185.85957598686218, 185.97640991210938, 186.09296488761902, 186.20978689193726, 186.3267798423767, 186.4435839653015, 186.56023383140564, 186.67714190483093, 186.79376697540283, 186.91069197654724, 187.0275948047638, 187.14432191848755, 187.26096081733704, 187.37789678573608, 187.59486985206604]	[183.49100190394714, 183.60766857060713, 184.59066857060714, 184.75736857060713, 185.50736857060713, 185.62403523726712, 185.74070190392712, 185.8573685705871, 185.9740352372471, 186.0907019039071, 186.2073685705671, 186.3240352372271, 186.4407019038871, 186.55736857054708, 186.67403523720708, 186.79070190386707, 186.90736857052707, 187.02403523718706, 187.14070190384706, 187.25736857050705, 187.37403523716705, 187.60736857050037]	2021_Feb_10_1120	59.94089233143739	1	0.375
28	32	FALSE	NV	a	['Y', 'Z', 'A', 'N', 'B', 'U', 'E', 'X', 'H', 'M', 'T', 'J', 'V', 'G', 'P', 'S']	[2670, 2911, 697, 1335, 760, 2059, 904, 4000, 986, 1224, 1888, 1029, 2245, 944, 1456, 1731]	8	Present	NA	NA	PRESENT	0.2800920009613037	189.60044288635257	191.60081601142883	192.18415721254195	192.53415935828912	195.71123695373535	4.1104209423065186	[189.61355090141296, 189.7302258014679, 190.69455885887146, 190.8815529346466, 191.63235878944397, 191.7490677833557, 191.86599493026733, 191.9657688140869, 192.08264994621277, 192.19932889938354, 192.31624698638916, 192.43304586410522, 192.54978394508362, 192.66688799858093, 192.78342580795288, 192.900221824646, 193.01698684692383, 193.1337628364563, 193.25049996376038, 193.36734700202942, 193.48426389694214, 193.71123695373535]	[189.60736857050037, 189.72403523716036, 190.70703523716037, 190.87373523716036, 191.62373523716036, 191.74040190382036, 191.85706857048035, 191.97373523714035, 192.09040190380034, 192.20706857046034, 192.32373523712033, 192.44040190378033, 192.55706857044032, 192.67373523710032, 192.7904019037603, 192.9070685704203, 193.0237352370803, 193.1404019037403, 193.2570685704003, 193.3737352370603, 193.49040190372028, 193.7237352370536]	2021_Feb_10_1120	59.94089233143739	1	0.375
28	33	FALSE	NA	a	['R', 'S', 'H', 'P', 'A', 'B', 'T', 'V', 'X', 'K', 'C', 'E', 'W', 'U', 'N', 'M']	[1587, 1731, 986, 1456, 697, 760, 1888, 2245, 4000, 1122, 829, 904, 2448, 2059, 1335, 1224]	9	Present	NA	NA	PRESENT	0.164794921875	195.70674991607663	197.71731090545657	198.41731996532255	198.7673218726512	201.82760286331177	4.110291957855225	[195.71985578536987, 195.8368809223175, 196.8109269142151, 196.98789286613464, 197.73867082595825, 197.85566782951355, 197.97230195999146, 198.08912301063538, 198.20580983161926, 198.32258486747742, 198.43943786621094, 198.5561649799347, 198.6730718612671, 198.78969979286194, 198.90665888786316, 199.02343487739563, 199.14023399353027, 199.25705099105835, 199.3738558292389, 199.49066591262817, 199.60748600959778, 199.82760381698608]	[195.7237352370536, 195.8404019037136, 196.8234019037136, 196.9901019037136, 197.7401019037136, 197.8567685703736, 197.97343523703358, 198.09010190369358, 198.20676857035357, 198.32343523701357, 198.44010190367356, 198.55676857033356, 198.67343523699356, 198.79010190365355, 198.90676857031355, 199.02343523697354, 199.14010190363354, 199.25676857029353, 199.37343523695353, 199.49010190361352, 199.60676857027352, 199.84010190360684]	2021_Feb_10_1120	59.94089233143739	1	0.375
28	34	FALSE	NN	a	['H', 'C', 'M', 'T', 'K', 'U', 'V', 'P', 'Y', 'G', 'N', 'A', 'B', 'W', 'J', 'Z']	[986, 829, 1224, 1888, 1122, 2059, 2245, 1456, 2670, 944, 1335, 697, 760, 2448, 1029, 2911]	14	Absent	NA	NA	ABSENT	0.4814841747283935	201.82998895645144	203.8332920074463	205.1166332085194	205.46663630794092	207.94396996498108	4.11067795753479	[201.84309577941895, 201.95988392829895, 202.9272940158844, 203.11138892173767, 203.8619749546051, 203.97859287261963, 204.095556974411, 204.21214985847473, 204.3288218975067, 204.4456648826599, 204.5626449584961, 204.67929697036743, 204.79619598388672, 204.91287183761597, 205.02981400489807, 205.14646100997925, 205.26332092285156, 205.3801338672638, 205.49685192108154, 205.6138780117035, 205.730938911438, 205.94396996498108]	[201.84010190360684, 201.95676857026683, 202.93976857026684, 203.10646857026683, 203.85646857026683, 203.97313523692682, 204.08980190358682, 204.2064685702468, 204.3231352369068, 204.4398019035668, 204.5564685702268, 204.6731352368868, 204.7898019035468, 204.90646857020678, 205.02313523686678, 205.13980190352677, 205.25646857018677, 205.37313523684676, 205.48980190350676, 205.60646857016675, 205.72313523682675, 205.95646857016007]	2021_Feb_10_1120	59.94089233143739	1	0.375
28	35	FALSE	NA	a	['C', 'A', 'G', 'Z', 'U', 'B', 'W', 'T', 'X', 'E', 'N', 'R', 'V', 'K', 'H', 'Y']	[829, 697, 944, 2911, 2059, 760, 2448, 1888, 4000, 904, 1335, 1587, 2245, 1122, 986, 2670]	9	Present	NA	NA	PRESENT	0.27858901023864746	207.93619894981384	209.94974184036255	210.64974994655424	210.99975185388288	214.06033778190613	4.110595941543579	[207.94930601119995, 208.0661919116974, 209.0436589717865, 209.2173388004303, 209.96809577941895, 210.08515286445618, 210.2017879486084, 210.31876587867737, 210.4352159500122, 210.55221700668335, 210.66893601417542, 210.78582978248596, 210.9026288986206, 211.01939296722412, 211.13616394996643, 211.2527859210968, 211.3697328567505, 211.48640298843384, 211.6033799648285, 211.7198519706726, 211.8369688987732, 212.0603368282318]	[207.95646857016007, 208.07313523682006, 209.05613523682007, 209.22283523682006, 209.97283523682006, 210.08950190348006, 210.20616857014005, 210.32283523680005, 210.43950190346004, 210.55616857012004, 210.67283523678003, 210.78950190344003, 210.90616857010002, 211.02283523676002, 211.13950190342, 211.25616857008, 211.37283523674, 211.4895019034, 211.60616857006, 211.72283523672, 211.83950190337998, 212.0728352367133]	2021_Feb_10_1120	59.94089233143739	1	0.375
28	36	FALSE	AN	a	['B', 'U', 'T', 'M', 'V', 'K', 'G', 'J', 'E', 'surprise', 'P', 'H', 'W', 'R', 'Z', 'C']	[760, 2059, 1888, 1224, 2245, 1122, 944, 1029, 904, 'stimAuditory/all_stimAuditory/117.wav', 1456, 986, 2448, 1587, 2911, 829]	13	Absent	stimAuditory/all_stimAuditory/122.wav	NA	ABSENT	0.6990880966186523	214.05967783927915	216.06604194641113	217.2327155271499	217.58271767289713	220.17670392990112	4.11066198348999	[214.07278490066528, 214.18953895568848, 215.16002678871155, 215.34060883522034, 216.09137892723083, 216.2080328464508, 216.32509779930115, 216.44166088104248, 216.55837297439575, 216.67530393600464, 216.79216599464417, 216.9087438583374, 217.02568078041077, 217.14231896400452, 217.25919389724731, 217.37592887878418, 217.49283599853516, 217.60963797569275, 217.72647190093994, 217.84327387809753, 217.95999193191528, 218.17670392990112]	[214.0728352367133, 214.1895019033733, 215.1725019033733, 215.3392019033733, 216.0892019033733, 216.2058685700333, 216.32253523669328, 216.43920190335328, 216.55586857001327, 216.67253523667327, 216.78920190333326, 216.90586856999326, 217.02253523665325, 217.13920190331325, 217.25586856997325, 217.37253523663324, 217.48920190329324, 217.60586856995323, 217.72253523661323, 217.83920190327322, 217.95586856993322, 218.18920190326654]	2021_Feb_10_1120	59.94089233143739	1	0.375
28	37	FALSE	NN	a	['Z', 'N', 'H', 'U', 'R', 'G', 'J', 'B', 'Y', 'P', 'W', 'C', 'E', 'M', 'V', 'S']	[2911, 1335, 986, 2059, 1587, 944, 1029, 760, 2670, 1456, 2448, 829, 904, 1224, 2245, 1731]	10	Absent	NA	NA	ABSENT	0.4722440242767334	220.18276190757751	222.182550907135	222.9992256799867	223.34922663364105	226.29307079315183	4.110519886016846	[220.19586896896362, 220.31252694129944, 221.27639389038086, 221.46371388435364, 222.21446180343628, 222.3145089149475, 222.43131279945374, 222.54810786247253, 222.6648600101471, 222.7816038131714, 222.8983919620514, 223.0150909423828, 223.13192987442017, 223.2486789226532, 223.36547994613647, 223.48223400115967, 223.59906792640686, 223.71613097190857, 223.8328309059143, 223.94949984550476, 224.06651401519775, 224.29307079315186]	[220.18920190326654, 220.30586856992653, 221.28886856992654, 221.45556856992653, 222.20556856992653, 222.32223523658652, 222.43890190324652, 222.5555685699065, 222.6722352365665, 222.7889019032265, 222.9055685698865, 223.0222352365465, 223.1389019032065, 223.25556856986648, 223.37223523652648, 223.48890190318647, 223.60556856984647, 223.72223523650646, 223.83890190316646, 223.95556856982645, 224.07223523648645, 224.30556856981977]	2021_Feb_10_1120	59.94089233143739	1	0.375
28	38	FALSE	NA	a	['Y', 'M', 'A', 'G', 'S', 'W', 'B', 'Z', 'X', 'J', 'K', 'T', 'V', 'U', 'E', 'C']	[2670, 1224, 697, 944, 1731, 2448, 760, 2911, 4000, 1029, 1122, 1888, 2245, 2059, 904, 829]	9	Present	NA	NA	PRESENT	0.32503294944763184	226.2889528274536	228.2990038394928	228.9990119456845	229.34901385301313	232.40943789482117	4.110434055328369	[226.30206084251404, 226.41891884803772, 227.3927628993988, 227.56999588012695, 228.320818901062, 228.43777990341187, 228.5544948577881, 228.67126893997192, 228.78817987442017, 228.90477895736694, 229.0216579437256, 229.13825678825378, 229.25520586967468, 229.37189888954163, 229.48876690864563, 229.60540199279785, 229.72236394882202, 229.83910083770752, 229.95576882362366, 230.07270693778992, 230.18946290016174, 230.40943789482117]	[226.30556856981977, 226.42223523647976, 227.40523523647977, 227.57193523647976, 228.32193523647976, 228.43860190313976, 228.55526856979975, 228.67193523645975, 228.78860190311974, 228.90526856977974, 229.02193523643973, 229.13860190309973, 229.25526856975972, 229.37193523641972, 229.4886019030797, 229.6052685697397, 229.7219352363997, 229.8386019030597, 229.9552685697197, 230.0719352363797, 230.18860190303968, 230.421935236373]	2021_Feb_10_1120	59.94089233143739	1	0.375
28	39	FALSE	NN	a	['M', 'V', 'J', 'H', 'K', 'R', 'W', 'S', 'A', 'E', 'N', 'C', 'Z', 'P', 'G', 'B']	[1224, 2245, 1029, 986, 1122, 1587, 2448, 1731, 697, 904, 1335, 829, 2911, 1456, 944, 760]	9	Absent	NA	NA	ABSENT	0.28966593742370605	232.41211986541748	234.4155158996582	235.1155240058499	235.46552591317857	238.52580499649048	4.110289096832275	[232.4252269268036, 232.54206490516663, 233.50913000106812, 233.69353699684143, 234.4440038204193, 234.5607659816742, 234.67750096321106, 234.79438591003418, 234.91123795509338, 235.02781295776367, 235.14471888542175, 235.2617290019989, 235.37839198112488, 235.4950339794159, 235.61205196380615, 235.72863292694092, 235.84526991844177, 235.96228098869324, 236.07898688316345, 236.19590377807617, 236.31264996528625, 236.52580380439758]	[232.421935236373, 232.538601903033, 233.521601903033, 233.688301903033, 234.438301903033, 234.554968569693, 234.67163523635298, 234.78830190301298, 234.90496856967297, 235.02163523633297, 235.13830190299296, 235.25496856965296, 235.37163523631295, 235.48830190297295, 235.60496856963294, 235.72163523629294, 235.83830190295294, 235.95496856961293, 236.07163523627293, 236.18830190293292, 236.30496856959292, 236.53830190292624]	2021_Feb_10_1120	59.94089233143739	1	0.375
28	40	FALSE	NN	a	['N', 'P', 'Z', 'A', 'S', 'V', 'G', 'H', 'C', 'R', 'T', 'B', 'K', 'U', 'Y', 'W']	[1335, 1456, 2911, 697, 1731, 2245, 944, 986, 829, 1587, 1888, 760, 1122, 2059, 2670, 2448]	8	Absent	NA	NA	ABSENT	0.4467809200286865	238.5351619720459	240.53170585632324	241.11504634218065	241.46504824950924	244.6421709060669	4.110465049743652	[238.54826879501343, 238.64830994606018, 239.62549495697021, 239.79956698417664, 240.55028295516968, 240.6671040058136, 240.7840027809143, 240.90085291862488, 241.01767992973328, 241.13435888290405, 241.25127577781677, 241.36781096458435, 241.4848449230194, 241.60134100914001, 241.71834087371826, 241.83523797988892, 241.9518928527832, 242.06870198249817, 242.18553400039673, 242.30217790603638, 242.4191689491272, 242.64216995239258]	[238.53830190292624, 238.65496856958623, 239.63796856958623, 239.80466856958623, 240.55466856958623, 240.67133523624622, 240.78800190290622, 240.9046685695662, 241.0213352362262, 241.1380019028862, 241.2546685695462, 241.3713352362062, 241.4880019028662, 241.60466856952618, 241.72133523618618, 241.83800190284617, 241.95466856950617, 242.07133523616616, 242.18800190282616, 242.30466856948615, 242.42133523614615, 242.65466856947947]	2021_Feb_10_1120	59.94089233143739	1	0.375
28	41	FALSE	AA	a	['J', 'C', 'G', 'V', 'P', 'T', 'B', 'H', 'W', 'U', 'surprise', 'Y', 'K', 'X', 'Z', 'R']	[1029, 829, 944, 2245, 1456, 1888, 760, 986, 2448, 2059, 'stimAuditory/all_stimAuditory/217.wav', 2670, 1122, 4000, 2911, 1587]	14	Present	stimAuditory/all_stimAuditory/105.wav	NA	PRESENT	0.3794219493865967	244.64200496673584	246.64788794517517	247.9312293846669	248.28123129199548	250.7585380077362	4.110650062561035	[244.65511178970337, 244.77140092849731, 245.74186086654663, 245.92282795906067, 246.67358088493347, 246.79021382331848, 246.90728783607483, 247.0238378047943, 247.14078879356384, 247.25745487213135, 247.37418794631958, 247.49104690551758, 247.60782384872437, 247.72493696212769, 247.84142589569092, 247.9581618309021, 248.0750207901001, 248.19178986549377, 248.30868983268738, 248.42541193962097, 248.542151927948, 248.7585368156433]	[244.65466856947947, 244.77133523613946, 245.75433523613947, 245.92103523613946, 246.67103523613946, 246.78770190279945, 246.90436856945945, 247.02103523611945, 247.13770190277944, 247.25436856943944, 247.37103523609943, 247.48770190275943, 247.60436856941942, 247.72103523607942, 247.8377019027394, 247.9543685693994, 248.0710352360594, 248.1877019027194, 248.3043685693794, 248.4210352360394, 248.53770190269938, 248.7710352360327]	2021_Feb_10_1120	59.94089233143739	1	0.375
28	42	FALSE	NN	a	['W', 'N', 'Y', 'E', 'M', 'K', 'A', 'J', 'S', 'C', 'U', 'T', 'P', 'V', 'Z', 'H']	[2448, 1335, 2670, 904, 1224, 1122, 697, 1029, 1731, 829, 2059, 1888, 1456, 2245, 2911, 986]	12	Absent	NA	NA	ABSENT	0.3607809543609619	250.7648298740387	252.76445698738095	253.8144639014598	254.164466047207	256.8749039173126	4.110446929931641	[250.7779369354248, 250.89469695091248, 251.85822796821594, 252.04584980010986, 252.79645895957947, 252.89666891098022, 253.01338696479797, 253.13019680976868, 253.24703693389893, 253.3637797832489, 253.4804608821869, 253.59726095199585, 253.7141888141632, 253.83082389831543, 253.94780588150024, 254.06445980072021, 254.18145489692688, 254.29819178581238, 254.41504096984863, 254.53171396255493, 254.64893078804016, 254.8749029636383]	[250.7710352360327, 250.8877019026927, 251.8707019026927, 252.0374019026927, 252.7874019026927, 252.9040685693527, 253.02073523601268, 253.13740190267268, 253.25406856933267, 253.37073523599267, 253.48740190265266, 253.60406856931266, 253.72073523597265, 253.83740190263265, 253.95406856929264, 254.07073523595264, 254.18740190261263, 254.30406856927263, 254.42073523593263, 254.53740190259262, 254.65406856925262, 254.88740190258594]	2021_Feb_10_1120	59.94089233143739	1	0.375
28	43	FALSE	NA	a	['E', 'Y', 'H', 'U', 'T', 'V', 'R', 'B', 'X', 'W', 'N', 'C', 'M', 'A', 'Z', 'K']	[904, 2670, 986, 2059, 1888, 2245, 1587, 760, 4000, 2448, 1335, 829, 1224, 697, 2911, 1122]	9	Present	NA	NA	PRESENT	0.26131486892700195	256.8710720539093	258.88085293769836	259.5808610438901	259.93086295121867	262.99127078056335	4.11041784286499	[256.88418078422546, 257.0009608268738, 257.97459387779236, 258.1522948741913, 258.90315079689026, 259.0196888446808, 259.1366949081421, 259.2533309459686, 259.37033581733704, 259.48696780204773, 259.60386300086975, 259.7206108570099, 259.8372337818146, 259.9541540145874, 260.07101798057556, 260.1876449584961, 260.30463194847107, 260.421217918396, 260.5382249355316, 260.65477299690247, 260.77168893814087, 260.99126982688904]	[256.8874019025859, 257.00406856924593, 257.98706856924593, 258.1537685692459, 258.9037685692459, 259.02043523590595, 259.137101902566, 259.253768569226, 259.370435235886, 259.48710190254604, 259.60376856920607, 259.7204352358661, 259.8371019025261, 259.95376856918614, 260.07043523584616, 260.1871019025062, 260.3037685691662, 260.42043523582623, 260.53710190248626, 260.6537685691463, 260.7704352358063, 261.00376856913965]	2021_Feb_10_1120	59.94089233143739	1	0.375
28	44	FALSE	NV	a	['C', 'H', 'T', 'S', 'Z', 'R', 'A', 'X', 'J', 'V', 'B', 'Y', 'M', 'G', 'P', 'N']	[829, 986, 1888, 1731, 2911, 1587, 697, 4000, 1029, 2245, 760, 2670, 1224, 944, 1456, 1335]	8	Present	NA	NA	PRESENT	0.28195691108703613	262.99417304992676	264.9970998764038	265.5804413159355	265.93044322326415	269.10763692855835	4.110537052154541	[263.0072798728943, 263.1242718696594, 264.0909597873688, 264.2753429412842, 265.02641582489014, 265.14296889305115, 265.2598509788513, 265.3764669895172, 265.49344992637634, 265.610230922699, 265.7270209789276, 265.84363293647766, 265.96044087409973, 266.0773479938507, 266.19390392303467, 266.31084299087524, 266.4275288581848, 266.5444748401642, 266.6612617969513, 266.7780900001526, 266.8948218822479, 267.10763692855835]	[263.00376856913965, 263.1204352357997, 264.1034352357997, 264.27013523579967, 265.02013523579967, 265.1368019024597, 265.2534685691197, 265.37013523577974, 265.48680190243977, 265.6034685690998, 265.7201352357598, 265.83680190241984, 265.95346856907986, 266.0701352357399, 266.1868019023999, 266.30346856905993, 266.42013523571995, 266.53680190238, 266.65346856904, 266.7701352357, 266.88680190236005, 267.1201352356934]	2021_Feb_10_1120	59.94089233143739	1	0.375
28	45	FALSE	NV	a	['R', 'B', 'A', 'M', 'V', 'U', 'W', 'H', 'N', 'E', 'S', 'Y', 'T', 'X', 'J', 'K']	[1587, 760, 697, 1224, 2245, 2059, 2448, 986, 1335, 904, 1731, 2670, 1888, 4000, 1029, 1122]	14	Present	NA	NA	PRESENT	0.31122589111328125	269.1005480289459	271.1134068965912	272.39674738240853	272.7467492897372	275.2240128517151	4.110605955123901	[269.11365389823914, 269.2306408882141, 270.2073278427124, 270.3816819190979, 271.1324758529663, 271.2494490146637, 271.3662679195404, 271.48288583755493, 271.5999188423157, 271.71632289886475, 271.83345890045166, 271.95015597343445, 272.0668799877167, 272.18353486061096, 272.30045080184937, 272.41710782051086, 272.5340359210968, 272.65075492858887, 272.76764392852783, 272.88439297676086, 273.0012068748474, 273.2240037918091]	[269.1201352356934, 269.2368019023534, 270.2198019023534, 270.3865019023534, 271.1365019023534, 271.25316856901344, 271.36983523567346, 271.4865019023335, 271.6031685689935, 271.71983523565353, 271.83650190231356, 271.9531685689736, 272.0698352356336, 272.1865019022936, 272.30316856895365, 272.4198352356137, 272.5365019022737, 272.6531685689337, 272.76983523559375, 272.88650190225377, 273.0031685689138, 273.23650190224714]	2021_Feb_10_1120	59.94089233143739	1	0.375
28	46	FALSE	VA	a	['C', 'S', 'K', 'B', 'surprise', 'V', 'P', 'X', 'U', 'G', 'J', 'Z', 'H', 'W', 'M', 'E']	[829, 1731, 1122, 760, 'stimAuditory/all_stimAuditory/206.wav', 2245, 1456, 4000, 2059, 944, 1029, 2911, 986, 2448, 1224, 904]	8	Present	NA	NA	PRESENT	0.35581207275390625	275.22421288490295	277.2298150062561	277.8131562073692	278.16315835311644	281.3403699398041	4.110554933547974	[275.23731994628906, 275.3536238670349, 276.3236927986145, 276.5050468444824, 277.25560092926025, 277.37237882614136, 277.4892477989197, 277.6060218811035, 277.72290086746216, 277.83963084220886, 277.95650482177734, 278.0732238292694, 278.1900107860565, 278.3068377971649, 278.42362093925476, 278.5402579307556, 278.65723299980164, 278.77395582199097, 278.89068484306335, 279.0077757835388, 279.12423396110535, 279.3403708934784]	[275.23650190224714, 275.35316856890717, 276.33616856890717, 276.50286856890716, 277.25286856890716, 277.3695352355672, 277.4862019022272, 277.60286856888723, 277.71953523554726, 277.8362019022073, 277.9528685688673, 278.0695352355273, 278.18620190218735, 278.3028685688474, 278.4195352355074, 278.5362019021674, 278.65286856882744, 278.76953523548747, 278.8862019021475, 279.0028685688075, 279.11953523546754, 279.3528685688009]	2021_Feb_10_1120	59.94089233143739	1	0.375
28	47	FALSE	NN	a	['A', 'U', 'H', 'E', 'S', 'R', 'P', 'V', 'B', 'Z', 'Y', 'M', 'C', 'N', 'J', 'W']	[697, 2059, 986, 904, 1731, 1587, 1456, 2245, 760, 2911, 2670, 1224, 829, 1335, 1029, 2448]	13	Absent	NA	NA	ABSENT	0.3049190044403076	281.34692096710205	283.34630584716797	284.51298061999967	284.8629825273283	287.4567368030548	4.110430955886841	[281.3600277900696, 281.4768989086151, 282.44006085395813, 282.6281108856201, 283.378732919693, 283.47869896888733, 283.59553480148315, 283.7123398780823, 283.82930397987366, 283.9458999633789, 284.0629618167877, 284.1795048713684, 284.29646587371826, 284.4130458831787, 284.5298957824707, 284.64696979522705, 284.7636330127716, 284.88025093078613, 284.99721598625183, 285.11384892463684, 285.2306098937988, 285.4567368030548]	[281.3528685688009, 281.4695352354609, 282.4525352354609, 282.6192352354609, 283.3692352354609, 283.48590190212093, 283.60256856878095, 283.719235235441, 283.835901902101, 283.952568568761, 284.06923523542105, 284.18590190208107, 284.3025685687411, 284.4192352354011, 284.53590190206114, 284.65256856872116, 284.7692352353812, 284.8859019020412, 285.00256856870124, 285.11923523536126, 285.2359019020213, 285.46923523535463]	2021_Feb_10_1120	59.94089233143739	1	0.375
28	48	FALSE	NA	a	['G', 'M', 'B', 'E', 'N', 'Z', 'C', 'X', 'S', 'P', 'K', 'W', 'R', 'J', 'H', 'V']	[944, 1224, 760, 904, 1335, 2911, 829, 4000, 1731, 1456, 1122, 2448, 1587, 1029, 986, 2245]	8	Present	NA	NA	PRESENT	0.34966206550598145	287.45334696769714	289.46273398399353	290.04607423143233	290.39607637717955	293.5731029510498	4.110368967056274	[287.46645498275757, 287.583251953125, 288.5564270019531, 288.734365940094, 289.4852478504181, 289.6020498275757, 289.71875286102295, 289.83554196357727, 289.95242381095886, 290.069139957428, 290.18597078323364, 290.3027448654175, 290.4195399284363, 290.5362157821655, 290.6530878543854, 290.7697699069977, 290.88665890693665, 291.0034439563751, 291.1201889514923, 291.2370150089264, 291.3537268638611, 291.5731039047241]	[287.46923523535463, 287.58590190201465, 288.56890190201466, 288.73560190201465, 289.48560190201465, 289.6022685686747, 289.7189352353347, 289.8356019019947, 289.95226856865474, 290.06893523531477, 290.1856019019748, 290.3022685686348, 290.41893523529484, 290.53560190195486, 290.6522685686149, 290.7689352352749, 290.88560190193493, 291.00226856859496, 291.118935235255, 291.235601901915, 291.352268568575, 291.5856019019084]	2021_Feb_10_1120	59.94089233143739	1	0.375
28	49	FALSE	NV	a	['V', 'Y', 'M', 'U', 'E', 'R', 'H', 'X', 'G', 'B', 'N', 'S', 'T', 'Z', 'A', 'C']	[2245, 2670, 1224, 2059, 904, 1587, 986, 4000, 944, 760, 1335, 1731, 1888, 2911, 697, 829]	8	Present	NA	NA	PRESENT	0.20232295989990232	293.5765368938446	295.578989982605	296.1623311837181	296.5123333294653	299.68947100639343	4.110481023788452	[293.5896439552307, 293.70627188682556, 294.6727919578552, 294.85763597488403, 295.6081178188324, 295.7254869937897, 295.84193181991577, 295.95882391929626, 296.07559394836426, 296.19238090515137, 296.3092110157013, 296.42587184906006, 296.54269886016846, 296.6595048904419, 296.7761619091034, 296.8930079936981, 297.00971388816833, 297.12664890289307, 297.243439912796, 297.3602509498596, 297.4768807888031, 297.68946981430054]	[293.5856019019084, 293.7022685685684, 294.6852685685684, 294.8519685685684, 295.6019685685684, 295.7186352352284, 295.83530190188844, 295.95196856854847, 296.0686352352085, 296.1853019018685, 296.30196856852854, 296.41863523518856, 296.5353019018486, 296.6519685685086, 296.76863523516863, 296.88530190182865, 297.0019685684887, 297.1186352351487, 297.2353019018087, 297.35196856846875, 297.4686352351288, 297.7019685684621]	2021_Feb_10_1120	59.94089233143739	1	0.375
28	50	FALSE	NV	a	['B', 'U', 'Y', 'Z', 'W', 'J', 'G', 'T', 'N', 'R', 'V', 'X', 'S', 'E', 'H', 'P']	[760, 2059, 2670, 2911, 2448, 1029, 944, 1888, 1335, 1587, 2245, 4000, 1731, 904, 986, 1456]	12	Present	NA	NA	PRESENT	0.3354148864746094	299.68269991874695	301.6953978538513	302.745405960023	303.09540786735164	305.80583691596985	4.11043906211853	[299.69580578804016, 299.8126218318939, 300.7891619205475, 300.9639458656311, 301.71476578712463, 301.8314599990845, 301.9484429359436, 302.0650157928467, 302.18192887306213, 302.2986099720001, 302.4154808521271, 302.5323209762573, 302.64896392822266, 302.7657208442688, 302.8824248313904, 302.99932193756104, 303.1162757873535, 303.23281598091125, 303.3496398925781, 303.4666109085083, 303.5834310054779, 303.8058388233185]	[299.7019685684621, 299.81863523512214, 300.80163523512215, 300.96833523512214, 301.71833523512214, 301.83500190178216, 301.9516685684422, 302.0683352351022, 302.18500190176223, 302.30166856842226, 302.4183352350823, 302.5350019017423, 302.65166856840233, 302.76833523506235, 302.8850019017224, 303.0016685683824, 303.1183352350424, 303.23500190170245, 303.35166856836247, 303.4683352350225, 303.5850019016825, 303.81833523501587]	2021_Feb_10_1120	59.94089233143739	1	0.375
28	51	FALSE	NA	a	['P', 'K', 'U', 'Z', 'N', 'J', 'G', 'Y', 'C', 'V', 'X', 'A', 'R', 'E', 'S', 'M']	[1456, 1122, 2059, 2911, 1335, 1029, 944, 2670, 829, 2245, 4000, 697, 1587, 904, 1731, 1224]	11	Present	NA	NA	PRESENT	0.3640251159667969	305.80620884895325	307.8117678165436	308.7451092560553	309.0951111633839	311.9222049713135	4.1104371547698975	[305.81931591033936, 305.93591594696045, 306.9055299758911, 307.0870749950409, 307.8377778530121, 307.9545350074768, 308.0713059902191, 308.18828797340393, 308.3050799369812, 308.4217948913574, 308.53872084617615, 308.65534496307373, 308.7722668647766, 308.8889889717102, 309.00557589530945, 309.1224718093872, 309.23932790756226, 309.35605001449585, 309.4726948738098, 309.5896809101105, 309.7063579559326, 309.9222049713135]	[305.81833523501587, 305.9350019016759, 306.9180019016759, 307.0847019016759, 307.8347019016759, 307.9513685683359, 308.06803523499593, 308.18470190165596, 308.301368568316, 308.418035234976, 308.534701901636, 308.65136856829605, 308.7680352349561, 308.8847019016161, 309.0013685682761, 309.11803523493614, 309.23470190159617, 309.3513685682562, 309.4680352349162, 309.58470190157624, 309.70136856823626, 309.9347019015696]	2021_Feb_10_1120	59.94089233143739	1	0.375
28	52	FALSE	VA	a	['S', 'C', 'M', 'P', 'A', 'Z', 'T', 'surprise', 'G', 'V', 'X', 'J', 'Y', 'R', 'H', 'U']	[1731, 829, 1224, 1456, 697, 2911, 1888, 'stimAuditory/all_stimAuditory/107.wav', 944, 2245, 4000, 1029, 2670, 1587, 986, 2059]	11	Present	NA	NA	PRESENT	0.2652878761291504	311.92918491363525	313.92833399772644	314.86167519881957	315.21167734456674	318.0385699272156	4.110235929489136	[311.94229197502136, 312.0588870048523, 313.02189588546753, 313.19331097602844, 313.9609639644623, 314.06104278564453, 314.17775893211365, 314.2945568561554, 314.41131591796875, 314.52816700935364, 314.6449499130249, 314.76172280311584, 314.87867999076843, 314.99531388282776, 315.11218881607056, 315.2287948131561, 315.3457758426666, 315.46232986450195, 315.5793299674988, 315.6963047981262, 315.8127439022064, 316.0385699272156]	[311.9347019015696, 312.05136856822963, 313.03436856822964, 313.20106856822963, 313.95106856822963, 314.06773523488965, 314.1844019015497, 314.3010685682097, 314.4177352348697, 314.53440190152975, 314.65106856818977, 314.7677352348498, 314.8844019015098, 315.00106856816984, 315.11773523482987, 315.2344019014899, 315.3510685681499, 315.46773523480994, 315.58440190146996, 315.70106856813, 315.81773523479, 316.05106856812336]	2021_Feb_10_1120	59.94089233143739	1	0.375
28	53	FALSE	NA	a	['H', 'Z', 'M', 'N', 'K', 'A', 'G', 'J', 'C', 'V', 'S', 'X', 'U', 'W', 'R', 'T']	[986, 2911, 1224, 1335, 1122, 697, 944, 1029, 829, 2245, 1731, 4000, 2059, 2448, 1587, 1888]	12	Present	NA	NA	PRESENT	0.2537858486175537	318.03550696372986	320.0443320274353	321.0943398951884	321.4443420409356	324.1549379825592	4.110605955123901	[318.0486159324646, 318.16543984413147, 319.1382598876953, 319.31651496887207, 320.0673749446869, 320.18410992622375, 320.3010718822479, 320.4177429676056, 320.53459787368774, 320.65131998062134, 320.7679908275604, 320.88486886024475, 321.00176787376404, 321.11846590042114, 321.2353358268738, 321.351979970932, 321.46869587898254, 321.58569288253784, 321.7023048400879, 321.8192529678345, 321.93591594696045, 322.1549367904663]	[318.05106856812336, 318.1677352347834, 319.1507352347834, 319.3174352347834, 320.0674352347834, 320.1841019014434, 320.3007685681034, 320.41743523476345, 320.53410190142347, 320.6507685680835, 320.7674352347435, 320.88410190140354, 321.00076856806356, 321.1174352347236, 321.2341019013836, 321.35076856804363, 321.46743523470366, 321.5841019013637, 321.7007685680237, 321.8174352346837, 321.93410190134375, 322.1674352346771]	2021_Feb_10_1120	59.94089233143739	1	0.375
28	54	FALSE	NV	a	['C', 'E', 'Y', 'H', 'P', 'B', 'G', 'U', 'M', 'W', 'Z', 'X', 'A', 'R', 'S', 'N']	[829, 904, 2670, 986, 1456, 760, 944, 2059, 1224, 2448, 2911, 4000, 697, 1587, 1731, 1335]	12	Present	NA	NA	PRESENT	0.45833802223205566	324.1586208343506	326.16055703163147	327.21056489938456	327.5605670451318	330.2713038921356	4.11074686050415	[324.1717269420624, 324.28836488723755, 325.2546489238739, 325.4395728111267, 326.1906998157501, 326.30735182762146, 326.42404198646545, 326.5408408641815, 326.65769600868225, 326.77449798583984, 326.8913118839264, 327.0079197883606, 327.12483978271484, 327.24166989326477, 327.35827589035034, 327.47493982315063, 327.59176778793335, 327.7087209224701, 327.82556891441345, 327.9422209262848, 328.05921387672424, 328.2713038921356]	[324.1674352346771, 324.2841019013371, 325.2671019013371, 325.4338019013371, 326.1838019013371, 326.30046856799714, 326.41713523465717, 326.5338019013172, 326.6504685679772, 326.76713523463724, 326.88380190129726, 327.0004685679573, 327.1171352346173, 327.23380190127733, 327.35046856793736, 327.4671352345974, 327.5838019012574, 327.7004685679174, 327.81713523457745, 327.9338019012375, 328.0504685678975, 328.28380190123085]	2021_Feb_10_1120	59.94089233143739	1	0.375
28	55	FALSE	NA	a	['P', 'A', 'Y', 'E', 'B', 'W', 'K', 'U', 'M', 'H', 'S', 'T', 'Z', 'X', 'V', 'R']	[1456, 697, 2670, 904, 760, 2448, 1122, 2059, 1224, 986, 1731, 1888, 2911, 4000, 2245, 1587]	14	Present	NA	NA	PRESENT	0.33574700355529785	330.2648859024048	332.2772889137268	333.56063035321847	333.9106322605471	336.38767099380493	4.110382080078125	[330.2779939174652, 330.3947308063507, 331.37099599838257, 331.54608178138733, 332.2968499660492, 332.4137189388275, 332.5305190086365, 332.6473169326782, 332.7640748023987, 332.88081884384155, 332.9977648258209, 333.1143989562988, 333.2311489582062, 333.34803891181946, 333.46474981307983, 333.5815088748932, 333.69825291633606, 333.81515884399414, 333.93192982673645, 334.04875683784485, 334.1653208732605, 334.38767099380493]	[330.28380190123085, 330.40046856789087, 331.3834685678909, 331.55016856789086, 332.30016856789086, 332.4168352345509, 332.5335019012109, 332.65016856787094, 332.76683523453096, 332.883501901191, 333.000168567851, 333.11683523451103, 333.23350190117105, 333.3501685678311, 333.4668352344911, 333.5835019011511, 333.70016856781115, 333.81683523447117, 333.9335019011312, 334.0501685677912, 334.16683523445124, 334.4001685677846]	2021_Feb_10_1120	59.94089233143739	1	0.375
28	56	FALSE	NN	a	['W', 'E', 'B', 'J', 'G', 'V', 'P', 'N', 'H', 'C', 'A', 'K', 'R', 'U', 'M', 'Z']	[2448, 904, 760, 1029, 944, 2245, 1456, 1335, 986, 829, 697, 1122, 1587, 2059, 1224, 2911]	10	Absent	NA	NA	ABSENT	0.5162270069122314	336.38840103149414	338.3935658931732	339.2102406660249	339.56024257335355	342.50403690338135	4.11047101020813	[336.40150785446167, 336.5179419517517, 337.48736095428467, 337.6694037914276, 338.41986083984375, 338.5367398262024, 338.6536087989807, 338.77040100097656, 338.887069940567, 339.0039927959442, 339.1206748485565, 339.2375349998474, 339.35447883605957, 339.4711549282074, 339.58802485466003, 339.704815864563, 339.8213348388672, 339.9382219314575, 340.0549039840698, 340.1717429161072, 340.28858494758606, 340.50403594970703]	[336.4001685677846, 336.5168352344446, 337.4998352344446, 337.6665352344446, 338.4165352344446, 338.53320190110463, 338.64986856776466, 338.7665352344247, 338.8832019010847, 338.9998685677447, 339.11653523440475, 339.2332019010648, 339.3498685677248, 339.4665352343848, 339.58320190104484, 339.69986856770487, 339.8165352343649, 339.9332019010249, 340.04986856768494, 340.16653523434496, 340.283201901005, 340.51653523433833]	2021_Feb_10_1120	59.94089233143739	1	0.375
28	57	FALSE	NV	a	['R', 'P', 'V', 'G', 'U', 'N', 'W', 'X', 'Y', 'S', 'K', 'E', 'M', 'Z', 'C', 'J']	[1587, 1456, 2245, 944, 2059, 1335, 2448, 4000, 2670, 1731, 1122, 904, 1224, 2911, 829, 1029]	8	Present	NA	NA	PRESENT	0.3856279850006103	342.5110459327698	344.5097358226776	345.093076308535	345.44307821586364	348.620404958725	4.110669136047363	[342.5241539478302, 342.64107489585876, 343.6037290096283, 343.7756018638611, 344.5431308746338, 344.6431210041046, 344.7598388195038, 344.8767418861389, 344.99349093437195, 345.1102809906006, 345.2270679473877, 345.34403896331787, 345.4608738422394, 345.57741594314575, 345.69466495513916, 345.81106996536255, 345.9277558326721, 346.04457092285156, 346.161495923996, 346.27825379371643, 346.3950870037079, 346.62040400505066]	[342.51653523433833, 342.63320190099836, 343.61620190099836, 343.78290190099835, 344.53290190099835, 344.6495685676584, 344.7662352343184, 344.8829019009784, 344.99956856763845, 345.1162352342985, 345.2329019009585, 345.3495685676185, 345.46623523427854, 345.58290190093857, 345.6995685675986, 345.8162352342586, 345.93290190091864, 346.04956856757866, 346.1662352342387, 346.2829019008987, 346.39956856755873, 346.6329019008921]	2021_Feb_10_1120	59.94089233143739	1	0.375
28	58	FALSE	NN	a	['P', 'Y', 'N', 'U', 'T', 'E', 'Z', 'K', 'R', 'V', 'H', 'J', 'C', 'S', 'B', 'M']	[1456, 2670, 1335, 2059, 1888, 904, 2911, 1122, 1587, 2245, 986, 1029, 829, 1731, 760, 1224]	13	Absent	NA	NA	ABSENT	0.43800902366638184	348.61780881881714	350.6264250278473	351.7930986085861	352.14310051591474	354.7367708683014	4.110345840454102	[348.63091588020325, 348.7474069595337, 349.7201108932495, 349.89879989624023, 350.6494460105896, 350.76627683639526, 350.8830888271332, 350.999844789505, 351.1167118549347, 351.2334339618683, 351.350145816803, 351.4671378135681, 351.5839698314667, 351.7007908821106, 351.81738901138306, 351.9343538284302, 352.0510678291321, 352.1678419113159, 352.28465390205383, 352.40134501457214, 352.51814889907837, 352.7367699146271]	[348.6329019008921, 348.7495685675521, 349.7325685675521, 349.8992685675521, 350.6492685675521, 350.7659352342121, 350.88260190087215, 350.99926856753217, 351.1159352341922, 351.2326019008522, 351.34926856751224, 351.46593523417226, 351.5826019008323, 351.6992685674923, 351.81593523415233, 351.93260190081236, 352.0492685674724, 352.1659352341324, 352.28260190079243, 352.39926856745245, 352.5159352341125, 352.7492685674458]	2021_Feb_10_1120	59.94089233143739	1	0.375
28	59	FALSE	NV	a	['U', 'W', 'N', 'V', 'K', 'P', 'E', 'M', 'G', 'C', 'Z', 'X', 'A', 'J', 'T', 'H']	[2059, 2448, 1335, 2245, 1122, 1456, 904, 1224, 944, 829, 2911, 4000, 697, 1029, 1888, 986]	12	Present	NA	NA	PRESENT	0.3236091136932373	354.74072790145874	356.74261689186096	357.79262595170695	358.1426278590356	360.8531367778778	4.110519886016846	[354.75383591651917, 354.8707399368286, 355.8364608287811, 356.0222578048706, 356.7726399898529, 356.8893527984619, 357.00613379478455, 357.12297081947327, 357.2399139404297, 357.35671186447144, 357.4732608795166, 357.59008288383484, 357.7069659233093, 357.8236768245697, 357.9406387805939, 358.0572488307953, 358.174222946167, 358.29092383384705, 358.40771079063416, 358.5242929458618, 358.6244788169861, 358.8531367778778]	[354.7492685674458, 354.86593523410585, 355.84893523410585, 356.01563523410584, 356.76563523410584, 356.88230190076587, 356.9989685674259, 357.1156352340859, 357.23230190074594, 357.34896856740596, 357.465635234066, 357.582301900726, 357.69896856738603, 357.81563523404606, 357.9323019007061, 358.0489685673661, 358.1656352340261, 358.28230190068615, 358.3989685673462, 358.5156352340062, 358.6323019006662, 358.86563523399957]	2021_Feb_10_1120	59.94089233143739	1	0.375
28	60	FALSE	NV	a	['J', 'H', 'B', 'K', 'M', 'P', 'T', 'E', 'S', 'V', 'N', 'A', 'W', 'X', 'G', 'C']	[1029, 986, 760, 1122, 1224, 1456, 1888, 904, 1731, 2245, 1335, 697, 2448, 4000, 944, 829]	14	Present	NA	NA	PRESENT	0.27976012229919434	360.84705781936646	362.8590140342712	364.1423552353443	364.4923573810915	366.9695029258728	4.1104888916015625	[360.86016392707825, 360.97703099250793, 361.95282793045044, 362.12838196754456, 362.8789689540863, 362.995796918869, 363.11257886886597, 363.22927689552307, 363.3461298942566, 363.46289682388306, 363.5799238681793, 363.6965539455414, 363.8132598400116, 363.93020391464233, 364.0468728542328, 364.1637828350067, 364.2805759906769, 364.3973410129547, 364.51411390304565, 364.6308569908142, 364.74757981300354, 364.9695029258728]	[360.86563523399957, 360.9823019006596, 361.9653019006596, 362.1320019006596, 362.8820019006596, 362.9986685673196, 363.11533523397964, 363.23200190063966, 363.3486685672997, 363.4653352339597, 363.58200190061973, 363.69866856727975, 363.8153352339398, 363.9320019005998, 364.0486685672598, 364.16533523391985, 364.28200190057987, 364.3986685672399, 364.5153352338999, 364.63200190055994, 364.74866856721997, 364.9820019005533]	2021_Feb_10_1120	59.94089233143739	1	0.375
28	61	FALSE	AV	a	['B', 'T', 'C', 'K', 'P', 'H', 'surprise', 'G', 'S', 'X', 'Y', 'A', 'R', 'N', 'M', 'V']	[760, 1888, 829, 1122, 1456, 986, 'stimAuditory/all_stimAuditory/115.wav', 944, 1731, 4000, 2670, 697, 1587, 1335, 1224, 2245]	10	Present	stimAuditory/all_stimAuditory/117.wav	NA	PRESENT	0.38054394721984863	366.9705040454865	368.9751770496368	369.79185158406995	370.1418534913986	373.08586978912354	4.110692739486694	[366.983610868454, 367.1000428199768, 368.0691947937012, 368.2518699169159, 369.00214290618896, 369.1189339160919, 369.2355878353119, 369.3526518344879, 369.469269990921, 369.5862419605255, 369.7029929161072, 369.81962394714355, 369.936399936676, 370.0533039569855, 370.17006182670593, 370.2867088317871, 370.40369987487793, 370.52045488357544, 370.63712191581726, 370.7537579536438, 370.8705937862396, 371.0858688354492]	[366.9820019005533, 367.09866856721334, 368.08166856721334, 368.24836856721333, 368.99836856721333, 369.11503523387336, 369.2317019005334, 369.3483685671934, 369.4650352338534, 369.58170190051345, 369.6983685671735, 369.8150352338335, 369.9317019004935, 370.04836856715355, 370.16503523381357, 370.2817019004736, 370.3983685671336, 370.51503523379364, 370.63170190045366, 370.7483685671137, 370.8650352337737, 371.09836856710706]	2021_Feb_10_1120	59.94089233143739	1	0.375
28	62	FALSE	NV	a	['E', 'N', 'R', 'T', 'B', 'Z', 'Y', 'W', 'J', 'S', 'X', 'H', 'A', 'K', 'V', 'M']	[904, 1335, 1587, 1888, 760, 2911, 2670, 2448, 1029, 1731, 4000, 986, 697, 1122, 2245, 1224]	11	Present	NA	NA	PRESENT	0.6499590873718262	373.0932459831238	375.09168100357056	376.0250222046637	376.37502435041085	379.2022368907929	4.11055588722229	[373.1063528060913, 373.22332882881165, 374.18556094169617, 374.3576638698578, 375.12520480155945, 375.22533893585205, 375.34210300445557, 375.45886278152466, 375.575719833374, 375.6924479007721, 375.80938386917114, 375.92604184150696, 376.043016910553, 376.1596848964691, 376.2763760089874, 376.3933439254761, 376.5100648403168, 376.62724590301514, 376.74354791641235, 376.8605079650879, 376.9770748615265, 377.20223689079285]	[373.09836856710706, 373.2150352337671, 374.1980352337671, 374.3647352337671, 375.1147352337671, 375.2314019004271, 375.3480685670871, 375.46473523374715, 375.5814019004072, 375.6980685670672, 375.8147352337272, 375.93140190038724, 376.04806856704727, 376.1647352337073, 376.2814019003673, 376.39806856702734, 376.51473523368736, 376.6314019003474, 376.7480685670074, 376.86473523366743, 376.98140190032746, 377.2147352336608]	2021_Feb_10_1120	59.94089233143739	1	0.375
28	63	FALSE	NV	a	['B', 'K', 'H', 'N', 'T', 'S', 'U', 'V', 'M', 'X', 'E', 'A', 'P', 'J', 'W', 'R']	[760, 1122, 986, 1335, 1888, 1731, 2059, 2245, 1224, 4000, 904, 697, 1456, 1029, 2448, 1587]	10	Present	NA	NA	PRESENT	0.35047388076782227	379.19983983039856	381.20798087120056	382.02465469037793	382.3746565977066	385.31860399246216	4.110623121261597	[379.21294593811035, 379.32955598831177, 380.3019289970398, 380.4807620048523, 381.231565952301, 381.34841895103455, 381.46519684791565, 381.58264684677124, 381.69874382019043, 381.8155469894409, 381.9325067996979, 382.04910492897034, 382.16593194007874, 382.28268599510193, 382.3995668888092, 382.51647901535034, 382.63317584991455, 382.7500629425049, 382.86662197113037, 382.98340678215027, 383.1003818511963, 383.3186049461365]	[379.2147352336608, 379.3314019003208, 380.31440190032083, 380.4811019003208, 381.2311019003208, 381.34776856698085, 381.46443523364087, 381.5811019003009, 381.6977685669609, 381.81443523362094, 381.93110190028096, 382.047768566941, 382.164435233601, 382.28110190026104, 382.39776856692106, 382.5144352335811, 382.6311019002411, 382.74776856690113, 382.86443523356115, 382.9811019002212, 383.0977685668812, 383.33110190021455]	2021_Feb_10_1120	59.94089233143739	1	0.375
28	64	FALSE	NN	a	['H', 'Z', 'T', 'M', 'R', 'W', 'P', 'V', 'E', 'C', 'B', 'Y', 'S', 'U', 'J', 'A']	[986, 2911, 1888, 1224, 1587, 2448, 1456, 2245, 904, 829, 760, 2670, 1731, 2059, 1029, 697]	8	Absent	NA	NA	ABSENT	0.5317108631134033	385.3229749202728	387.3243818283081	387.9077232678398	388.2577251751685	391.4349708557129	4.110589027404785	[385.33608078956604, 385.45262479782104, 386.4182949066162, 386.60387992858887, 387.3550798892975, 387.47149181365967, 387.58834886550903, 387.70520782470703, 387.82200598716736, 387.9386088848114, 388.05544686317444, 388.1724338531494, 388.28914284706116, 388.4057879447937, 388.52258491516113, 388.63941192626953, 388.75634479522705, 388.8562788963318, 388.9730498790741, 389.08969283103943, 389.20653080940247, 389.4349699020386]	[385.33110190021455, 385.4477685668746, 386.4307685668746, 386.59746856687457, 387.34746856687457, 387.4641352335346, 387.5808019001946, 387.69746856685464, 387.81413523351466, 387.9308019001747, 388.0474685668347, 388.16413523349473, 388.28080190015476, 388.3974685668148, 388.5141352334748, 388.6308019001348, 388.74746856679485, 388.8641352334549, 388.9808019001149, 389.0974685667749, 389.21413523343494, 389.4474685667683]	2021_Feb_10_1120	59.94089233143739	1	0.375
28	65	FALSE	NA	a	['N', 'T', 'W', 'E', 'K', 'B', 'M', 'C', 'X', 'V', 'Z', 'R', 'J', 'G', 'P', 'Y']	[1335, 1888, 2448, 904, 1122, 760, 1224, 829, 4000, 2245, 2911, 1587, 1029, 944, 1456, 2670]	9	Present	NA	NA	PRESENT	0.32822203636169434	391.4293940067291	393.44073700904846	394.1407448768216	394.4907470225688	397.5513379573822	4.11060094833374	[391.44250082969666, 391.55907583236694, 392.5346598625183, 392.7105088233948, 393.4611167907715, 393.5779519081116, 393.69467091560364, 393.8115818500519, 393.9282808303833, 394.0451548099518, 394.1620888710022, 394.2786729335785, 394.39541578292847, 394.5121510028839, 394.62912583351135, 394.7457649707794, 394.8626790046692, 394.9794969558716, 395.09625792503357, 395.2130010128021, 395.32974791526794, 395.5513370037079]	[391.4474685667683, 391.5641352334283, 392.5471352334283, 392.7138352334283, 393.4638352334283, 393.58050190008834, 393.69716856674836, 393.8138352334084, 393.9305019000684, 394.04716856672843, 394.16383523338845, 394.2805019000485, 394.3971685667085, 394.5138352333685, 394.63050190002855, 394.7471685666886, 394.8638352333486, 394.9805019000086, 395.09716856666864, 395.21383523332867, 395.3305018999887, 395.56383523332204]	2021_Feb_10_1120	59.94089233143739	1	0.375
28	66	FALSE	NA	a	['C', 'N', 'P', 'A', 'W', 'J', 'G', 'E', 'U', 'X', 'Z', 'B', 'R', 'Y', 'M', 'V']	[829, 1335, 1456, 697, 2448, 1029, 944, 904, 2059, 4000, 2911, 760, 1587, 2670, 1224, 2245]	10	Present	NA	NA	PRESENT	0.1089329719543457	397.5527420043946	399.557049036026	400.3737235704591	400.72372452411344	403.6677038669586	4.110654830932617	[397.56584787368774, 397.6821279525757, 398.6510248184204, 398.8334138393402, 399.5840427875519, 399.700936794281, 399.81793999671936, 399.93456196784973, 400.05146980285645, 400.1682858467102, 400.28502893447876, 400.4016909599304, 400.5186049938202, 400.63529682159424, 400.7521939277649, 400.86908292770386, 400.98576498031616, 401.1024558544159, 401.2194459438324, 401.33614587783813, 401.45287680625916, 401.6677038669586]	[397.56383523332204, 397.68050189998206, 398.66350189998207, 398.83020189998206, 399.58020189998206, 399.6968685666421, 399.8135352333021, 399.9302018999621, 400.04686856662215, 400.1635352332822, 400.2802018999422, 400.3968685666022, 400.51353523326225, 400.63020189992227, 400.7468685665823, 400.8635352332423, 400.98020189990234, 401.09686856656236, 401.2135352332224, 401.3302018998824, 401.44686856654243, 401.6802018998758]	2021_Feb_10_1120	59.94089233143739	1	0.375
28	67	FALSE	NA	a	['C', 'A', 'M', 'V', 'J', 'K', 'Y', 'U', 'R', 'T', 'X', 'P', 'Z', 'B', 'S', 'N']	[829, 697, 1224, 2245, 1029, 1122, 2670, 2059, 1587, 1888, 4000, 1456, 2911, 760, 1731, 1335]	11	Present	NA	NA	PRESENT	0.2260591983795166	403.6755700111389	405.6734998226166	406.6068412621283	406.9568431694569	409.7840700149536	4.110570192337036	[403.68867588043213, 403.805547952652, 404.76739478111267, 404.93989300727844, 405.70732498168945, 405.8074598312378, 405.9242789745331, 406.04095792770386, 406.15776085853577, 406.27453684806824, 406.3915569782257, 406.5082538127899, 406.62534284591675, 406.74186301231384, 406.8585078716278, 406.97553396224976, 407.0921678543091, 407.20911288261414, 407.3257339000702, 407.4426779747009, 407.5592370033264, 407.78407096862793]	[403.6802018998758, 403.7968685665358, 404.7798685665358, 404.9465685665358, 405.6965685665358, 405.8132352331958, 405.92990189985585, 406.0465685665159, 406.1632352331759, 406.2799018998359, 406.39656856649594, 406.51323523315597, 406.629901899816, 406.746568566476, 406.86323523313604, 406.97990189979606, 407.0965685664561, 407.2132352331161, 407.32990189977613, 407.44656856643616, 407.5632352330962, 407.7965685664295]	2021_Feb_10_1120	59.94089233143739	1	0.375
28	68	FALSE	VA	a	['U', 'J', 'R', 'M', 'N', 'surprise', 'W', 'Z', 'X', 'E', 'B', 'G', 'S', 'A', 'C', 'Y']	[2059, 1029, 1587, 1224, 1335, 'stimAuditory/all_stimAuditory/111.wav', 2448, 2911, 4000, 904, 760, 944, 1731, 697, 829, 2670]	9	Present	NA	NA	PRESENT	0.17460203170776367	409.7820339202881	411.7898728847504	412.48988003726777	412.8398828982707	415.90043687820435	4.1105639934539795	[409.7951409816742, 409.91178798675537, 410.883761882782, 411.06316781044006, 411.8135988712311, 411.930428981781, 412.04733896255493, 412.16406178474426, 412.280916929245, 412.3979079723358, 412.51449179649353, 412.6313338279724, 412.7481849193573, 412.86502480506897, 412.98168992996216, 413.09876585006714, 413.2155029773712, 413.3321738243103, 413.4488959312439, 413.56569600105286, 413.6824059486389, 413.90043783187866]	[409.7965685664295, 409.91323523308955, 410.89623523308956, 411.06293523308955, 411.81293523308955, 411.92960189974957, 412.0462685664096, 412.1629352330696, 412.27960189972964, 412.39626856638967, 412.5129352330497, 412.6296018997097, 412.74626856636974, 412.86293523302976, 412.9796018996898, 413.0962685663498, 413.21293523300983, 413.32960189966985, 413.4462685663299, 413.5629352329899, 413.6796018996499, 413.9129352329833]	2021_Feb_10_1120	59.94089233143739	1	0.375
28	69	FALSE	NV	a	['W', 'N', 'Z', 'M', 'B', 'Y', 'H', 'E', 'S', 'T', 'K', 'V', 'X', 'C', 'J', 'A']	[2448, 1335, 2911, 1224, 760, 2670, 986, 904, 1731, 1888, 1122, 2245, 4000, 829, 1029, 697]	13	Present	NA	NA	PRESENT	0.1959989070892334	415.9050168991089	417.90623593330383	419.07291070613553	419.4229126134642	422.016804933548	4.110569000244141	[415.918123960495, 416.0348768234253, 417.0001268386841, 417.1866068840027, 417.9368829727173, 418.0535190105438, 418.17053985595703, 418.2872359752655, 418.40398597717285, 418.5207839012146, 418.6376688480377, 418.75436878204346, 418.8712058067322, 418.98798084259033, 419.10499596595764, 419.204794883728, 419.32158184051514, 419.4383227825165, 419.55521297454834, 419.67200899124146, 419.7887079715729, 420.016804933548]	[415.9129352329833, 416.0296018996433, 417.0126018996433, 417.1793018996433, 417.9293018996433, 418.0459685663033, 418.16263523296334, 418.27930189962336, 418.3959685662834, 418.5126352329434, 418.62930189960343, 418.74596856626346, 418.8626352329235, 418.9793018995835, 419.0959685662435, 419.21263523290355, 419.3293018995636, 419.4459685662236, 419.5626352328836, 419.67930189954365, 419.79596856620367, 420.029301899537]	2021_Feb_10_1120	59.94089233143739	1	0.375
28	70	FALSE	NA	a	['K', 'U', 'E', 'G', 'R', 'N', 'J', 'T', 'H', 'C', 'X', 'M', 'A', 'S', 'V', 'B']	[1122, 2059, 904, 944, 1587, 1335, 1029, 1888, 986, 829, 4000, 1224, 697, 1731, 2245, 760]	11	Present	NA	NA	PRESENT	0.42443108558654785	422.01131200790405	424.0224578380585	424.9557992775702	425.3058011848988	428.1331698894501	4.110712051391602	[422.0244188308716, 422.1411769390106, 423.1164929866791, 423.29246282577515, 424.0431869029999, 424.1601297855377, 424.2769467830658, 424.39366388320923, 424.5104010105133, 424.627338886261, 424.7441189289093, 424.8609437942505, 424.97767996788025, 425.0946238040924, 425.211138010025, 425.3280818462372, 425.4448518753052, 425.56173181533813, 425.6783459186554, 425.795108795166, 425.91197681427, 426.1331708431244]	[422.029301899537, 422.14596856619704, 423.12896856619705, 423.29566856619704, 424.04566856619704, 424.16233523285706, 424.2790018995171, 424.3956685661771, 424.51233523283713, 424.62900189949715, 424.7456685661572, 424.8623352328172, 424.9790018994772, 425.09566856613725, 425.2123352327973, 425.3290018994573, 425.4456685661173, 425.56233523277734, 425.67900189943737, 425.7956685660974, 425.9123352327574, 426.14566856609076]	2021_Feb_10_1120	59.94089233143739	1	0.375
28	71	FALSE	NA	a	['U', 'B', 'T', 'H', 'Y', 'C', 'M', 'A', 'P', 'X', 'V', 'S', 'N', 'R', 'Z', 'K']	[2059, 760, 1888, 986, 2670, 829, 1224, 697, 1456, 4000, 2245, 1731, 1335, 1587, 2911, 1122]	10	Present	NA	NA	PRESENT	0.27726292610168457	428.1347539424896	430.139063835144	430.9557376543214	431.30573956165006	434.2495379447937	4.110474109649658	[428.14786100387573, 428.2644989490509, 429.23287200927734, 429.41563987731934, 430.1663019657135, 430.2832419872284, 430.3999779224396, 430.51672291755676, 430.63361287117004, 430.7504358291626, 430.8670949935913, 430.9839129447937, 431.1009199619293, 431.21762585639954, 431.33447098731995, 431.4511079788208, 431.5679349899292, 431.6848328113556, 431.8016629219055, 431.91823291778564, 432.03523778915405, 432.2495379447937]	[428.14566856609076, 428.2623352327508, 429.2453352327508, 429.4120352327508, 430.1620352327508, 430.2787018994108, 430.39536856607083, 430.51203523273085, 430.6287018993909, 430.7453685660509, 430.8620352327109, 430.97870189937095, 431.09536856603097, 431.212035232691, 431.328701899351, 431.44536856601104, 431.56203523267106, 431.6787018993311, 431.7953685659911, 431.91203523265114, 432.02870189931116, 432.2620352326445]	2021_Feb_10_1120	59.94089233143739	1	0.375
28	72	FALSE	NA	a	['R', 'T', 'N', 'P', 'S', 'C', 'M', 'X', 'Y', 'G', 'H', 'A', 'B', 'E', 'W', 'V']	[1587, 1888, 1335, 1456, 1731, 829, 1224, 4000, 2670, 944, 986, 697, 760, 904, 2448, 2245]	8	Present	NA	NA	PRESENT	0.31421709060668945	434.25751304626465	436.2552268505096	436.83856829004134	437.18857019737	440.3659038543701	4.110677003860474	[434.2706198692322, 434.387482881546, 435.3492259979248, 435.5220239162445, 436.28970289230347, 436.3895618915558, 436.5062909126282, 436.623242855072, 436.74011492729187, 436.85685181617737, 436.9735209941864, 437.09034395217896, 437.2070438861847, 437.3240649700165, 437.44087195396423, 437.5576608181, 437.6746017932892, 437.7912027835846, 437.9079098701477, 438.0248568058014, 438.14148592948914, 438.3659038543701]	[434.2620352326445, 434.37870189930453, 435.36170189930453, 435.5284018993045, 436.2784018993045, 436.39506856596455, 436.5117352326246, 436.6284018992846, 436.7450685659446, 436.86173523260464, 436.97840189926467, 437.0950685659247, 437.2117352325847, 437.32840189924474, 437.44506856590476, 437.5617352325648, 437.6784018992248, 437.79506856588483, 437.91173523254486, 438.0284018992049, 438.1450685658649, 438.37840189919825]	2021_Feb_10_1120	59.94089233143739	1	0.375
28	73	FALSE	VV	a	['Y', 'H', 'T', 'G', 'Z', 'R', 'B', 'E', 'surprise', 'V', 'A', 'X', 'P', 'S', 'U', 'J']	[2670, 986, 1888, 944, 2911, 1587, 760, 904, 'stimAuditory/all_stimAuditory/205.wav', 2245, 697, 4000, 1456, 1731, 2059, 1029]	12	Present	NA	NA	PRESENT	0.5908048152923584	440.3641219139099	442.3716449737549	443.421652841508	443.7716540335809	446.48227095603943	4.110625982284546	[440.37723994255066, 440.493999004364, 441.46559286117554, 441.6450369358063, 442.39587593078613, 442.5128438472748, 442.6294219493866, 442.74670696258545, 442.86302495002747, 442.98001980781555, 443.0966238975525, 443.2139558792114, 443.33026599884033, 443.4470579624176, 443.5638129711151, 443.68073296546936, 443.79760098457336, 443.9144208431244, 444.0311257839203, 444.1479799747467, 444.26476883888245, 444.48227095603943]	[440.37840189919825, 440.4950685658583, 441.4780685658583, 441.64476856585827, 442.39476856585827, 442.5114352325183, 442.6281018991783, 442.74476856583834, 442.86143523249837, 442.9781018991584, 443.0947685658184, 443.21143523247844, 443.32810189913846, 443.4447685657985, 443.5614352324585, 443.67810189911853, 443.79476856577855, 443.9114352324386, 444.0281018990986, 444.1447685657586, 444.26143523241865, 444.494768565752]	2021_Feb_10_1120	59.94089233143739	1	0.375
28	74	FALSE	NN	a	['K', 'E', 'U', 'N', 'Z', 'S', 'R', 'Y', 'G', 'C', 'A', 'H', 'W', 'B', 'J', 'T']	[1122, 904, 2059, 1335, 2911, 1731, 1587, 2670, 944, 829, 697, 986, 2448, 760, 1029, 1888]	11	Absent	NA	NA	ABSENT	0.4122898578643799	446.4871950149536	448.4880230426788	449.421364243772	449.77136615110055	452.59863781929016	4.110614776611328	[446.50030183792114, 446.61714792251587, 447.58196091651917, 447.7686038017273, 448.51925683021545, 448.63588190078735, 448.7526710033417, 448.86951088905334, 448.9863438606262, 449.10289788246155, 449.2198269367218, 449.33657598495483, 449.4535028934479, 449.5533390045166, 449.670206785202, 449.7870328426361, 449.90377593040466, 450.02061200141907, 450.13740491867065, 450.25413393974304, 450.3710148334503, 450.59863686561584]	[446.494768565752, 446.611435232412, 447.594435232412, 447.761135232412, 448.511135232412, 448.62780189907204, 448.74446856573206, 448.8611352323921, 448.9778018990521, 449.09446856571213, 449.21113523237216, 449.3278018990322, 449.4444685656922, 449.5611352323522, 449.67780189901225, 449.7944685656723, 449.9111352323323, 450.0278018989923, 450.14446856565235, 450.26113523231237, 450.3778018989724, 450.61113523230574]	2021_Feb_10_1120	59.94089233143739	1	0.375
28	75	FALSE	NV	a	['R', 'Z', 'P', 'G', 'H', 'W', 'A', 'Y', 'U', 'V', 'X', 'B', 'T', 'J', 'E', 'M']	[1587, 2911, 1456, 944, 986, 2448, 697, 2670, 2059, 2245, 4000, 760, 1888, 1029, 904, 1224]	11	Present	NA	NA	PRESENT	0.24870014190673828	452.5936508178711	454.6043548583984	455.53769629791014	455.88769820523873	458.7150039672851	4.110649108886719	[452.6067578792572, 452.72341895103455, 453.6983289718628, 453.8748548030853, 454.6255350112915, 454.74254179000854, 454.8591728210449, 454.975870847702, 455.0926787853241, 455.2094669342041, 455.3263189792633, 455.44290590286255, 455.55977296829224, 455.6765329837799, 455.79335594177246, 455.91026401519775, 456.0270278453827, 456.14368295669556, 456.26051592826843, 456.37720680236816, 456.4942479133606, 456.7150049209595]	[452.61113523230574, 452.72780189896577, 453.71080189896577, 453.87750189896576, 454.62750189896576, 454.7441685656258, 454.8608352322858, 454.97750189894583, 455.09416856560586, 455.2108352322659, 455.3275018989259, 455.4441685655859, 455.56083523224595, 455.677501898906, 455.794168565566, 455.910835232226, 456.02750189888604, 456.14416856554607, 456.2608352322061, 456.3775018988661, 456.49416856552614, 456.7275018988595]	2021_Feb_10_1120	59.94089233143739	1	0.375
28	76	FALSE	NV	a	['R', 'T', 'A', 'M', 'S', 'E', 'G', 'B', 'P', 'U', 'N', 'H', 'Z', 'X', 'W', 'J']	[1587, 1888, 697, 1224, 1731, 904, 944, 760, 1456, 2059, 1335, 986, 2911, 4000, 2448, 1029]	14	Present	NA	NA	PRESENT	0.52526092529296875	458.7170889377594	460.7209038734436	462.00424531293527	462.3542472202639	464.8313698768616	4.110466003417969	[458.7301959991455, 458.84665179252625, 459.8146958351135, 459.99786400794983, 460.7485439777374, 460.8653998374939, 460.98219990730286, 461.0989079475403, 461.2157859802246, 461.3324718475342, 461.449373960495, 461.56615591049194, 461.68294286727905, 461.7997169494629, 461.91667079925537, 462.03333377838135, 462.15011382102966, 462.267009973526, 462.3838038444519, 462.50049686431885, 462.6174039840698, 462.8313708305359]	[458.7275018988595, 458.8441685655195, 459.8271685655195, 459.9938685655195, 460.7438685655195, 460.86053523217953, 460.97720189883955, 461.0938685654996, 461.2105352321596, 461.3272018988196, 461.44386856547965, 461.56053523213967, 461.6772018987997, 461.7938685654597, 461.91053523211974, 462.02720189877977, 462.1438685654398, 462.2605352320998, 462.37720189875984, 462.49386856541986, 462.6105352320799, 462.84386856541323]	2021_Feb_10_1120	59.94089233143739	1	0.375
28	77	FALSE	NV	a	['V', 'T', 'R', 'C', 'B', 'G', 'P', 'Y', 'K', 'M', 'X', 'N', 'E', 'Z', 'S', 'J']	[2245, 1888, 1587, 829, 760, 944, 1456, 2670, 1122, 1224, 4000, 1335, 904, 2911, 1731, 1029]	11	Present	NA	NA	PRESENT	0.37844300270080566	464.8398869037628	466.8371579647064	467.7704991657995	468.1205013115467	470.9477379322052	4.110579967498779	[464.85299491882324, 464.9529049396515, 465.9310607910156, 466.104140996933, 466.8549017906189, 466.9718539714813, 467.0883958339691, 467.20541977882385, 467.3220639228821, 467.4390368461609, 467.5556409358978, 467.6725778579712, 467.7892220020294, 467.90599489212036, 468.02283787727356, 468.13976883888245, 468.25646901130676, 468.37333488464355, 468.4901030063629, 468.6070189476013, 468.7239718437195, 468.9477379322052]	[464.84386856541323, 464.96053523207325, 465.94353523207326, 466.11023523207325, 466.86023523207325, 466.9769018987333, 467.0935685653933, 467.2102352320533, 467.32690189871334, 467.44356856537337, 467.5602352320334, 467.6769018986934, 467.79356856535344, 467.91023523201346, 468.0269018986735, 468.1435685653335, 468.26023523199353, 468.37690189865356, 468.4935685653136, 468.6102352319736, 468.7269018986336, 468.960235231967]	2021_Feb_10_1120	59.94089233143739	1	0.375
28	78	FALSE	NV	a	['S', 'C', 'G', 'W', 'K', 'N', 'H', 'V', 'E', 'T', 'B', 'Y', 'M', 'X', 'J', 'R']	[1731, 829, 944, 2448, 1122, 1335, 986, 2245, 904, 1888, 760, 2670, 1224, 4000, 1029, 1587]	14	Present	NA	NA	PRESENT	0.335338830947876	470.9462659358978	472.95384192466736	474.237183364159	474.58718527148767	477.0641038417816	4.110261917114258	[470.95937180519104, 471.0762388706207, 472.04742884635925, 472.22723293304443, 472.97808384895325, 473.09501695632935, 473.212201833725, 473.32854199409485, 473.44526982307434, 473.5621249675751, 473.6789479255676, 473.79572081565857, 473.9125428199768, 474.0291759967804, 474.14607977867126, 474.26278281211853, 474.3796639442444, 474.4964950084686, 474.61328983306885, 474.7299039363861, 474.84686279296875, 475.0641028881073]	[470.960235231967, 471.076901898627, 472.059901898627, 472.226601898627, 472.976601898627, 473.093268565287, 473.20993523194704, 473.32660189860707, 473.4432685652671, 473.5599352319271, 473.67660189858714, 473.79326856524716, 473.9099352319072, 474.0266018985672, 474.14326856522723, 474.25993523188725, 474.3766018985473, 474.4932685652073, 474.6099352318673, 474.72660189852735, 474.8432685651874, 475.0766018985207]	2021_Feb_10_1120	59.94089233143739	1	0.375
28	79	FALSE	NA	a	['K', 'R', 'M', 'S', 'J', 'C', 'Z', 'B', 'E', 'A', 'N', 'Y', 'V', 'X', 'T', 'U']	[1122, 1587, 1224, 1731, 1029, 829, 2911, 760, 904, 697, 1335, 2670, 2245, 4000, 1888, 2059]	14	Present	NA	NA	PRESENT	0.5245871543884277	477.069344997406	479.06978392601013	480.3531253655018	480.7031272728304	483.1804699897766	4.1106860637664795	[477.08245182037354, 477.19919991493225, 478.16379380226135, 478.35034680366516, 479.1016798019409, 479.2181279659271, 479.33491492271423, 479.45165181159973, 479.5684049129486, 479.66828298568726, 479.785071849823, 479.90187096595764, 480.0187339782715, 480.13557291030884, 480.25230884552, 480.369167804718, 480.48596596717834, 480.60269498825073, 480.7195258140564, 480.8363628387451, 480.95319390296936, 481.1804699897766]	[477.0766018985207, 477.19326856518074, 478.17626856518075, 478.34296856518074, 479.09296856518074, 479.20963523184076, 479.3263018985008, 479.4429685651608, 479.55963523182083, 479.67630189848086, 479.7929685651409, 479.9096352318009, 480.02630189846093, 480.14296856512095, 480.259635231781, 480.376301898441, 480.492968565101, 480.60963523176105, 480.72630189842107, 480.8429685650811, 480.9596352317411, 481.19296856507447]	2021_Feb_10_1120	59.94089233143739	1	0.375
