participant	trial_num	practice	task	condition	RSVP	RAP	probePos	probe_presence	surprise_sound	surprise_img	probe_response	probe_resp_time	first_fixation_time	trial_start_time	surprise_start_time	probe_start_time	trial_end_time	trial_duration	actualEventTimes	plannedEventTimes	date	framerate	marker_vol	RAP_vol
24	1	FALSE	NA	a	['E', 'B', 'W', 'G', 'Y', 'M', 'K', 'H', 'S', 'C', 'A', 'T', 'X', 'P', 'Z', 'V']	[904, 760, 2448, 944, 2670, 1224, 1122, 986, 1731, 829, 697, 1888, 4000, 1456, 2911, 2245]	13	Present	NA	NA	PRESENT	0.23394012451171875	2.86102294921875e-6	1.989995002746582	3.1566716829269046	3.5066726365812206	6.1038689613342285	4.1138739585876465	[0.01995706558227539, 0.1199789047241211, 1.087191104888916, 1.271162986755371, 2.0221450328826904, 2.138840913772583, 2.255711078643799, 2.3725109100341797, 2.489237070083618, 2.6060950756073, 2.722784996032715, 2.8397319316864014, 2.9563961029052734, 3.0732789039611816, 3.1899399757385254, 3.306692123413086, 3.423480987548828, 3.540463924407959, 3.6572279930114746, 3.774132013320923, 3.8908329010009766, 4.1038689613342285]	[9.5367431640625e-07, 0.11666762033431641, 1.0996676203343163, 1.2663676203343164, 2.016367620334316, 2.133034286994316, 2.249700953654316, 2.3663676203143162, 2.4830342869743163, 2.5997009536343163, 2.7163676202943163, 2.8330342869543164, 2.9497009536143164, 3.0663676202743164, 3.1830342869343164, 3.2997009535943165, 3.4163676202543165, 3.5330342869143165, 3.6497009535743166, 3.7663676202343166, 3.8830342868943166, 4.11636762022765]	2021_Feb_04_1530	59.93481097039058	1	0.375
24	2	FALSE	NA	a	['P', 'M', 'H', 'B', 'C', 'A', 'S', 'Y', 'J', 'G', 'R', 'U', 'K', 'X', 'Z', 'E']	[1456, 1224, 986, 760, 829, 697, 1731, 2670, 1029, 944, 1587, 2059, 1122, 4000, 2911, 904]	14	Present	NA	NA	PRESENT	0.5916430950164795	6.08971905708313	8.102813959121704	9.386155398613392	9.73615635226771	12.22023606300354	4.117422103881836	[6.109673023223877, 6.226498126983643, 7.203557968139648, 7.377859115600586, 8.128467082977295, 8.245429039001465, 8.36230206489563, 8.478960990905762, 8.59582805633545, 8.712541103363037, 8.829456090927124, 8.946063041687012, 9.06306505203247, 9.179754972457886, 9.29629111289978, 9.413376092910767, 9.52991795539856, 9.646943092346191, 9.763705015182495, 9.88061809539795, 9.99716305732727, 10.22023606300354]	[6.11636762022765, 6.23303428688765, 7.216034286887649, 7.382734286887649, 8.132734286887649, 8.24940095354765, 8.36606762020765, 8.48273428686765, 8.59940095352765, 8.716067620187651, 8.832734286847652, 8.949400953507652, 9.066067620167653, 9.182734286827653, 9.299400953487654, 9.416067620147654, 9.532734286807655, 9.649400953467655, 9.766067620127656, 9.882734286787656, 9.999400953447656, 10.232734286780989]	2021_Feb_04_1530	59.93481097039058	1	0.375
24	3	FALSE	NA	a	['C', 'E', 'G', 'W', 'T', 'B', 'R', 'V', 'Z', 'X', 'H', 'M', 'J', 'N', 'Y', 'A']	[829, 904, 944, 2448, 1888, 760, 1587, 2245, 2911, 4000, 986, 1224, 1029, 1335, 2670, 697]	10	Present	NA	NA	PRESENT	0.32441115379333496	12.212864875793455	14.21931505203247	15.035988632791264	15.385990540119897	18.336601972579956	4.117286920547485	[12.232819080352783, 12.349678993225098, 13.319922924041748, 13.501024007797241, 14.252182006835938, 14.36870789527893, 14.485183000564575, 14.602210998535156, 14.718845129013062, 14.835707902908325, 14.95253300666809, 15.069299936294556, 15.185921907424927, 15.302876949310303, 15.419725894927979, 15.5365309715271, 15.653342008590698, 15.769962072372437, 15.886804103851318, 16.003725051879883, 16.12033700942993, 16.336601972579956]	[12.232734286780989, 12.34940095344099, 13.33240095344099, 13.49910095344099, 14.24910095344099, 14.365767620100991, 14.482434286760991, 14.599100953420992, 14.715767620080992, 14.832434286740993, 14.949100953400993, 15.065767620060994, 15.182434286720994, 15.299100953380995, 15.415767620040995, 15.532434286700996, 15.649100953360996, 15.765767620020997, 15.882434286680997, 15.999100953340998, 16.115767620000998, 16.349100953334332]	2021_Feb_04_1530	59.93481097039058	1	0.375
24	4	FALSE	NV	a	['T', 'S', 'W', 'M', 'Y', 'P', 'A', 'R', 'X', 'J', 'N', 'C', 'U', 'Z', 'H', 'G']	[1888, 1731, 2448, 1224, 2670, 1456, 697, 1587, 4000, 1029, 1335, 829, 2059, 2911, 986, 944]	9	Present	NA	NA	PRESENT	0.3056180477142334	18.336068868637085	20.335617065429688	21.03562397952848	21.385625886857113	24.452969074249268	4.11735200881958	[18.35602307319641, 18.473001956939697, 19.436290979385376, 19.624006986618042, 20.375231981277466, 20.474971055984497, 20.591721057891846, 20.70851707458496, 20.825338125228882, 20.94208312034607, 21.05880308151245, 21.175602912902832, 21.29240608215332, 21.40931797027588, 21.52621102333069, 21.643028020858765, 21.759753942489624, 21.876415967941284, 21.993312120437622, 22.110109090805054, 22.226826906204224, 22.452969074249268]	[18.349100953334332, 18.46576761999433, 19.44876761999433, 19.61546761999433, 20.36546761999433, 20.48213428665433, 20.598800953314328, 20.715467619974326, 20.832134286634325, 20.948800953294324, 21.065467619954322, 21.18213428661432, 21.29880095327432, 21.41546761993432, 21.532134286594317, 21.648800953254316, 21.765467619914315, 21.882134286574313, 21.998800953234312, 22.11546761989431, 22.23213428655431, 22.465467619887644]	2021_Feb_04_1530	59.93481097039058	1	0.375
24	5	FALSE	NA	a	['N', 'G', 'V', 'J', 'K', 'H', 'B', 'P', 'Y', 'Z', 'X', 'C', 'U', 'R', 'S', 'W']	[1335, 944, 2245, 1029, 1122, 986, 760, 1456, 2670, 2911, 4000, 829, 2059, 1587, 1731, 2448]	11	Present	NA	NA	PRESENT	0.4782900810241699	24.44291090965271	26.45182704925537	27.385167296674165	27.7351692040028	30.5693359375	4.117508888244629	[24.462865114212036, 24.579514026641846, 25.552658081054688, 25.730747938156128, 26.48143696784973, 26.598134994506836, 26.715128898620605, 26.831680059432983, 26.94875192642212, 27.065547943115234, 27.182006120681763, 27.299055099487305, 27.415568113327026, 27.532655954360962, 27.64932608604431, 27.766021013259888, 27.882787942886353, 27.999690055847168, 28.116398096084595, 28.233309030532837, 28.34998893737793, 28.569337129592896]	[24.465467619887644, 24.582134286547642, 25.565134286547643, 25.73183428654764, 26.48183428654764, 26.59850095320764, 26.71516761986764, 26.831834286527638, 26.948500953187636, 27.065167619847635, 27.181834286507634, 27.298500953167633, 27.41516761982763, 27.53183428648763, 27.64850095314763, 27.765167619807627, 27.881834286467626, 27.998500953127625, 28.115167619787623, 28.231834286447622, 28.34850095310762, 28.581834286440955]	2021_Feb_04_1530	59.93481097039058	1	0.375
24	6	FALSE	VV	a	['J', 'A', 'U', 'K', 'G', 'M', 'V', 'C', 'B', 'H', 'surprise', 'P', 'T', 'X', 'E', 'N']	[1029, 697, 2059, 1122, 944, 1224, 2245, 829, 760, 986, 'stimAuditory/all_stimAuditory/202.wav', 1456, 1888, 4000, 904, 1335]	14	Present	NA	NA	PRESENT	0.4665820598602295	30.565770864486694	32.56828999519348	33.85163024259228	34.20163238833949	36.68570303916931	4.11741304397583	[30.58572506904602, 30.702660083770752, 31.66902804374695, 31.853806018829346, 32.60459589958191, 32.72151589393616, 32.83805704116821, 32.95491003990173, 33.07188105583191, 33.188560962677, 33.305448055267334, 33.42200589179993, 33.53871011734009, 33.655725955963135, 33.772557973861694, 33.88927698135376, 34.0060670375824, 34.12304711341858, 34.23958706855774, 34.35638999938965, 34.47335505485535, 34.68570303916931]	[30.581834286440955, 30.698500953100954, 31.681500953100954, 31.848200953100953, 32.59820095310096, 32.71486761976096, 32.83153428642096, 32.94820095308096, 33.064867619740966, 33.18153428640097, 33.29820095306097, 33.41486761972097, 33.531534286380975, 33.64820095304098, 33.76486761970098, 33.88153428636098, 33.998200953020984, 34.114867619680986, 34.23153428634099, 34.34820095300099, 34.46486761966099, 34.69820095299433]	2021_Feb_04_1530	59.93481097039058	1	0.375
24	7	FALSE	NA	a	['U', 'T', 'Y', 'J', 'P', 'R', 'V', 'X', 'E', 'Z', 'A', 'H', 'N', 'M', 'C', 'G']	[2059, 1888, 2670, 1029, 1456, 1587, 2245, 4000, 904, 2911, 697, 986, 1335, 1224, 829, 944]	8	Present	NA	NA	PRESENT	0.4960818290710449	36.67245602607727	38.68467903137207	39.26802023248518	39.61802237823239	42.80206990242005	4.117390871047974	[36.69240999221802, 36.80914306640625, 37.78539204597473, 37.96037197113037, 38.711036920547485, 38.82783508300781, 38.944828033447266, 39.0615119934082, 39.17836308479309, 39.29517197608948, 39.41176795959473, 39.52875304222107, 39.64534091949463, 39.76202702522278, 39.878796100616455, 39.9958279132843, 40.112459897994995, 40.229366064071655, 40.34608197212219, 40.46301293373108, 40.57964897155762, 40.80206894874573]	[36.69820095299433, 36.81486761965433, 37.797867619654326, 37.964567619654325, 38.714567619654325, 38.83123428631433, 38.94790095297433, 39.06456761963433, 39.181234286294334, 39.297900952954336, 39.41456761961434, 39.53123428627434, 39.64790095293434, 39.764567619594345, 39.88123428625435, 39.99790095291435, 40.11456761957435, 40.231234286234354, 40.347900952894356, 40.46456761955436, 40.58123428621436, 40.814567619547695]	2021_Feb_04_1530	59.93481097039058	1	0.375
24	8	FALSE	NN	a	['V', 'M', 'S', 'E', 'P', 'C', 'T', 'A', 'Y', 'W', 'R', 'U', 'J', 'K', 'H', 'N']	[2245, 1224, 1731, 904, 1456, 829, 1888, 697, 2670, 2448, 1587, 2059, 1029, 1122, 986, 1335]	12	Absent	NA	NA	ABSENT	0.4365839958190918	42.79558300971985	44.8009979724884	45.85100584024151	46.20100798598872	48.91843605041504	4.117438077926636	[42.81553602218628, 42.9322190284729, 43.90176296234131, 44.08367896080017, 44.8342399597168, 44.951098918914795, 45.06770205497742, 45.18468999862671, 45.3012809753418, 45.418100118637085, 45.53501296043396, 45.65181612968445, 45.76848793029785, 45.88524007797241, 46.002243995666504, 46.1188850402832, 46.23564600944519, 46.35236597061157, 46.46919798851013, 46.586236000061035, 46.70301294326782, 46.918437004089355]	[42.814567619547695, 42.9312342862077, 43.914234286207694, 44.08093428620769, 44.83093428620769, 44.947600952867695, 45.0642676195277, 45.1809342861877, 45.2976009528477, 45.414267619507704, 45.53093428616771, 45.64760095282771, 45.76426761948771, 45.88093428614771, 45.997600952807716, 46.11426761946772, 46.23093428612772, 46.34760095278772, 46.464267619447725, 46.58093428610773, 46.69760095276773, 46.93093428610106]	2021_Feb_04_1530	59.93481097039058	1	0.375
24	9	FALSE	NV	a	['N', 'B', 'Y', 'W', 'R', 'C', 'M', 'J', 'K', 'A', 'U', 'X', 'Z', 'P', 'V', 'S']	[1335, 760, 2670, 2448, 1587, 829, 1224, 1029, 1122, 697, 2059, 4000, 2911, 1456, 2245, 1731]	12	Present	NA	NA	PRESENT	0.4098820686340332	48.91859483718872	50.91724705696106	51.96725492471417	52.317255878368485	55.03480291366577	4.117555856704712	[48.938570976257324, 49.0555260181427, 50.01812696456909, 50.18976807594299, 50.95743012428284, 51.05739998817444, 51.17415809631348, 51.291117906570435, 51.40803599357605, 51.52471995353699, 51.641541957855225, 51.75833201408386, 51.87515711784363, 51.99187707901001, 52.10845112800598, 52.22544598579407, 52.34208798408508, 52.45905900001526, 52.57580590248108, 52.69265389442444, 52.80943703651428, 53.03480410575867]	[48.93093428610106, 49.047600952761066, 50.03060095276106, 50.19730095276106, 50.94730095276106, 51.063967619421064, 51.180634286081066, 51.29730095274107, 51.41396761940107, 51.53063428606107, 51.647300952721075, 51.76396761938108, 51.88063428604108, 51.99730095270108, 52.113967619361084, 52.230634286021086, 52.34730095268109, 52.46396761934109, 52.58063428600109, 52.697300952661095, 52.8139676193211, 53.04730095265443]	2021_Feb_04_1530	59.93481097039058	1	0.375
24	10	FALSE	NA	a	['G', 'P', 'H', 'J', 'T', 'U', 'K', 'W', 'C', 'R', 'S', 'X', 'M', 'N', 'E', 'Y']	[944, 1456, 986, 1029, 1888, 2059, 1122, 2448, 829, 1587, 1731, 4000, 1224, 1335, 904, 2670]	12	Present	NA	NA	PRESENT	0.5182850360870361	55.02529501914978	57.03370404243469	58.08371286386212	58.43371500960933	61.15117001533508	4.117465972900391	[55.04524898529053, 55.16188406944275, 56.13449311256409, 56.31297492980957, 57.06374001502991, 57.180805921554565, 57.29741907119751, 57.41440296173096, 57.53118705749512, 57.64796805381775, 57.76466202735901, 57.881454944610596, 57.99826097488403, 58.11508798599243, 58.231688022613525, 58.348676919937134, 58.46519899368286, 58.58221793174744, 58.69904112815857, 58.81574010848999, 58.93250799179077, 59.15117001533508]	[55.04730095265443, 55.163967619314434, 56.14696761931443, 56.31366761931443, 57.06366761931443, 57.18033428597443, 57.297000952634434, 57.413667619294436, 57.53033428595444, 57.64700095261444, 57.76366761927444, 57.880334285934445, 57.99700095259445, 58.11366761925445, 58.23033428591445, 58.347000952574454, 58.46366761923446, 58.58033428589446, 58.69700095255446, 58.81366761921446, 58.930334285874466, 59.1636676192078]	2021_Feb_04_1530	59.93481097039058	1	0.375
24	11	FALSE	NA	a	['Z', 'G', 'U', 'R', 'S', 'J', 'W', 'K', 'V', 'M', 'B', 'X', 'P', 'Y', 'C', 'H']	[2911, 944, 2059, 1587, 1731, 1029, 2448, 1122, 2245, 1224, 760, 4000, 1456, 2670, 829, 986]	12	Present	NA	NA	PRESENT	0.3156728744506836	61.148340940475464	63.15003490447998	64.20004205697735	64.55004396430598	67.2675371170044	4.117502212524414	[61.16829490661621, 61.284908056259155, 62.25085997581482, 62.43615508079529, 63.18703508377075, 63.303889989852905, 63.42053294181824, 63.53739404678345, 63.654300928115845, 63.77108693122864, 63.88799810409546, 64.00466299057007, 64.12173295021057, 64.23836302757263, 64.3548469543457, 64.4717710018158, 64.5886390209198, 64.70538306236267, 64.82225799560547, 64.92212891578674, 65.0388879776001, 65.2675371170044]	[61.1636676192078, 61.2803342858678, 62.2633342858678, 62.4300342858678, 63.1800342858678, 63.2967009525278, 63.4133676191878, 63.530034285847805, 63.64670095250781, 63.76336761916781, 63.88003428582781, 63.996700952487814, 64.11336761914781, 64.2300342858078, 64.3467009524678, 64.4633676191278, 64.58003428578779, 64.69670095244778, 64.81336761910778, 64.93003428576777, 65.04670095242777, 65.2800342857611]	2021_Feb_04_1530	59.93481097039058	1	0.375
24	12	FALSE	NN	a	['N', 'K', 'R', 'S', 'A', 'G', 'U', 'Y', 'B', 'H', 'V', 'W', 'J', 'Z', 'E', 'C']	[1335, 1122, 1587, 1731, 697, 944, 2059, 2670, 760, 986, 2245, 2448, 1029, 2911, 904, 829]	9	Absent	NA	NA	ABSENT	0.46424388885498047	67.2546648979187	69.26643300056458	69.96644086833768	70.3164430140849	73.38390302658081	4.117470026016235	[67.27461910247803, 67.39154601097107, 68.36724805831909, 68.54273796081543, 69.2934980392456, 69.41039299964905, 69.52706789970398, 69.64397692680359, 69.7607901096344, 69.87757897377014, 69.99417400360107, 70.11114597320557, 70.22774910926819, 70.34475493431091, 70.46161603927612, 70.57835006713867, 70.69496202468872, 70.81169295310974, 70.9285979270935, 71.04542589187622, 71.16228890419006, 71.38390302658081]	[67.2800342857611, 67.3967009524211, 68.3797009524211, 68.54640095242111, 69.29640095242111, 69.4130676190811, 69.5297342857411, 69.6464009524011, 69.76306761906109, 69.87973428572109, 69.99640095238108, 70.11306761904108, 70.22973428570107, 70.34640095236107, 70.46306761902106, 70.57973428568106, 70.69640095234105, 70.81306761900105, 70.92973428566104, 71.04640095232104, 71.16306761898103, 71.39640095231437]	2021_Feb_04_1530	59.93481097039058	1	0.375
24	13	FALSE	NN	a	['J', 'P', 'H', 'R', 'A', 'V', 'M', 'Y', 'Z', 'W', 'N', 'E', 'T', 'K', 'C', 'S']	[1029, 1456, 986, 1587, 697, 2245, 1224, 2670, 2911, 2448, 1335, 904, 1888, 1122, 829, 1731]	10	Absent	NA	NA	ABSENT	0.4206309318542481	73.37813901901245	75.38301801681519	76.19969255124829	76.5496946969955	79.50027012825012	4.1172521114349365	[73.3980929851532, 73.5148138999939, 74.48360204696655, 74.66629600524902, 75.41662406921387, 75.53337907791138, 75.65030789375305, 75.76712703704834, 75.8837718963623, 76.00078296661377, 76.11740899085999, 76.23412895202637, 76.3511290550232, 76.4677939414978, 76.58477711677551, 76.70149207115173, 76.81823992729187, 76.93486404418945, 77.0515489578247, 77.16868209838867, 77.28539896011353, 77.50026893615723]	[73.39640095231437, 73.51306761897436, 74.49606761897437, 74.66276761897437, 75.41276761897437, 75.52943428563437, 75.64610095229436, 75.76276761895436, 75.87943428561435, 75.99610095227435, 76.11276761893434, 76.22943428559434, 76.34610095225433, 76.46276761891433, 76.57943428557432, 76.69610095223432, 76.81276761889431, 76.92943428555431, 77.0461009522143, 77.1627676188743, 77.2794342855343, 77.51276761886763]	2021_Feb_04_1530	59.93481097039058	1	0.375
24	14	FALSE	NN	a	['J', 'N', 'V', 'W', 'H', 'G', 'K', 'M', 'T', 'U', 'C', 'S', 'A', 'B', 'P', 'Z']	[1029, 1335, 2245, 2448, 986, 944, 1122, 1224, 1888, 2059, 829, 1731, 697, 760, 1456, 2911]	8	Absent	NA	NA	ABSENT	0.49808406829833984	79.50103402137756	81.49924397468567	82.08258517579878	82.432587321546	85.61663699150085	4.1173930168151855	[79.52098798751831, 79.63796091079712, 80.59996008872986, 80.77235794067383, 81.53986406326294, 81.64004898071289, 81.75681900978088, 81.87353110313416, 81.99038505554199, 82.10718703269958, 82.22378206253052, 82.3407781124115, 82.4577169418335, 82.57448291778564, 82.69099402427673, 82.80796098709106, 82.924556016922, 83.0415050983429, 83.15829706192017, 83.27505993843079, 83.39175009727478, 83.61663603782654]	[79.51276761886763, 79.62943428552762, 80.61243428552763, 80.77913428552763, 81.52913428552763, 81.64580095218763, 81.76246761884762, 81.87913428550762, 81.99580095216761, 82.11246761882761, 82.2291342854876, 82.3458009521476, 82.4624676188076, 82.57913428546759, 82.69580095212758, 82.81246761878758, 82.92913428544757, 83.04580095210757, 83.16246761876756, 83.27913428542756, 83.39580095208755, 83.62913428542089]	2021_Feb_04_1530	59.93481097039058	1	0.375
24	15	FALSE	NV	a	['C', 'U', 'Y', 'E', 'N', 'J', 'S', 'K', 'A', 'G', 'V', 'W', 'B', 'X', 'M', 'H']	[829, 2059, 2670, 904, 1335, 1029, 1731, 1122, 697, 944, 2245, 2448, 760, 4000, 1224, 986]	14	Present	NA	NA	PRESENT	0.29469799995422363	85.6074788570404	87.61543107032776	88.89877227140087	89.2487741787295	91.73300290107728	4.117571830749512	[85.62743496894836, 85.74437594413757, 86.71632695198059, 86.89568090438843, 87.64639496803284, 87.76322412490845, 87.87998008728027, 87.99665999412537, 88.11344790458679, 88.23033308982849, 88.34697794914246, 88.46401691436768, 88.58068990707397, 88.69753193855286, 88.8143150806427, 88.93093490600586, 89.0479691028595, 89.16466307640076, 89.28150510787964, 89.39822912216187, 89.51499390602112, 89.73300099372864]	[85.62913428542089, 85.74580095208088, 86.72880095208089, 86.8955009520809, 87.6455009520809, 87.76216761874089, 87.87883428540088, 87.99550095206088, 88.11216761872087, 88.22883428538087, 88.34550095204087, 88.46216761870086, 88.57883428536086, 88.69550095202085, 88.81216761868085, 88.92883428534084, 89.04550095200084, 89.16216761866083, 89.27883428532083, 89.39550095198082, 89.51216761864082, 89.74550095197415]	2021_Feb_04_1530	59.93481097039058	1	0.375
24	16	FALSE	NA	a	['Z', 'V', 'W', 'S', 'M', 'K', 'A', 'Y', 'X', 'N', 'E', 'H', 'U', 'C', 'J', 'T']	[2911, 2245, 2448, 1731, 1224, 1122, 697, 2670, 4000, 1335, 904, 986, 2059, 829, 1029, 1888]	9	Present	NA	NA	PRESENT	0.3480827808380127	91.73066186904909	93.731929063797	94.4319359778958	94.78193788522442	97.84937000274658	4.117440938949585	[91.75061702728271, 91.86746597290039, 92.83269190788269, 93.01880812644958, 93.76950311660767, 93.88649010658264, 94.00335907936096, 94.12024998664856, 94.23660898208618, 94.35351490974426, 94.47044706344604, 94.58719396591187, 94.70382189750671, 94.82060599327087, 94.92059302330017, 95.03737807273865, 95.15429401397705, 95.27108097076416, 95.38779497146606, 95.50458598136902, 95.62139701843262, 95.84936904907227]	[91.74550095197415, 91.86216761863415, 92.84516761863415, 93.01186761863416, 93.76186761863416, 93.87853428529415, 93.99520095195415, 94.11186761861414, 94.22853428527414, 94.34520095193413, 94.46186761859413, 94.57853428525412, 94.69520095191412, 94.81186761857411, 94.92853428523411, 95.0452009518941, 95.1618676185541, 95.27853428521409, 95.39520095187409, 95.51186761853408, 95.62853428519408, 95.86186761852741]	2021_Feb_04_1530	59.93481097039058	1	0.375
24	17	FALSE	NN	a	['E', 'B', 'S', 'N', 'G', 'Y', 'V', 'R', 'M', 'K', 'J', 'U', 'T', 'P', 'W', 'H']	[904, 760, 1731, 1335, 944, 2670, 2245, 1587, 1224, 1122, 1029, 2059, 1888, 1456, 2448, 986]	13	Absent	NA	NA	ABSENT	0.3925900459289551	97.83709192276	99.84864401817322	101.01531855258632	101.36532069833352	103.965735912323	4.11709189414978	[97.85704612731934, 97.97402000427246, 98.94906091690063, 99.12531995773315, 99.87583708763123, 99.99277591705322, 100.109699010849, 100.22643089294434, 100.34306001663208, 100.46009397506714, 100.57672095298767, 100.69361996650696, 100.81031012535095, 100.9272689819336, 101.04392409324646, 101.16083002090454, 101.27762198448181, 101.39417004585266, 101.5111300945282, 101.62775897979736, 101.74458408355713, 101.96573805809021]	[97.86186761852741, 97.97853428518741, 98.96153428518741, 99.12823428518742, 99.87823428518742, 99.99490095184741, 100.11156761850741, 100.2282342851674, 100.3449009518274, 100.4615676184874, 100.57823428514739, 100.69490095180738, 100.81156761846738, 100.92823428512737, 101.04490095178737, 101.16156761844736, 101.27823428510736, 101.39490095176735, 101.51156761842735, 101.62823428508734, 101.74490095174734, 101.97823428508067]	2021_Feb_04_1530	59.93481097039058	1	0.375
24	18	FALSE	VA	a	['Y', 'M', 'A', 'S', 'J', 'T', 'G', 'E', 'C', 'surprise', 'Z', 'B', 'X', 'N', 'H', 'K']	[2670, 1224, 697, 1731, 1029, 1888, 944, 904, 829, 'stimAuditory/all_stimAuditory/106.wav', 2911, 760, 4000, 1335, 986, 1122]	13	Present	NA	NA	PRESENT	0.3173489570617676	103.96033787727356	105.96465992927553	107.1313347021072	107.48133660943584	110.082102060318	4.1174421310424805	[103.98031401634216, 104.09757804870605, 105.06542706489563, 105.24849796295166, 105.99919700622559, 106.11579012870789, 106.23281192779541, 106.34948301315308, 106.46635890007019, 106.5831789970398, 106.70005202293396, 106.81660890579224, 106.93374490737915, 107.05016899108887, 107.16714906692505, 107.28388905525208, 107.40059208869934, 107.51758790016174, 107.63438701629639, 107.75099897384644, 107.86796593666077, 108.082102060318]	[103.97823428508067, 104.09490095174067, 105.07790095174067, 105.24460095174068, 105.99460095174068, 106.11126761840067, 106.22793428506067, 106.34460095172066, 106.46126761838066, 106.57793428504066, 106.69460095170065, 106.81126761836065, 106.92793428502064, 107.04460095168064, 107.16126761834063, 107.27793428500063, 107.39460095166062, 107.51126761832062, 107.62793428498061, 107.7446009516406, 107.8612676183006, 108.09460095163394]	2021_Feb_04_1530	59.93481097039058	1	0.375
24	19	FALSE	NA	a	['H', 'T', 'E', 'K', 'J', 'U', 'Z', 'B', 'R', 'C', 'A', 'X', 'G', 'Y', 'S', 'M']	[986, 1888, 904, 1122, 1029, 2059, 2911, 760, 1587, 829, 697, 4000, 944, 2670, 1731, 1224]	12	Present	NA	NA	PRESENT	0.4339308738708496	110.0834059715271	112.08098196983336	113.13098888391217	113.4809919833337	116.19847011566162	4.117488145828247	[110.10335993766785, 110.20354199409485, 111.18179297447205, 111.35479402542114, 112.10552191734314, 112.22246789932251, 112.33931803703308, 112.45611810684204, 112.57293200492859, 112.68971490859985, 112.80646991729736, 112.92328000068665, 113.03997611999512, 113.15679502487183, 113.273766040802, 113.39047193527222, 113.50713801383972, 113.62405395507812, 113.7406759262085, 113.85770201683044, 113.97430205345154, 114.19847011566162]	[110.09460095163394, 110.21126761829393, 111.19426761829394, 111.36096761829394, 112.11096761829394, 112.22763428495394, 112.34430095161393, 112.46096761827393, 112.57763428493392, 112.69430095159392, 112.81096761825391, 112.9276342849139, 113.0443009515739, 113.1609676182339, 113.27763428489389, 113.39430095155389, 113.51096761821388, 113.62763428487388, 113.74430095153387, 113.86096761819387, 113.97763428485386, 114.2109676181872]	2021_Feb_04_1530	59.93481097039058	1	0.375
24	20	FALSE	NA	a	['Y', 'T', 'P', 'B', 'E', 'R', 'Z', 'A', 'J', 'X', 'G', 'M', 'W', 'V', 'K', 'U']	[2670, 1888, 1456, 760, 904, 1587, 2911, 697, 1029, 4000, 944, 1224, 2448, 2245, 1122, 2059]	10	Present	NA	NA	PRESENT	0.39890384674072266	116.18987584114076	118.19757604599	119.0142505804231	119.36425367984462	122.31483697891235	4.117260932922363	[116.20983099937439, 116.32683300971985, 117.29816007614136, 117.4779999256134, 118.22870707511902, 118.34570407867432, 118.46226406097412, 118.57928109169006, 118.69608497619629, 118.8127920627594, 118.92962694168091, 119.04624891281128, 119.16333603858948, 119.28005599975586, 119.39684391021729, 119.513503074646, 119.63039708137512, 119.74708390235901, 119.86395001411438, 119.980623960495, 120.09750699996948, 120.31483507156372]	[116.2109676181872, 116.32763428484719, 117.3106342848472, 117.4773342848472, 118.2273342848472, 118.3440009515072, 118.4606676181672, 118.57733428482719, 118.69400095148718, 118.81066761814718, 118.92733428480717, 119.04400095146717, 119.16066761812716, 119.27733428478716, 119.39400095144715, 119.51066761810715, 119.62733428476714, 119.74400095142714, 119.86066761808713, 119.97733428474713, 120.09400095140712, 120.32733428474046]	2021_Feb_04_1530	59.93481097039058	1	0.375
24	21	FALSE	NV	a	['Z', 'K', 'B', 'E', 'R', 'U', 'N', 'C', 'J', 'M', 'P', 'X', 'W', 'A', 'Y', 'V']	[2911, 1122, 760, 904, 1587, 2059, 1335, 829, 1029, 1224, 1456, 4000, 2448, 697, 2670, 2245]	12	Present	NA	NA	PRESENT	0.41228413581848145	122.3132870197296	124.31366086006165	125.36366801255902	125.71366991988764	128.43120312690735	4.117542266845703	[122.33324098587036, 122.4500949382782, 123.4145278930664, 123.60137104988098, 124.35225009918213, 124.46870398521423, 124.58569192886353, 124.70231103897095, 124.80224990844727, 124.91906499862671, 125.03588891029358, 125.15277290344238, 125.26956295967102, 125.38636803627014, 125.50316309928894, 125.61989307403564, 125.73673510551453, 125.85349798202515, 125.97021293640137, 126.08708500862122, 126.20401000976562, 126.43120193481445]	[122.32733428474046, 122.44400095140045, 123.42700095140046, 123.59370095140046, 124.34370095140046, 124.46036761806046, 124.57703428472045, 124.69370095138045, 124.81036761804044, 124.92703428470044, 125.04370095136044, 125.16036761802043, 125.27703428468043, 125.39370095134042, 125.51036761800042, 125.62703428466041, 125.7437009513204, 125.8603676179804, 125.9770342846404, 126.09370095130039, 126.21036761796039, 126.44370095129372]	2021_Feb_04_1530	59.93481097039058	1	0.375
24	22	FALSE	AA	a	['E', 'U', 'T', 'V', 'H', 'surprise', 'P', 'A', 'X', 'C', 'N', 'J', 'G', 'R', 'M', 'B']	[904, 2059, 1888, 2245, 986, 'stimAuditory/all_stimAuditory/216.wav', 1456, 697, 4000, 829, 1335, 1029, 944, 1587, 1224, 760]	9	Present	stimAuditory/all_stimAuditory/202.wav	NA	PRESENT	0.360933780670166	128.4195680618286	130.43017101287842	131.13017888065153	131.48018102639875	134.54756999015808	4.117398977279663	[128.43952202796936, 128.55651712417603, 129.53089308738708, 129.7078139781952, 130.4583101272583, 130.575434923172, 130.69205594062805, 130.8089039325714, 130.92568492889404, 131.04253005981445, 131.15918111801147, 131.27607798576355, 131.39288902282715, 131.5096070766449, 131.62638306617737, 131.74324202537537, 131.8599820137024, 131.9766709804535, 132.09367299079895, 132.21023893356323, 132.3272500038147, 132.54756999015808]	[128.44370095129372, 128.56036761795372, 129.54336761795372, 129.7100676179537, 130.4600676179537, 130.5767342846137, 130.6934009512737, 130.8100676179337, 130.9267342845937, 131.0434009512537, 131.16006761791368, 131.27673428457368, 131.39340095123367, 131.51006761789367, 131.62673428455366, 131.74340095121366, 131.86006761787365, 131.97673428453365, 132.09340095119364, 132.21006761785364, 132.32673428451363, 132.56006761784695]	2021_Feb_04_1530	59.93481097039058	1	0.375
24	23	FALSE	NN	a	['E', 'M', 'U', 'G', 'W', 'P', 'H', 'K', 'S', 'A', 'Y', 'N', 'C', 'J', 'R', 'V']	[904, 1224, 2059, 944, 2448, 1456, 986, 1122, 1731, 697, 2670, 1335, 829, 1029, 1587, 2245]	9	Absent	NA	NA	ABSENT	0.389462947845459	134.54306197166443	136.5464060306549	137.24641389842802	137.59641485208235	140.6639370918274	4.117531061172485	[134.56301712989807, 134.6796910762787, 135.64726209640503, 135.83090591430664, 136.58162593841553, 136.69825291633606, 136.81537294387817, 136.9319269657135, 137.04900908470154, 137.1654760837555, 137.28232192993164, 137.39934611320496, 137.51585507392883, 137.6326620578766, 137.74971294403076, 137.8664391040802, 137.98329710960388, 138.09998893737793, 138.21669507026672, 138.33355402946472, 138.4504199028015, 138.6639358997345]	[134.56006761784695, 134.67673428450695, 135.65973428450695, 135.82643428450695, 136.57643428450695, 136.69310095116694, 136.80976761782694, 136.92643428448693, 137.04310095114693, 137.15976761780692, 137.27643428446692, 137.3931009511269, 137.5097676177869, 137.6264342844469, 137.7431009511069, 137.8597676177669, 137.9764342844269, 138.09310095108688, 138.20976761774688, 138.32643428440687, 138.44310095106687, 138.6764342844002]	2021_Feb_04_1530	59.93481097039058	1	0.375
24	24	FALSE	NV	a	['M', 'N', 'B', 'S', 'H', 'G', 'T', 'Z', 'E', 'U', 'V', 'X', 'R', 'P', 'J', 'K']	[1224, 1335, 760, 1731, 986, 944, 1888, 2911, 904, 2059, 2245, 4000, 1587, 1456, 1029, 1122]	12	Present	NA	NA	PRESENT	0.7063558101654053	140.6492359638214	142.66284894943237	143.71285705560408	144.0628589629327	146.7803030014038	4.1174540519714355	[140.66919994354248, 140.7859570980072, 141.7636239528656, 141.9372260570526, 142.68808603286743, 142.80502104759216, 142.92166590690613, 143.03858089447021, 143.1552119255066, 143.27201509475708, 143.3889970779419, 143.50564408302307, 143.62239789962769, 143.73931789398193, 143.85603308677673, 143.9727771282196, 144.0899579524994, 144.2063500881195, 144.32335710525513, 144.43997406959534, 144.55692100524902, 144.7803020477295]	[140.6764342844002, 140.79310095106018, 141.7761009510602, 141.94280095106018, 142.69280095106018, 142.80946761772017, 142.92613428438017, 143.04280095104016, 143.15946761770016, 143.27613428436015, 143.39280095102015, 143.50946761768014, 143.62613428434014, 143.74280095100013, 143.85946761766013, 143.97613428432012, 144.09280095098012, 144.20946761764012, 144.3261342843001, 144.4428009509601, 144.5594676176201, 144.79280095095342]	2021_Feb_04_1530	59.93481097039058	1	0.375
24	25	FALSE	AV	a	['R', 'W', 'B', 'H', 'C', 'Z', 'M', 'P', 'S', 'surprise', 'G', 'U', 'X', 'V', 'E', 'K']	[1587, 2448, 760, 986, 829, 2911, 1224, 1456, 1731, 'stimAuditory/all_stimAuditory/218.wav', 944, 2059, 4000, 2245, 904, 1122]	13	Present	stimAuditory/all_stimAuditory/106.wav	NA	PRESENT	0.8071911334991455	146.77245593070984	148.7793369293213	149.9460105100601	150.2960126558073	152.89667010307312	4.117333173751831	[146.7924098968506, 146.90937995910645, 147.87999510765076, 148.06055903434753, 148.81122207641602, 148.92815589904785, 149.0447359085083, 149.16165709495544, 149.27853894233704, 149.39523100852966, 149.512109041214, 149.62875294685364, 149.7456910610199, 149.8622760772705, 149.97935891151428, 150.09587407112122, 150.21287894248962, 150.32951498031616, 150.44649505615234, 150.5633270740509, 150.6798861026764, 150.89667105674744]	[146.79280095095342, 146.90946761761342, 147.89246761761342, 148.0591676176134, 148.8091676176134, 148.9258342842734, 149.0425009509334, 149.1591676175934, 149.2758342842534, 149.3925009509134, 149.50916761757338, 149.62583428423338, 149.74250095089337, 149.85916761755337, 149.97583428421336, 150.09250095087336, 150.20916761753335, 150.32583428419335, 150.44250095085334, 150.55916761751334, 150.67583428417333, 150.90916761750665]	2021_Feb_04_1530	59.93481097039058	1	0.375
24	26	FALSE	NA	a	['J', 'M', 'S', 'C', 'H', 'A', 'U', 'G', 'K', 'T', 'R', 'X', 'W', 'E', 'Z', 'V']	[1029, 1224, 1731, 829, 986, 697, 2059, 944, 1122, 1888, 1587, 4000, 2448, 904, 2911, 2245]	12	Present	NA	NA	PRESENT	0.5482220649719238	152.89575386047363	154.89573097229004	155.94573884004316	156.29574098579036	159.01303696632385	4.1173059940338135	[152.91572999954224, 153.03260493278503, 153.9963619709015, 154.18378806114197, 154.93456506729126, 155.0344479084015, 155.15132403373718, 155.2680459022522, 155.38486409187317, 155.50162291526794, 155.6184389591217, 155.73521494865417, 155.85198402404785, 155.96879196166992, 156.0855689048767, 156.2023720741272, 156.31920909881592, 156.4359450340271, 156.55292105674744, 156.66969108581543, 156.78655910491943, 157.01303791999817]	[152.90916761750665, 153.02583428416665, 154.00883428416665, 154.17553428416664, 154.92553428416664, 155.04220095082664, 155.15886761748664, 155.27553428414663, 155.39220095080663, 155.50886761746662, 155.62553428412662, 155.7422009507866, 155.8588676174466, 155.9755342841066, 156.0922009507666, 156.2088676174266, 156.3255342840866, 156.44220095074658, 156.55886761740658, 156.67553428406657, 156.79220095072657, 157.0255342840599]	2021_Feb_04_1530	59.93481097039058	1	0.375
24	27	FALSE	NA	a	['T', 'R', 'E', 'V', 'C', 'J', 'S', 'P', 'A', 'G', 'H', 'B', 'X', 'W', 'Z', 'U']	[1888, 1587, 904, 2245, 829, 1029, 1731, 1456, 697, 944, 986, 760, 4000, 2448, 2911, 2059]	13	Present	NA	NA	PRESENT	0.4889240264892578	159.0021300315857	161.01195883750916	162.17863265666654	162.52863456399515	165.12940311431885	4.117444276809692	[159.02208399772644, 159.13914895057678, 160.1127290725708, 160.2900950908661, 161.04096508026123, 161.15788006782532, 161.27455496788025, 161.39118003845215, 161.50803804397583, 161.62480902671814, 161.741632938385, 161.8582980632782, 161.97533893585205, 162.09210801124573, 162.20888805389404, 162.3257019519806, 162.4425549507141, 162.5592930316925, 162.67615294456482, 162.79291701316833, 162.90965700149536, 163.12940096855164]	[159.0255342840599, 159.14220095071988, 160.1252009507199, 160.29190095071988, 161.04190095071988, 161.15856761737987, 161.27523428403987, 161.39190095069986, 161.50856761735986, 161.62523428401985, 161.74190095067985, 161.85856761733984, 161.97523428399984, 162.09190095065983, 162.20856761731983, 162.32523428397982, 162.44190095063982, 162.55856761729981, 162.6752342839598, 162.7919009506198, 162.9085676172798, 163.14190095061312]	2021_Feb_04_1530	59.93481097039058	1	0.375
24	28	FALSE	NA	a	['Z', 'C', 'H', 'T', 'R', 'U', 'A', 'N', 'X', 'Y', 'V', 'G', 'E', 'J', 'W', 'P']	[2911, 829, 986, 1888, 1587, 2059, 697, 1335, 4000, 2670, 2245, 944, 904, 1029, 2448, 1456]	9	Present	NA	NA	PRESENT	0.3734610080718994	165.1256618499756	167.12836503982544	167.82837290759855	168.17837505334575	171.24576902389526	4.117403984069824	[165.14561700820923, 165.26220893859863, 166.2290940284729, 166.41335010528564, 167.16437792778015, 167.28101992607117, 167.39774107933044, 167.5144350528717, 167.6314070224762, 167.74808502197266, 167.86496996879578, 167.9816780090332, 168.09845089912415, 168.21517491340637, 168.33208107948303, 168.44877195358276, 168.5657079219818, 168.68254399299622, 168.79939699172974, 168.9159290790558, 169.03286004066467, 169.24576902389526]	[165.14190095061312, 165.25856761727312, 166.24156761727312, 166.4082676172731, 167.1582676172731, 167.2749342839331, 167.3916009505931, 167.5082676172531, 167.6249342839131, 167.7416009505731, 167.85826761723308, 167.97493428389308, 168.09160095055307, 168.20826761721307, 168.32493428387306, 168.44160095053306, 168.55826761719305, 168.67493428385305, 168.79160095051304, 168.90826761717304, 169.02493428383303, 169.25826761716635]	2021_Feb_04_1530	59.93481097039058	1	0.375
24	29	FALSE	NA	a	['E', 'C', 'P', 'Z', 'Y', 'G', 'M', 'X', 'B', 'A', 'T', 'U', 'R', 'S', 'N', 'H']	[904, 829, 1456, 2911, 2670, 944, 1224, 4000, 760, 697, 1888, 2059, 1587, 1731, 1335, 986]	8	Present	NA	NA	PRESENT	0.30673885345458984	171.23172402381897	173.24461007118225	173.82795127229537	174.17795317962398	177.3621370792389	4.117527008056641	[171.2516770362854, 171.36856293678284, 172.34546089172363, 172.51993203163147, 173.27050495147705, 173.38749599456787, 173.50429797172546, 173.62092208862305, 173.7378330230713, 173.85462498664856, 173.97130012512207, 174.08810901641846, 174.20499396324158, 174.3217968940735, 174.43858098983765, 174.55542707443237, 174.67229795455933, 174.78881812095642, 174.90581703186035, 175.02254509925842, 175.139643907547, 175.36213493347168]	[171.25826761716635, 171.37493428382635, 172.35793428382635, 172.52463428382634, 173.27463428382634, 173.39130095048634, 173.50796761714633, 173.62463428380633, 173.74130095046633, 173.85796761712632, 173.97463428378632, 174.0913009504463, 174.2079676171063, 174.3246342837663, 174.4413009504263, 174.5579676170863, 174.6746342837463, 174.79130095040628, 174.90796761706628, 175.02463428372627, 175.14130095038627, 175.3746342837196]	2021_Feb_04_1530	59.93481097039058	1	0.375
24	30	FALSE	NN	a	['T', 'Y', 'B', 'H', 'W', 'V', 'U', 'E', 'K', 'C', 'G', 'S', 'J', 'A', 'N', 'P']	[1888, 2670, 760, 986, 2448, 2245, 2059, 904, 1122, 829, 944, 1731, 1029, 697, 1335, 1456]	12	Absent	NA	NA	ABSENT	0.5113539695739746	177.35499095916748	179.3610818386078	180.4110899447795	180.7610918521081	183.4785029888153	4.1174211502075195	[177.37494492530823, 177.49193406105042, 178.46182799339294, 178.64291906356812, 179.39379692077637, 179.51074194908142, 179.6273319721222, 179.74411606788635, 179.86109709739685, 179.97780299186707, 180.09466409683228, 180.21118807792664, 180.3281331062317, 180.44503211975098, 180.56170105934143, 180.67860198020935, 180.79517006874084, 180.91190195083618, 181.02898812294006, 181.14566898345947, 181.26259899139404, 181.478502035141]	[177.3746342837196, 177.49130095037958, 178.4743009503796, 178.64100095037958, 179.39100095037958, 179.50766761703957, 179.62433428369957, 179.74100095035956, 179.85766761701956, 179.97433428367955, 180.09100095033955, 180.20766761699954, 180.32433428365954, 180.44100095031953, 180.55766761697953, 180.67433428363952, 180.79100095029952, 180.90766761695951, 181.0243342836195, 181.1410009502795, 181.2576676169395, 181.49100095027282]	2021_Feb_04_1530	59.93481097039058	1	0.375
24	31	FALSE	NV	a	['N', 'V', 'S', 'T', 'W', 'A', 'K', 'P', 'H', 'C', 'X', 'Z', 'Y', 'B', 'G', 'U']	[1335, 2245, 1731, 1888, 2448, 697, 1122, 1456, 986, 829, 4000, 2911, 2670, 760, 944, 2059]	11	Present	NA	NA	PRESENT	0.3885750770568848	183.47821283340457	185.47735691070557	186.41069835021725	186.7607002575459	189.59487009048465	4.117513179779053	[183.49816799163818, 183.6149709224701, 184.57819390296936, 184.76630806922913, 185.5174241065979, 185.61700010299683, 185.7337989807129, 185.85060596466064, 185.96734309196472, 186.08417391777039, 186.20084595680237, 186.31786608695984, 186.43442702293396, 186.55126810073853, 186.668123960495, 186.78493189811707, 186.9018518924713, 187.01856803894043, 187.13529801368713, 187.2521789073944, 187.3688609600067, 187.59486889839172]	[183.49100095027282, 183.60766761693282, 184.59066761693282, 184.7573676169328, 185.5073676169328, 185.6240342835928, 185.7407009502528, 185.8573676169128, 185.9740342835728, 186.0907009502328, 186.20736761689278, 186.32403428355278, 186.44070095021277, 186.55736761687277, 186.67403428353276, 186.79070095019276, 186.90736761685275, 187.02403428351275, 187.14070095017274, 187.25736761683274, 187.37403428349273, 187.60736761682605]	2021_Feb_04_1530	59.93481097039058	1	0.375
24	32	FALSE	NN	a	['M', 'N', 'E', 'K', 'R', 'S', 'C', 'Y', 'H', 'P', 'A', 'Z', 'J', 'T', 'V', 'U']	[1224, 1335, 904, 1122, 1587, 1731, 829, 2670, 986, 1456, 697, 2911, 1029, 1888, 2245, 2059]	11	Absent	NA	NA	ABSENT	1.0170838832855225	189.58467984199524	191.5939290523529	192.527270253446	192.87727239919323	195.71123695373535	4.117307901382446	[189.60463500022888, 189.72153091430664, 190.69456100463867, 190.87263011932373, 191.62339401245117, 191.74036192893982, 191.85713291168213, 191.97369503974915, 192.09062600135803, 192.20743608474731, 192.32445907592773, 192.44084811210632, 192.55781602859497, 192.67442202568054, 192.79140901565552, 192.9081780910492, 193.02493500709534, 193.14166808128357, 193.2585949897766, 193.37521195411682, 193.49199390411377, 193.71123600006104]	[189.60736761682605, 189.72403428348605, 190.70703428348605, 190.87373428348604, 191.62373428348604, 191.74040095014604, 191.85706761680603, 191.97373428346603, 192.09040095012602, 192.20706761678602, 192.32373428344602, 192.440400950106, 192.557067616766, 192.673734283426, 192.790400950086, 192.907067616746, 193.023734283406, 193.14040095006598, 193.25706761672598, 193.37373428338597, 193.49040095004597, 193.7237342833793]	2021_Feb_04_1530	59.93481097039058	1	0.375
24	33	FALSE	VV	a	['A', 'E', 'S', 'H', 'surprise', 'C', 'P', 'X', 'V', 'K', 'W', 'J', 'T', 'Y', 'U', 'N']	[697, 904, 1731, 986, 'stimAuditory/all_stimAuditory/116.wav', 829, 1456, 4000, 2245, 1122, 2448, 1029, 1888, 2670, 2059, 1335]	8	Present	NA	NA	PRESENT	0.509829044342041	195.70828795433044	197.7104539871216	198.2937951882347	198.6437973339819	201.82760310173035	4.117149114608765	[195.7282419204712, 195.84467792510986, 196.8109269142151, 196.9958848953247, 197.7465898990631, 197.86342692375183, 197.98010802268982, 198.0970458984375, 198.2137110233307, 198.33066296577454, 198.4475200176239, 198.56414198875427, 198.68079090118408, 198.79771399497986, 198.9145839214325, 199.03119492530823, 199.14812994003296, 199.26476192474365, 199.38163089752197, 199.4985589981079, 199.61563992500305, 199.82760310173035]	[195.7237342833793, 195.84040095003928, 196.8234009500393, 196.99010095003928, 197.74010095003928, 197.85676761669927, 197.97343428335927, 198.09010095001926, 198.20676761667926, 198.32343428333925, 198.44010094999925, 198.55676761665924, 198.67343428331924, 198.79010094997923, 198.90676761663923, 199.02343428329922, 199.14010094995922, 199.25676761661921, 199.3734342832792, 199.4901009499392, 199.6067676165992, 199.84010094993252]	2021_Feb_04_1530	59.93481097039058	1	0.375
24	34	FALSE	NA	a	['J', 'W', 'Y', 'K', 'M', 'C', 'A', 'T', 'Z', 'H', 'X', 'B', 'G', 'S', 'R', 'V']	[1029, 2448, 2670, 1122, 1224, 829, 697, 1888, 2911, 986, 4000, 760, 944, 1731, 1587, 2245]	11	Present	NA	NA	PRESENT	0.306973934173584	201.81423997879028	203.82651090621948	204.75985234573116	205.1098542530598	207.94396996498108	4.117459058761597	[201.83419609069824, 201.9511489868164, 202.92729306221008, 203.102215051651, 203.8530158996582, 203.97000408172607, 204.0867829322815, 204.20361495018005, 204.3203899860382, 204.437194108963, 204.5537691116333, 204.6705539226532, 204.7875669002533, 204.90424990653992, 205.02103900909424, 205.13796710968018, 205.25455594062805, 205.37148308753967, 205.48792910575867, 205.60480904579163, 205.72181606292725, 205.94396996498108]	[201.84010094993252, 201.95676761659251, 202.93976761659252, 203.1064676165925, 203.8564676165925, 203.9731342832525, 204.0898009499125, 204.2064676165725, 204.3231342832325, 204.4398009498925, 204.55646761655248, 204.67313428321248, 204.78980094987247, 204.90646761653247, 205.02313428319246, 205.13980094985246, 205.25646761651245, 205.37313428317245, 205.48980094983244, 205.60646761649244, 205.72313428315243, 205.95646761648575]	2021_Feb_04_1530	59.93481097039058	1	0.375
24	35	FALSE	NV	a	['T', 'W', 'S', 'M', 'Z', 'K', 'U', 'H', 'J', 'A', 'Y', 'B', 'N', 'X', 'G', 'C']	[1888, 2448, 1731, 1224, 2911, 1122, 2059, 986, 1029, 697, 2670, 760, 1335, 4000, 944, 829]	14	Present	NA	NA	PRESENT	0.3757431507110596	207.9374840259552	209.94288206100464	211.22622326207775	211.57622516940637	214.06033611297607	4.1174540519714355	[207.95743799209595, 208.07432389259338, 209.04365992546082, 209.22548508644104, 209.97633409500122, 210.09303092956543, 210.20989799499512, 210.32667207717896, 210.4436230659485, 210.5603129863739, 210.6771399974823, 210.79373812675476, 210.91056108474731, 211.02736902236938, 211.14420700073242, 211.26087403297424, 211.37785005569458, 211.4945421218872, 211.61142206192017, 211.72804403305054, 211.84502792358398, 212.0603380203247]	[207.95646761648575, 208.07313428314575, 209.05613428314575, 209.22283428314574, 209.97283428314574, 210.08950094980574, 210.20616761646573, 210.32283428312573, 210.43950094978572, 210.55616761644572, 210.67283428310571, 210.7895009497657, 210.9061676164257, 211.0228342830857, 211.1395009497457, 211.2561676164057, 211.37283428306569, 211.48950094972568, 211.60616761638568, 211.72283428304567, 211.83950094970567, 212.072834283039]	2021_Feb_04_1530	59.93481097039058	1	0.375
24	36	FALSE	NV	a	['W', 'K', 'A', 'J', 'H', 'P', 'C', 'X', 'Y', 'Z', 'N', 'E', 'R', 'V', 'B', 'U']	[2448, 1122, 697, 1029, 986, 1456, 829, 4000, 2670, 2911, 1335, 904, 1587, 2245, 760, 2059]	8	Present	NA	NA	PRESENT	0.4608957767486572	214.0605480670929	216.05931496620175	216.6426561673149	216.9926583130621	220.1767029762268	4.117388010025024	[214.08050298690796, 214.19747400283813, 215.16002702713013, 215.33201503753662, 216.09964609146118, 216.19942808151245, 216.31634712219238, 216.43299102783203, 216.54990792274475, 216.66679406166077, 216.7835021018982, 216.90038204193115, 217.0170750617981, 217.1337230205536, 217.250648021698, 217.36735200881958, 217.48426008224487, 217.60108995437622, 217.71783995628357, 217.83449006080627, 217.95147609710693, 218.17670106887817]	[214.072834283039, 214.18950094969898, 215.17250094969899, 215.33920094969898, 216.08920094969898, 216.20586761635897, 216.32253428301897, 216.43920094967896, 216.55586761633896, 216.67253428299895, 216.78920094965895, 216.90586761631894, 217.02253428297894, 217.13920094963893, 217.25586761629893, 217.37253428295892, 217.48920094961892, 217.6058676162789, 217.7225342829389, 217.8392009495989, 217.9558676162589, 218.18920094959222]	2021_Feb_04_1530	59.93481097039058	1	0.375
24	37	FALSE	NV	a	['N', 'V', 'A', 'H', 'U', 'P', 'E', 'S', 'R', 'M', 'Z', 'Y', 'X', 'W', 'K', 'G']	[1335, 2245, 697, 986, 2059, 1456, 904, 1731, 1587, 1224, 2911, 2670, 4000, 2448, 1122, 944]	13	Present	NA	NA	PRESENT	0.4174051284790039	220.167711019516	222.17554783821103	223.34222261104276	223.69222451837135	226.2930691242218	4.117521286010742	[220.18766593933105, 220.30398511886597, 221.27639293670654, 221.45503401756287, 222.20587611198425, 222.32262206077576, 222.4396390914917, 222.55631709098816, 222.67315101623535, 222.7898690700531, 222.90670800209045, 223.0234489440918, 223.1402289867401, 223.25695610046387, 223.37382197380066, 223.49047112464905, 223.60753297805786, 223.72420191764832, 223.84096503257751, 223.95779609680176, 224.07461404800415, 224.29307007789612]	[220.18920094959222, 220.30586761625221, 221.28886761625222, 221.4555676162522, 222.2055676162522, 222.3222342829122, 222.4389009495722, 222.5555676162322, 222.6722342828922, 222.7889009495522, 222.90556761621218, 223.02223428287218, 223.13890094953217, 223.25556761619217, 223.37223428285216, 223.48890094951216, 223.60556761617215, 223.72223428283215, 223.83890094949214, 223.95556761615214, 224.07223428281213, 224.30556761614545]	2021_Feb_04_1530	59.93481097039058	1	0.375
24	38	FALSE	NV	a	['N', 'S', 'Z', 'E', 'U', 'G', 'T', 'X', 'M', 'J', 'H', 'P', 'R', 'K', 'W', 'B']	[1335, 1731, 2911, 904, 2059, 944, 1888, 4000, 1224, 1029, 986, 1456, 1587, 1122, 2448, 760]	8	Present	NA	NA	PRESENT	0.3509340286254883	226.29046392440796	228.29213094711304	228.87547238664473	229.22547429397335	232.40943598747253	4.117305040359497	[226.31041812896729, 226.4271879196167, 227.3927619457245, 227.57834196090698, 228.3291358947754, 228.4459490776062, 228.56280398368835, 228.67944598197937, 228.7964470386505, 228.91301202774048, 229.02987909317017, 229.14680910110474, 229.26342010498047, 229.38030290603638, 229.49702310562134, 229.6139271259308, 229.73040795326233, 229.84742093086243, 229.94730591773987, 230.0640709400177, 230.18088793754578, 230.40943694114685]	[226.30556761614545, 226.42223428280545, 227.40523428280545, 227.57193428280544, 228.32193428280544, 228.43860094946544, 228.55526761612543, 228.67193428278543, 228.78860094944542, 228.90526761610542, 229.02193428276541, 229.1386009494254, 229.2552676160854, 229.3719342827454, 229.4886009494054, 229.6052676160654, 229.72193428272539, 229.83860094938538, 229.95526761604538, 230.07193428270537, 230.18860094936537, 230.4219342826987]	2021_Feb_04_1530	59.93481097039058	1	0.375
24	39	FALSE	NN	a	['T', 'B', 'W', 'R', 'J', 'Y', 'U', 'V', 'N', 'M', 'A', 'P', 'E', 'G', 'S', 'K']	[1888, 760, 2448, 1587, 1029, 2670, 2059, 2245, 1335, 1224, 697, 1456, 904, 944, 1731, 1122]	10	Absent	NA	NA	ABSENT	0.21135187149047852	232.39673399925232	234.4084529876709	235.225127522104	235.57512966785123	238.52580308914185	4.117350101470947	[232.41668891906738, 232.53367400169373, 233.5091269016266, 233.68477702140808, 234.43549990653992, 234.55247592926025, 234.66930508613586, 234.78588700294495, 234.90282797813416, 235.01947593688965, 235.13641691207886, 235.25333404541016, 235.36996698379517, 235.48650908470154, 235.60359001159668, 235.7201590538025, 235.8371319770813, 235.95381808280945, 236.07101702690125, 236.18742299079895, 236.30412101745605, 236.52580404281616]	[232.4219342826987, 232.53860094935868, 233.52160094935869, 233.68830094935868, 234.43830094935868, 234.55496761601867, 234.67163428267867, 234.78830094933866, 234.90496761599866, 235.02163428265865, 235.13830094931865, 235.25496761597864, 235.37163428263864, 235.48830094929863, 235.60496761595863, 235.72163428261862, 235.83830094927862, 235.9549676159386, 236.0716342825986, 236.1883009492586, 236.3049676159186, 236.53830094925192]	2021_Feb_04_1530	59.93481097039058	1	0.375
24	40	FALSE	VA	a	['J', 'Y', 'P', 'W', 'Z', 'U', 'C', 'B', 'surprise', 'G', 'N', 'X', 'K', 'T', 'H', 'R']	[1029, 2670, 1456, 2448, 2911, 2059, 829, 760, 'stimAuditory/all_stimAuditory/219.wav', 944, 1335, 4000, 1122, 1888, 986, 1587]	12	Present	NA	NA	PRESENT	0.2878451347351074	238.51991200447085	240.52473402023315	241.5747428416606	241.92474403373348	244.64216995239255	4.117435932159424	[238.53986501693726, 238.6568419933319, 239.62549304962158, 239.80804109573364, 240.5586850643158, 240.6756329536438, 240.7924211025238, 240.90924501419067, 241.02602100372314, 241.1426019668579, 241.2595989704132, 241.37629294395447, 241.4931559562683, 241.60999393463135, 241.72654604911804, 241.84346795082092, 241.96015405654907, 242.07709097862244, 242.19371891021729, 242.31068301200867, 242.42742395401, 242.64216899871826]	[238.53830094925192, 238.65496761591191, 239.63796761591192, 239.8046676159119, 240.5546676159119, 240.6713342825719, 240.7880009492319, 240.9046676158919, 241.0213342825519, 241.1380009492119, 241.25466761587188, 241.37133428253188, 241.48800094919187, 241.60466761585187, 241.72133428251186, 241.83800094917186, 241.95466761583185, 242.07133428249185, 242.18800094915184, 242.30466761581184, 242.42133428247183, 242.65466761580515]	2021_Feb_04_1530	59.93481097039058	1	0.375
24	41	FALSE	NV	a	['J', 'V', 'S', 'P', 'C', 'B', 'E', 'U', 'T', 'R', 'W', 'Z', 'X', 'Y', 'N', 'M']	[1029, 2245, 1731, 1456, 829, 760, 904, 2059, 1888, 1587, 2448, 2911, 4000, 2670, 1335, 1224]	13	Present	NA	NA	PRESENT	1.293241024017334	244.6432900428772	246.64105606079104	247.8077305952041	248.15773154885844	250.7585370540619	4.117480993270874	[244.66325497627258, 244.78004097938538, 245.74186205863953, 245.9143431186676, 246.6823809146881, 246.7820270061493, 246.89892601966858, 247.01571893692017, 247.13234400749207, 247.24907803535461, 247.36608004570007, 247.48293805122375, 247.59966492652893, 247.71640300750732, 247.83327102661133, 247.94987392425537, 248.06683897972107, 248.18352699279785, 248.30033802986145, 248.41707491874695, 248.53391909599304, 248.75853610038757]	[244.65466761580515, 244.77133428246515, 245.75433428246515, 245.92103428246514, 246.67103428246514, 246.78770094912514, 246.90436761578513, 247.02103428244513, 247.13770094910512, 247.25436761576512, 247.37103428242511, 247.4877009490851, 247.6043676157451, 247.7210342824051, 247.8377009490651, 247.9543676157251, 248.07103428238509, 248.18770094904508, 248.30436761570508, 248.42103428236507, 248.53770094902507, 248.77103428235839]	2021_Feb_04_1530	59.93481097039058	1	0.375
24	42	FALSE	NV	a	['C', 'J', 'K', 'U', 'T', 'G', 'Y', 'R', 'B', 'S', 'X', 'W', 'M', 'E', 'P', 'A']	[829, 1029, 1122, 2059, 1888, 944, 2670, 1587, 760, 1731, 4000, 2448, 1224, 904, 1456, 697]	11	Present	NA	NA	PRESENT	0.3058969974517822	250.7497000694275	252.75750184059143	253.6908423264288	254.04084423375744	256.8749029636383	4.117401123046875	[250.76965403556824, 250.88648104667664, 251.8582260608673, 252.03777694702148, 252.7884340286255, 252.90509390830994, 253.0219349861145, 253.13874006271362, 253.25540900230408, 253.37227392196655, 253.48909497261047, 253.6060230731964, 253.72294402122498, 253.8396360874176, 253.9563810825348, 254.0731189250946, 254.18997502326965, 254.30652499198914, 254.42351698875427, 254.54024505615234, 254.65708899497986, 254.8749029636383]	[250.77103428235839, 250.88770094901838, 251.87070094901839, 252.03740094901838, 252.78740094901838, 252.90406761567837, 253.02073428233837, 253.13740094899836, 253.25406761565836, 253.37073428231835, 253.48740094897835, 253.60406761563834, 253.72073428229834, 253.83740094895833, 253.95406761561833, 254.07073428227832, 254.18740094893832, 254.3040676155983, 254.4207342822583, 254.5374009489183, 254.6540676155783, 254.88740094891162]	2021_Feb_04_1530	59.93481097039058	1	0.375
24	43	FALSE	AA	a	['P', 'E', 'Y', 'N', 'surprise', 'H', 'C', 'X', 'A', 'R', 'M', 'Z', 'K', 'S', 'B', 'V']	[1456, 904, 2670, 1335, 'stimAuditory/all_stimAuditory/124.wav', 986, 829, 4000, 697, 1587, 1224, 2911, 1122, 1731, 760, 2245]	8	Present	stimAuditory/all_stimAuditory/216.wav	NA	PRESENT	0.3112671375274658	256.8732919692993	258.87379693984985	259.45713837938155	259.8071393330359	262.9912691116333	4.117472171783447	[256.89324593544006, 257.0095760822296, 257.97459506988525, 258.1609089374542, 258.91155195236206, 259.02821803092957, 259.14523696899414, 259.2620499134064, 259.3788011074066, 259.49561500549316, 259.6122739315033, 259.72906708717346, 259.8290390968323, 259.9458451271057, 260.0626940727234, 260.179484128952, 260.296334028244, 260.4130690097809, 260.5297899246216, 260.64658308029175, 260.7634470462799, 260.9912700653076]	[256.8874009489116, 257.0040676155716, 257.9870676155716, 258.1537676155716, 258.9037676155716, 259.02043428223163, 259.13710094889166, 259.2537676155517, 259.3704342822117, 259.4871009488717, 259.60376761553175, 259.7204342821918, 259.8371009488518, 259.9537676155118, 260.07043428217185, 260.18710094883187, 260.3037676154919, 260.4204342821519, 260.53710094881194, 260.65376761547196, 260.770434282132, 261.00376761546534]	2021_Feb_04_1530	59.93481097039058	1	0.375
24	44	FALSE	NV	a	['A', 'J', 'V', 'U', 'K', 'G', 'T', 'S', 'X', 'P', 'Y', 'N', 'R', 'H', 'W', 'Z']	[697, 1029, 2245, 2059, 1122, 944, 1888, 1731, 4000, 1456, 2670, 1335, 1587, 986, 2448, 2911]	9	Present	NA	NA	PRESENT	0.5875868797302246	262.97932505607605	264.99024295806885	265.6902520179349	266.04025297158915	269.10763692855835	4.117393970489502	[262.9992790222168, 263.1159670352936, 264.09096097946167, 264.2673509120941, 265.0181050300598, 265.13473200798035, 265.25170707702637, 265.36838006973267, 265.48500299453735, 265.6018989086151, 265.7189600467682, 265.83551692962646, 265.95248007774353, 266.06945991516113, 266.186105966568, 266.30271911621094, 266.41963505744934, 266.5363619327545, 266.653263092041, 266.7699410915375, 266.88681292533875, 267.10763597488403]	[263.00376761546534, 263.12043428212536, 264.10343428212536, 264.27013428212535, 265.02013428212535, 265.1368009487854, 265.2534676154454, 265.3701342821054, 265.48680094876545, 265.6034676154255, 265.7201342820855, 265.8368009487455, 265.95346761540554, 266.07013428206557, 266.1868009487256, 266.3034676153856, 266.42013428204564, 266.53680094870566, 266.6534676153657, 266.7701342820257, 266.88680094868573, 267.1201342820191]	2021_Feb_04_1530	59.93481097039058	1	0.375
24	45	FALSE	NA	a	['H', 'U', 'N', 'T', 'K', 'E', 'A', 'X', 'Y', 'G', 'V', 'P', 'B', 'M', 'S', 'W']	[986, 2059, 1335, 1888, 1122, 904, 697, 4000, 2670, 944, 2245, 1456, 760, 1224, 1731, 2448]	8	Present	NA	NA	PRESENT	0.7282459735870361	269.10260796546936	271.1066188812256	271.68995936708296	272.0399612744116	275.22400403022766	4.117385149002075	[269.12258291244507, 269.2390959262848, 270.2073299884796, 270.3905670642853, 271.14121198654175, 271.2580120563507, 271.3749051094055, 271.49166202545166, 271.60846996307373, 271.72519302368164, 271.84187507629395, 271.95890402793884, 272.0756049156189, 272.1923909187317, 272.3092439174652, 272.4259331226349, 272.54279494285583, 272.6596210002899, 272.7763900756836, 272.8929340839386, 273.0100018978119, 273.22400307655334]	[269.1201342820191, 269.2368009486791, 270.2198009486791, 270.3865009486791, 271.1365009486791, 271.2531676153391, 271.36983428199915, 271.48650094865917, 271.6031676153192, 271.7198342819792, 271.83650094863924, 271.95316761529926, 272.0698342819593, 272.1865009486193, 272.30316761527934, 272.41983428193936, 272.5365009485994, 272.6531676152594, 272.76983428191943, 272.88650094857945, 273.0031676152395, 273.2365009485728]	2021_Feb_04_1530	59.93481097039058	1	0.375
24	46	FALSE	NA	a	['S', 'J', 'K', 'B', 'Y', 'U', 'N', 'C', 'X', 'G', 'P', 'E', 'R', 'Z', 'V', 'A']	[1731, 1029, 1122, 760, 2670, 2059, 1335, 829, 4000, 944, 1456, 904, 1587, 2911, 2245, 697]	9	Present	NA	NA	PRESENT	0.3494889736175537	275.2257299423218	277.2229528427124	277.9229609489041	278.2729628562327	281.34036898612976	4.117416143417358	[275.2456839084625, 275.3455591201782, 276.3236930370331, 276.49737906455994, 277.2475130558014, 277.3643419742584, 277.4812560081482, 277.59809494018555, 277.71498012542725, 277.83170199394226, 277.94864797592163, 278.0652220249176, 278.1821320056915, 278.29888105392456, 278.41551399230957, 278.5322859287262, 278.64933800697327, 278.76610493659973, 278.8826789855957, 278.9996089935303, 279.1163549423218, 279.34036898612976]	[275.2365009485728, 275.35316761523285, 276.33616761523285, 276.50286761523284, 277.25286761523284, 277.36953428189287, 277.4862009485529, 277.6028676152129, 277.71953428187294, 277.83620094853296, 277.952867615193, 278.069534281853, 278.18620094851303, 278.30286761517306, 278.4195342818331, 278.5362009484931, 278.6528676151531, 278.76953428181315, 278.8862009484732, 279.0028676151332, 279.1195342817932, 279.35286761512657]	2021_Feb_04_1530	59.93481097039058	1	0.375
24	47	FALSE	NV	a	['E', 'J', 'M', 'C', 'U', 'P', 'G', 'T', 'X', 'H', 'B', 'Y', 'N', 'K', 'R', 'Z']	[904, 1029, 1224, 829, 2059, 1456, 944, 1888, 4000, 986, 760, 2670, 1335, 1122, 1587, 2911]	9	Present	NA	NA	PRESENT	0.32222485542297363	281.33202600479126	283.3392150402069	284.03922195430573	284.3892238616343	287.4567370414734	4.1175220012664795	[281.351979970932, 281.468740940094, 282.4400610923767, 282.6201660633087, 283.3709149360657, 283.4875841140747, 283.6045711040497, 283.7211821079254, 283.83805799484253, 283.9548580646515, 284.0714828968048, 284.18847489356995, 284.30528712272644, 284.42209100723267, 284.53888511657715, 284.65568804740906, 284.7723820209503, 284.8892230987549, 285.00600695610046, 285.1228849887848, 285.23952412605286, 285.4567370414734]	[281.35286761512657, 281.4695342817866, 282.4525342817866, 282.6192342817866, 283.3692342817866, 283.4859009484466, 283.60256761510664, 283.71923428176666, 283.8359009484267, 283.9525676150867, 284.06923428174673, 284.18590094840675, 284.3025676150668, 284.4192342817268, 284.5359009483868, 284.65256761504685, 284.7692342817069, 284.8859009483669, 285.0025676150269, 285.11923428168694, 285.23590094834697, 285.4692342816803]	2021_Feb_04_1530	59.93481097039058	1	0.375
24	48	FALSE	NV	a	['P', 'T', 'C', 'W', 'N', 'E', 'R', 'G', 'V', 'X', 'A', 'J', 'M', 'H', 'B', 'K']	[1456, 1888, 829, 2448, 1335, 904, 1587, 944, 2245, 4000, 697, 1029, 1224, 986, 760, 1122]	10	Present	NA	NA	PRESENT	0.20736193656921387	287.45563888549805	289.4557180404663	290.2723925748994	290.62239472064664	293.5731029510498	4.117384910583496	[287.4755930900574, 287.5921399593353, 288.5564250946045, 288.74315094947815, 289.494029045105, 289.61069893836975, 289.7275240421295, 289.8275330066681, 289.9443349838257, 290.06121802330017, 290.1779930591583, 290.29474210739136, 290.4115500450134, 290.5284149646759, 290.6451599597931, 290.76195907592773, 290.87874603271484, 290.9955689907074, 291.1124050617218, 291.22927808761597, 291.34600806236267, 291.5731039047241]	[287.4692342816803, 287.58590094834034, 288.56890094834034, 288.73560094834033, 289.48560094834033, 289.60226761500036, 289.7189342816604, 289.8356009483204, 289.9522676149804, 290.06893428164045, 290.1856009483005, 290.3022676149605, 290.4189342816205, 290.53560094828055, 290.65226761494057, 290.7689342816006, 290.8856009482606, 291.00226761492064, 291.11893428158066, 291.2356009482407, 291.3522676149007, 291.58560094823406]	2021_Feb_04_1530	59.93481097039058	1	0.375
24	49	FALSE	NA	a	['W', 'Z', 'E', 'N', 'K', 'T', 'P', 'G', 'X', 'A', 'J', 'Y', 'S', 'U', 'C', 'B']	[2448, 2911, 904, 1335, 1122, 1888, 1456, 944, 4000, 697, 1029, 2670, 1731, 2059, 829, 760]	9	Present	NA	NA	PRESENT	0.33989715576171875	293.5618579387665	295.5719840526581	296.27199287410554	296.6219950198527	299.6894769668579	4.117492914199829	[293.5818119049072, 293.6985490322113, 294.67279291152954, 294.84991812705994, 295.6005051136017, 295.7172029018402, 295.8341679573059, 295.95098090171814, 296.0676839351654, 296.18438601493835, 296.3012800216675, 296.41799306869507, 296.53505206108093, 296.6515591144562, 296.7685921192169, 296.88517808914185, 297.0021059513092, 297.11926794052124, 297.2357280254364, 297.3525619506836, 297.4691369533539, 297.6894700527191]	[293.58560094823406, 293.7022676148941, 294.6852676148941, 294.8519676148941, 295.6019676148941, 295.7186342815541, 295.8353009482141, 295.95196761487415, 296.0686342815342, 296.1853009481942, 296.3019676148542, 296.41863428151424, 296.53530094817427, 296.6519676148343, 296.7686342814943, 296.88530094815434, 297.00196761481436, 297.1186342814744, 297.2353009481344, 297.35196761479443, 297.46863428145446, 297.7019676147878]	2021_Feb_04_1530	59.93481097039058	1	0.375
24	50	FALSE	NA	a	['V', 'C', 'K', 'H', 'T', 'U', 'N', 'S', 'R', 'X', 'M', 'Y', 'Z', 'B', 'P', 'G']	[2245, 829, 1122, 986, 1888, 2059, 1335, 1731, 1587, 4000, 1224, 2670, 2911, 760, 1456, 944]	10	Present	NA	NA	PRESENT	0.5445270538330078	299.685133934021	301.68849301338196	302.50516754781506	302.8551696935623	305.80583596229553	4.117342948913574	[299.70509791374207, 299.8216531276703, 300.78916096687317, 300.97286200523376, 301.7236590385437, 301.84056401252747, 301.9572219848633, 302.07402896881104, 302.19096207618713, 302.3077459335327, 302.42460012435913, 302.54126501083374, 302.65809392929077, 302.77470898628235, 302.8917269706726, 303.0085120201111, 303.125324010849, 303.24210000038147, 303.35902094841003, 303.47572898864746, 303.5923309326172, 303.80583691596985]	[299.7019676147878, 299.8186342814478, 300.80163428144783, 300.9683342814478, 301.7183342814478, 301.83500094810785, 301.95166761476787, 302.0683342814279, 302.1850009480879, 302.30166761474794, 302.41833428140797, 302.535000948068, 302.651667614728, 302.76833428138804, 302.88500094804806, 303.0016676147081, 303.1183342813681, 303.23500094802813, 303.35166761468815, 303.4683342813482, 303.5850009480082, 303.81833428134155]	2021_Feb_04_1530	59.93481097039058	1	0.375
24	51	FALSE	NV	a	['E', 'Z', 'K', 'S', 'P', 'J', 'A', 'W', 'V', 'G', 'Y', 'X', 'U', 'T', 'M', 'B']	[904, 2911, 1122, 1731, 1456, 1029, 697, 2448, 2245, 944, 2670, 4000, 2059, 1888, 1224, 760]	12	Present	NA	NA	PRESENT	0.2935349941253662	305.7913088798523	307.8048460483551	308.8548529624339	309.2048548697625	311.92220401763916	4.117357969284058	[305.8112618923187, 305.9280209541321, 306.90552496910095, 307.079715013504, 307.83007407188416, 307.94693398475647, 308.06384801864624, 308.1806240081787, 308.2974169254303, 308.4141011238098, 308.53101897239685, 308.6478970050812, 308.764554977417, 308.8811619281769, 308.9982330799103, 309.11480593681335, 309.23172998428345, 309.3485310077667, 309.4653580188751, 309.5821979045868, 309.6987359523773, 309.92220401763916]	[305.81833428134155, 305.9350009480016, 306.9180009480016, 307.08470094800157, 307.83470094800157, 307.9513676146616, 308.0680342813216, 308.18470094798164, 308.30136761464166, 308.4180342813017, 308.5347009479617, 308.65136761462173, 308.76803428128176, 308.8847009479418, 309.0013676146018, 309.1180342812618, 309.23470094792185, 309.3513676145819, 309.4680342812419, 309.5847009479019, 309.70136761456195, 309.9347009478953]	2021_Feb_04_1530	59.93481097039058	1	0.375
24	52	FALSE	NV	a	['T', 'W', 'S', 'C', 'U', 'R', 'Z', 'N', 'X', 'J', 'Y', 'P', 'H', 'V', 'E', 'G']	[1888, 2448, 1731, 829, 2059, 1587, 2911, 1335, 4000, 1029, 2670, 1456, 986, 2245, 904, 944]	9	Present	NA	NA	PRESENT	0.1301860809326172	311.91470098495483	313.9210078716278	314.6210159778195	314.9710178851481	318.0385699272156	4.1175620555877686	[311.9346549510956, 312.0514850616455, 313.0218939781189, 313.20244693756104, 313.9534089565277, 314.07013511657715, 314.18677496910095, 314.3037099838257, 314.4206099510193, 314.5373260974884, 314.6539640426636, 314.7709119319916, 314.8875639438629, 315.0044889450073, 315.1213479042053, 315.2381639480591, 315.3547329902649, 315.471745967865, 315.58843898773193, 315.7052969932556, 315.8219509124756, 316.03856897354126]	[311.9347009478953, 312.0513676145553, 313.0343676145553, 313.2010676145553, 313.9510676145553, 314.06773428121534, 314.18440094787536, 314.3010676145354, 314.4177342811954, 314.53440094785543, 314.65106761451545, 314.7677342811755, 314.8844009478355, 315.0010676144955, 315.11773428115555, 315.2344009478156, 315.3510676144756, 315.4677342811356, 315.58440094779564, 315.70106761445567, 315.8177342811157, 316.05106761444904]	2021_Feb_04_1530	59.93481097039058	1	0.375
24	53	FALSE	AA	a	['Y', 'N', 'W', 'C', 'K', 'E', 'M', 'surprise', 'H', 'P', 'X', 'T', 'S', 'J', 'Z', 'A']	[2670, 1335, 2448, 829, 1122, 904, 1224, 'stimAuditory/all_stimAuditory/221.wav', 986, 1456, 4000, 1888, 1731, 1029, 2911, 697]	11	Present	stimAuditory/all_stimAuditory/218.wav	NA	PRESENT	0.27164697647094727	318.038223028183	320.03747606277466	320.9708172638678	321.3208191711964	324.1549370288849	4.1174609661102295	[318.05817794799805, 318.1745479106903, 319.1382601261139, 319.3258321285248, 320.07656598091125, 320.17655396461487, 320.29333305358887, 320.4100661277771, 320.5268518924713, 320.64372205734253, 320.76033902168274, 320.87728905677795, 320.994017124176, 321.11083793640137, 321.22759199142456, 321.34454107284546, 321.46142506599426, 321.5781149864197, 321.6948239803314, 321.8116970062256, 321.9286379814148, 322.15493607521057]	[318.05106761444904, 318.16773428110906, 319.15073428110907, 319.31743428110906, 320.06743428110906, 320.1841009477691, 320.3007676144291, 320.41743428108913, 320.53410094774915, 320.6507676144092, 320.7674342810692, 320.8841009477292, 321.00076761438925, 321.11743428104927, 321.2341009477093, 321.3507676143693, 321.46743428102934, 321.58410094768936, 321.7007676143494, 321.8174342810094, 321.93410094766944, 322.1674342810028]	2021_Feb_04_1530	59.93481097039058	1	0.375
24	54	FALSE	NN	a	['T', 'E', 'C', 'G', 'Z', 'S', 'U', 'V', 'N', 'B', 'J', 'W', 'Y', 'P', 'R', 'H']	[1888, 904, 829, 944, 2911, 1731, 2059, 2245, 1335, 760, 1029, 2448, 2670, 1456, 1587, 986]	10	Absent	NA	NA	ABSENT	0.29999589920043945	324.14441084861755	326.1539158821106	326.9705906549623	327.3205925622909	330.2713029384613	4.117387056350708	[324.16437792778015, 324.2808930873871, 325.2546260356903, 325.43210005760193, 326.1830699443817, 326.2998309135437, 326.4168300628662, 326.5333471298218, 326.65029406547546, 326.7670109272003, 326.8838379383087, 327.0004940032959, 327.11761498451233, 327.23410391807556, 327.3507981300354, 327.4678180217743, 327.58435010910034, 327.70131492614746, 327.8180510997772, 327.93487191200256, 328.0516269207001, 328.2713029384613]	[324.1674342810028, 324.2841009476628, 325.2671009476628, 325.4338009476628, 326.1838009476628, 326.3004676143228, 326.41713428098285, 326.5338009476429, 326.6504676143029, 326.7671342809629, 326.88380094762294, 327.00046761428297, 327.117134280943, 327.233800947603, 327.35046761426304, 327.46713428092306, 327.5838009475831, 327.7004676142431, 327.81713428090313, 327.93380094756316, 328.0504676142232, 328.28380094755653]	2021_Feb_04_1530	59.93481097039058	1	0.375
24	55	FALSE	NV	a	['M', 'J', 'N', 'V', 'R', 'S', 'W', 'K', 'C', 'Y', 'X', 'B', 'Z', 'E', 'A', 'H']	[1224, 1029, 1335, 2245, 1587, 1731, 2448, 1122, 829, 2670, 4000, 760, 2911, 904, 697, 986]	11	Present	NA	NA	PRESENT	0.3686220645904541	330.2675929069519	332.2702169418335	333.2035571892523	333.5535593349995	336.3876700401306	4.117453098297119	[330.28754711151123, 330.4041419029236, 331.37099504470825, 331.55528712272644, 332.3062949180603, 332.42309498786926, 332.53998589515686, 332.6566400527954, 332.7735769748688, 332.8900110721588, 333.0068941116333, 333.123596906662, 333.24059200286865, 333.3575351238251, 333.47423911094666, 333.5908589363098, 333.7076458930969, 333.8246479034424, 333.94125604629517, 334.0580699443817, 334.17498207092285, 334.3876700401306]	[330.28380094755653, 330.40046761421655, 331.38346761421656, 331.55016761421655, 332.30016761421655, 332.41683428087657, 332.5335009475366, 332.6501676141966, 332.76683428085664, 332.88350094751667, 333.0001676141767, 333.1168342808367, 333.23350094749674, 333.35016761415676, 333.4668342808168, 333.5835009474768, 333.70016761413683, 333.81683428079685, 333.9335009474569, 334.0501676141169, 334.1668342807769, 334.4001676141103]	2021_Feb_04_1530	59.93481097039058	1	0.375
24	56	FALSE	AA	a	['K', 'A', 'G', 'Y', 'U', 'V', 'T', 'surprise', 'W', 'S', 'X', 'J', 'M', 'B', 'E', 'P']	[1122, 697, 944, 2670, 2059, 2245, 1888, 'stimAuditory/all_stimAuditory/209.wav', 2448, 1731, 4000, 1029, 1224, 760, 904, 1456]	11	Present	stimAuditory/all_stimAuditory/116.wav	NA	PRESENT	0.31795597076416016	336.3738389015198	338.3866250514984	339.3199652989172	339.6699683983387	342.50403690338135	4.117411851882935	[336.3937931060791, 336.51082706451416, 337.48735904693604, 337.6619870662689, 338.4126601219177, 338.52944111824036, 338.64621591567993, 338.7630341053009, 338.88002705574036, 338.9964940547943, 339.1132299900055, 339.23030495643616, 339.34699392318726, 339.46383595466614, 339.5804660320282, 339.6972830295563, 339.8141119480133, 339.93103098869324, 340.0479509830475, 340.16463899612427, 340.2814140319824, 340.50403690338135]	[336.4001676141103, 336.5168342807703, 337.4998342807703, 337.6665342807703, 338.4165342807703, 338.5332009474303, 338.64986761409034, 338.76653428075036, 338.8832009474104, 338.9998676140704, 339.11653428073043, 339.23320094739046, 339.3498676140505, 339.4665342807105, 339.5832009473705, 339.69986761403055, 339.8165342806906, 339.9332009473506, 340.0498676140106, 340.16653428067065, 340.28320094733067, 340.516534280664]	2021_Feb_04_1530	59.93481097039058	1	0.375
24	57	FALSE	NA	a	['V', 'P', 'B', 'Y', 'N', 'R', 'A', 'H', 'U', 'G', 'W', 'J', 'X', 'T', 'Z', 'M']	[2245, 1456, 760, 2670, 1335, 1587, 697, 986, 2059, 944, 2448, 1029, 4000, 1888, 2911, 1224]	13	Present	NA	NA	PRESENT	0.7785899639129639	342.4970500469208	344.50306606292725	345.66973964366605	346.0197415509947	348.62040400505066	4.117337942123413	[342.5170040130615, 342.6338601112366, 343.60372591018677, 343.78495597839355, 344.53569507598877, 344.6527171134949, 344.76944303512573, 344.88632702827454, 345.0031530857086, 345.11996698379517, 345.2365140914917, 345.3534700870514, 345.47013998031616, 345.5868799686432, 345.70387506484985, 345.8206670284271, 345.9373381137848, 346.05405712127686, 346.1708791255951, 346.2875909805298, 346.404412984848, 346.620402097702]	[342.516534280664, 342.63320094732404, 343.61620094732405, 343.78290094732404, 344.53290094732404, 344.64956761398406, 344.7662342806441, 344.8829009473041, 344.99956761396413, 345.11623428062416, 345.2329009472842, 345.3495676139442, 345.4662342806042, 345.58290094726425, 345.6995676139243, 345.8162342805843, 345.9329009472443, 346.04956761390434, 346.16623428056437, 346.2829009472244, 346.3995676138844, 346.63290094721776]	2021_Feb_04_1530	59.93481097039058	1	0.375
24	58	FALSE	NN	a	['G', 'J', 'T', 'E', 'C', 'A', 'S', 'V', 'N', 'R', 'M', 'Y', 'U', 'P', 'B', 'K']	[944, 1029, 1888, 904, 829, 697, 1731, 2245, 1335, 1587, 1224, 2670, 2059, 1456, 760, 1122]	14	Absent	NA	NA	ABSENT	0.6240260601043701	348.6202199459076	350.61945700645447	351.90279939962045	352.2528013069491	354.7367699146271	4.117312908172607	[348.6401879787445, 348.75718212127686, 349.72009205818176, 349.89137601852417, 350.6590919494629, 350.758996963501, 350.87582206726074, 350.9927010536194, 351.10940504074097, 351.22624492645264, 351.3430070877075, 351.4598491191864, 351.5766839981079, 351.69343304634094, 351.8101170063019, 351.9270191192627, 352.0439450740814, 352.16054010391235, 352.27751898765564, 352.3940660953522, 352.5108389854431, 352.7367699146271]	[348.63290094721776, 348.7495676138778, 349.7325676138778, 349.8992676138778, 350.6492676138778, 350.7659342805378, 350.88260094719783, 350.99926761385785, 351.1159342805179, 351.2326009471779, 351.3492676138379, 351.46593428049795, 351.58260094715797, 351.699267613818, 351.815934280478, 351.93260094713804, 352.04926761379807, 352.1659342804581, 352.2826009471181, 352.39926761377814, 352.51593428043816, 352.7492676137715]	2021_Feb_04_1530	59.93481097039058	1	0.375
24	59	FALSE	NV	a	['P', 'E', 'C', 'A', 'M', 'W', 'B', 'X', 'T', 'Z', 'K', 'G', 'H', 'U', 'V', 'N']	[1456, 904, 829, 697, 1224, 2448, 760, 4000, 1888, 2911, 1122, 944, 986, 2059, 2245, 1335]	8	Present	NA	NA	PRESENT	0.3723988533020019	354.72686100006104	356.735643863678	357.31898434953536	357.668986256864	360.85313606262207	4.117492198944092	[354.7468149662018, 354.86351203918457, 355.8364579677582, 356.01478695869446, 356.7655050754547, 356.88231801986694, 356.9992609024048, 357.116338968277, 357.23266410827637, 357.34955310821533, 357.4662148952484, 357.5831038951874, 357.69985795021057, 357.8166079521179, 357.9335300922394, 358.0502710342407, 358.1670150756836, 358.28389406204224, 358.4006540775299, 358.51748609542847, 358.6341290473938, 358.85313606262207]	[354.7492676137715, 354.86593428043153, 355.84893428043154, 356.0156342804315, 356.7656342804315, 356.88230094709155, 356.9989676137516, 357.1156342804116, 357.2323009470716, 357.34896761373165, 357.46563428039167, 357.5823009470517, 357.6989676137117, 357.81563428037174, 357.93230094703176, 358.0489676136918, 358.1656342803518, 358.28230094701183, 358.39896761367186, 358.5156342803319, 358.6323009469919, 358.86563428032525]	2021_Feb_04_1530	59.93481097039058	1	0.375
24	60	FALSE	NA	a	['P', 'T', 'A', 'C', 'Z', 'G', 'Y', 'R', 'W', 'S', 'U', 'V', 'X', 'B', 'J', 'H']	[1456, 1888, 697, 829, 2911, 944, 2670, 1587, 2448, 1731, 2059, 2245, 4000, 760, 1029, 986]	13	Present	NA	NA	PRESENT	0.321897029876709	360.8500030040741	362.852068901062	364.0187436738937	364.3687455812224	366.9695029258728	4.117434024810791	[360.86995697021484, 360.9867720603943, 361.9528260231018, 362.137934923172, 362.88861989974976, 363.00557708740234, 363.1221740245819, 363.2391679286957, 363.3562729358673, 363.4726929664612, 363.58947491645813, 363.7063789367676, 363.822988986969, 363.93988394737244, 364.05660605430603, 364.173299074173, 364.29012799263, 364.4071218967438, 364.52363991737366, 364.64068698883057, 364.7574419975281, 364.9695019721985]	[360.86563428032525, 360.9823009469853, 361.9653009469853, 362.1320009469853, 362.8820009469853, 362.9986676136453, 363.1153342803053, 363.23200094696534, 363.34866761362537, 363.4653342802854, 363.5820009469454, 363.69866761360544, 363.81533428026546, 363.9320009469255, 364.0486676135855, 364.16533428024553, 364.28200094690555, 364.3986676135656, 364.5153342802256, 364.6320009468856, 364.74866761354565, 364.982000946879]	2021_Feb_04_1530	59.93481097039058	1	0.375
24	61	FALSE	NA	a	['P', 'T', 'K', 'U', 'W', 'M', 'N', 'J', 'B', 'X', 'Z', 'V', 'A', 'H', 'R', 'Y']	[1456, 1888, 1122, 2059, 2448, 1224, 1335, 1029, 760, 4000, 2911, 2245, 697, 986, 1587, 2670]	10	Present	NA	NA	PRESENT	0.7261378765106201	366.9562599658966	368.96838688850403	369.7850607076814	370.1350626150101	373.0858700275421	4.117483139038086	[366.97621297836304, 367.09350204467773, 368.0691909790039, 368.2444489002228, 368.9951710700989, 369.1119329929352, 369.2288179397583, 369.34541511535645, 369.4623908996582, 369.57913398742676, 369.6960759162903, 369.81275606155396, 369.9296250343323, 370.04627203941345, 370.1628830432892, 370.2798960208893, 370.3965039253235, 370.51359009742737, 370.630224943161, 370.7471249103546, 370.863774061203, 371.0858690738678]	[366.982000946879, 367.098667613539, 368.081667613539, 368.248367613539, 368.998367613539, 369.11503428019904, 369.23170094685906, 369.3483676135191, 369.4650342801791, 369.58170094683913, 369.69836761349916, 369.8150342801592, 369.9317009468192, 370.04836761347923, 370.16503428013925, 370.2817009467993, 370.3983676134593, 370.5150342801193, 370.63170094677935, 370.74836761343937, 370.8650342800994, 371.09836761343274]	2021_Feb_04_1530	59.93481097039058	1	0.375
24	62	FALSE	NA	a	['N', 'T', 'M', 'E', 'W', 'S', 'G', 'Z', 'R', 'C', 'A', 'J', 'X', 'B', 'V', 'P']	[1335, 1888, 1224, 904, 2448, 1731, 944, 2911, 1587, 829, 697, 1029, 4000, 760, 2245, 1456]	13	Present	NA	NA	PRESENT	0.39440083503723145	373.07969999313354	375.084636926651	376.2513116994827	376.60131360681135	379.2022371292114	4.117600202560425	[373.09967708587646, 373.21636605262756, 374.18556094169617, 374.3676519393921, 375.1182761192322, 375.23529505729675, 375.35184502601624, 375.4687330722809, 375.58564710617065, 375.702260017395, 375.8191499710083, 375.9360249042511, 376.05260396003723, 376.1695189476013, 376.28633999824524, 376.4030809402466, 376.51974296569824, 376.63668394088745, 376.7535390853882, 376.87017703056335, 376.9871120452881, 377.2022371292114]	[373.09836761343274, 373.21503428009277, 374.19803428009277, 374.36473428009276, 375.11473428009276, 375.2314009467528, 375.3480676134128, 375.46473428007283, 375.58140094673286, 375.6980676133929, 375.8147342800529, 375.9314009467129, 376.04806761337295, 376.164734280033, 376.281400946693, 376.398067613353, 376.51473428001304, 376.63140094667307, 376.7480676133331, 376.8647342799931, 376.98140094665314, 377.2147342799865]	2021_Feb_04_1530	59.93481097039058	1	0.375
24	63	FALSE	NV	a	['S', 'W', 'Y', 'V', 'R', 'P', 'J', 'E', 'X', 'H', 'Z', 'K', 'N', 'C', 'U', 'G']	[1731, 2448, 2670, 2245, 1587, 1456, 1029, 904, 4000, 986, 2911, 1122, 1335, 829, 2059, 944]	9	Present	NA	NA	PRESENT	0.4240720272064209	379.2026710510254	381.2012310028076	381.9012388705808	382.2512410163279	385.31860303878784	4.117372035980225	[379.22262597084045, 379.3393859863281, 380.3019289970398, 380.4738130569458, 381.2415919303894, 381.3415849208832, 381.4585359096527, 381.57517290115356, 381.69212198257446, 381.80872797966003, 381.9257290363312, 382.0423409938812, 382.1592769622803, 382.275985956192, 382.39276003837585, 382.5095500946045, 382.6261830329895, 382.7431790828705, 382.8598721027374, 382.97686791419983, 383.09338092803955, 383.31860303878784]	[379.2147342799865, 379.3314009466465, 380.3144009466465, 380.4811009466465, 381.2311009466465, 381.34776761330653, 381.46443427996655, 381.5811009466266, 381.6977676132866, 381.8144342799466, 381.93110094660665, 382.04776761326667, 382.1644342799267, 382.2811009465867, 382.39776761324674, 382.51443427990677, 382.6311009465668, 382.7477676132268, 382.86443427988684, 382.98110094654686, 383.0977676132069, 383.33110094654023]	2021_Feb_04_1530	59.93481097039058	1	0.375
24	64	FALSE	NA	a	['K', 'E', 'V', 'W', 'S', 'C', 'A', 'M', 'H', 'R', 'T', 'Z', 'U', 'X', 'B', 'G']	[1122, 904, 2245, 2448, 1731, 829, 697, 1224, 986, 1587, 1888, 2911, 2059, 4000, 760, 944]	14	Present	NA	NA	PRESENT	0.4926919937133789	385.3093099594116	387.3175020217895	388.60084322286264	388.95084536860986	391.4349699020386	4.117467880249023	[385.32926392555237, 385.44602608680725, 386.4182929992676, 386.5972089767456, 387.3483910560608, 387.4648699760437, 387.5815029144287, 387.698303937912, 387.8152539730072, 387.9319999217987, 388.0488259792328, 388.1657280921936, 388.28241896629333, 388.39910912513733, 388.5158169269562, 388.6326959133148, 388.74947810173035, 388.8662760257721, 388.9831199645996, 389.0997750759125, 389.2165570259094, 389.4349699020386]	[385.33110094654023, 385.44776761320026, 386.43076761320026, 386.59746761320025, 387.34746761320025, 387.4641342798603, 387.5808009465203, 387.6974676131803, 387.81413427984035, 387.93080094650037, 388.0474676131604, 388.1641342798204, 388.28080094648044, 388.39746761314046, 388.5141342798005, 388.6308009464605, 388.74746761312053, 388.86413427978056, 388.9808009464406, 389.0974676131006, 389.21413427976063, 389.447467613094]	2021_Feb_04_1530	59.93481097039058	1	0.375
24	65	FALSE	AV	a	['H', 'W', 'N', 'C', 'E', 'T', 'Y', 'J', 'A', 'S', 'surprise', 'U', 'K', 'X', 'P', 'V']	[986, 2448, 1335, 829, 904, 1888, 2670, 1029, 697, 1731, 'stimAuditory/all_stimAuditory/111.wav', 2059, 1122, 4000, 1456, 2245]	14	Present	stimAuditory/all_stimAuditory/219.wav	NA	PRESENT	0.29839301109313965	391.43236088752747	393.4338450431824	394.71718624425546	395.0671883900027	397.5513370037079	4.117491960525513	[391.4523138999939, 391.5690059661865, 392.5346620082855, 392.7202560901642, 393.4710519313812, 393.5880780220032, 393.70482206344604, 393.8216540813446, 393.93834495544434, 394.05499792099, 394.17204093933105, 394.2886950969696, 394.4055690765381, 394.5222749710083, 394.6392889022827, 394.7558169364929, 394.8725390434265, 394.9726490974426, 395.08932399749756, 395.20623111724854, 395.32305002212524, 395.5513370037079]	[391.447467613094, 391.564134279754, 392.547134279754, 392.713834279754, 393.463834279754, 393.580500946414, 393.69716761307404, 393.81383427973407, 393.9305009463941, 394.0471676130541, 394.16383427971414, 394.28050094637416, 394.3971676130342, 394.5138342796942, 394.63050094635423, 394.74716761301426, 394.8638342796743, 394.9805009463343, 395.0971676129943, 395.21383427965435, 395.3305009463144, 395.5638342796477]	2021_Feb_04_1530	59.93481097039058	1	0.375
24	66	FALSE	NN	a	['N', 'Y', 'J', 'B', 'K', 'U', 'G', 'W', 'S', 'R', 'V', 'C', 'H', 'M', 'A', 'P']	[1335, 2670, 1029, 760, 1122, 2059, 944, 2448, 1731, 1587, 2245, 829, 986, 1224, 697, 1456]	12	Absent	NA	NA	ABSENT	0.8547039031982422	397.5392289161682	399.55010294914246	400.6001098632212	400.9501129626428	403.66770195961	4.117599010467529	[397.55918312072754, 397.67555809020996, 398.6510241031647, 398.82704997062683, 399.5775990486145, 399.6944041252136, 399.8113911151886, 399.928071975708, 400.04477310180664, 400.1617240905762, 400.2784481048584, 400.39536690711975, 400.5121419429779, 400.6289300918579, 400.74570894241333, 400.86236095428467, 400.9790060520172, 401.0957520008087, 401.2126479148865, 401.32956099510193, 401.44640612602234, 401.66770195961]	[397.5638342796477, 397.68050094630775, 398.66350094630775, 398.83020094630774, 399.58020094630774, 399.69686761296776, 399.8135342796278, 399.9302009462878, 400.04686761294784, 400.16353427960786, 400.2802009462679, 400.3968676129279, 400.51353427958793, 400.63020094624795, 400.746867612908, 400.863534279568, 400.980200946228, 401.09686761288805, 401.21353427954807, 401.3302009462081, 401.4468676128681, 401.68020094620147]	2021_Feb_04_1530	59.93481097039058	1	0.375
24	67	FALSE	NA	a	['H', 'S', 'Y', 'Z', 'C', 'N', 'E', 'W', 'X', 'A', 'B', 'J', 'G', 'M', 'P', 'U']	[986, 1731, 2670, 2911, 829, 1335, 904, 2448, 4000, 697, 760, 1029, 944, 1224, 1456, 2059]	9	Present	NA	NA	PRESENT	0.3709220886230469	403.661994934082	405.6665668487549	406.3665749549466	406.7165768622752	409.7840700149536	4.1175031661987305	[403.68196201324463, 403.7988579273224, 404.7673900127411, 404.9501349925995, 405.7007260322571, 405.8177571296692, 405.9345180988312, 406.05135798454285, 406.1679530143738, 406.2848479747772, 406.40167808532715, 406.5184450149536, 406.6352729797363, 406.7519199848175, 406.8686819076538, 406.98565912246704, 407.1025609970093, 407.2189950942993, 407.33594393730164, 407.4525411128998, 407.5696120262146, 407.7840700149536]	[403.68020094620147, 403.7968676128615, 404.7798676128615, 404.9465676128615, 405.6965676128615, 405.8132342795215, 405.92990094618153, 406.04656761284156, 406.1632342795016, 406.2799009461616, 406.3965676128216, 406.51323427948165, 406.6299009461417, 406.7465676128017, 406.8632342794617, 406.97990094612175, 407.09656761278177, 407.2132342794418, 407.3299009461018, 407.44656761276184, 407.56323427942186, 407.7965676127552]	2021_Feb_04_1530	59.93481097039058	1	0.375
24	68	FALSE	NV	a	['Z', 'G', 'N', 'J', 'H', 'C', 'E', 'W', 'B', 'P', 'X', 'T', 'R', 'K', 'A', 'U']	[2911, 944, 1335, 1029, 986, 829, 904, 2448, 760, 1456, 4000, 1888, 1587, 1122, 697, 2059]	11	Present	NA	NA	PRESENT	0.32837486267089844	409.78519105911255	411.78287386894226	412.716215308454	413.06621721578256	415.9004371166229	4.117563247680664	[409.8051450252533, 409.9220860004425, 410.8837630748749, 411.05651092529297, 411.82387804985046, 411.9240438938141, 412.0410671234131, 412.157644033432, 412.2745850086212, 412.3912100791931, 412.50807094573975, 412.6250081062317, 412.7415499687195, 412.8582899570465, 412.9751179218292, 413.09208703041077, 413.20898699760437, 413.32555890083313, 413.4424889087677, 413.5591781139374, 413.6760210990906, 413.90043807029724]	[409.7965676127552, 409.91323427941524, 410.89623427941524, 411.06293427941523, 411.81293427941523, 411.92960094607525, 412.0462676127353, 412.1629342793953, 412.2796009460553, 412.39626761271535, 412.5129342793754, 412.6296009460354, 412.7462676126954, 412.86293427935544, 412.97960094601547, 413.0962676126755, 413.2129342793355, 413.32960094599554, 413.44626761265556, 413.5629342793156, 413.6796009459756, 413.91293427930896]	2021_Feb_04_1530	59.93481097039058	1	0.375
24	69	FALSE	NA	a	['H', 'U', 'G', 'J', 'S', 'P', 'E', 'T', 'A', 'V', 'B', 'X', 'M', 'Z', 'K', 'N']	[986, 2059, 944, 1029, 1731, 1456, 904, 1888, 697, 2245, 760, 4000, 1224, 2911, 1122, 1335]	12	Present	NA	NA	PRESENT	0.1568291187286377	415.8917520046234	417.8993408679962	418.9493489741679	419.29935088149654	422.01680302619934	4.117462158203125	[415.91170597076416, 416.02842807769775, 417.00012707710266, 417.1801121234894, 417.9304349422455, 418.047336101532, 418.16411304473877, 418.28099393844604, 418.3976221084595, 418.514545917511, 418.63124799728394, 418.74812412261963, 418.86481189727783, 418.9817099571228, 419.0984139442444, 419.21536207199097, 419.3319001197815, 419.44887590408325, 419.5657260417938, 419.68230509757996, 419.7991819381714, 420.01680302619934]	[415.91293427930896, 416.029600945969, 417.012600945969, 417.179300945969, 417.929300945969, 418.045967612629, 418.162634279289, 418.27930094594905, 418.39596761260907, 418.5126342792691, 418.6293009459291, 418.74596761258914, 418.86263427924916, 418.9793009459092, 419.0959676125692, 419.21263427922923, 419.32930094588926, 419.4459676125493, 419.5626342792093, 419.67930094586933, 419.79596761252935, 420.0293009458627]	2021_Feb_04_1530	59.93481097039058	1	0.375
24	70	FALSE	NA	a	['P', 'V', 'S', 'W', 'R', 'J', 'K', 'B', 'X', 'A', 'M', 'H', 'C', 'G', 'U', 'Y']	[1456, 2245, 1731, 2448, 1587, 1029, 1122, 760, 4000, 697, 1224, 986, 829, 944, 2059, 2670]	9	Present	NA	NA	PRESENT	0.30635499954223633	422.01486587524414	424.0157060623169	424.71571393009	425.0657158374186	428.13316893577576	4.117462873458862	[422.03482007980347, 422.15149903297424, 423.1164929866791, 423.3028919696808, 424.0536320209503, 424.1703610420227, 424.2873899936676, 424.40406107902527, 424.5209629535675, 424.6378049850464, 424.7544479370117, 424.87136602401733, 424.97115898132324, 425.0880389213562, 425.20483899116516, 425.32164311408997, 425.4384300708771, 425.5552520751953, 425.6719129085541, 425.78864312171936, 425.90546703338623, 426.13316893577576]	[422.0293009458627, 422.1459676125227, 423.12896761252273, 423.2956676125227, 424.0456676125227, 424.16233427918274, 424.27900094584277, 424.3956676125028, 424.5123342791628, 424.62900094582284, 424.74566761248286, 424.8623342791429, 424.9790009458029, 425.09566761246293, 425.21233427912296, 425.329000945783, 425.445667612443, 425.562334279103, 425.67900094576305, 425.7956676124231, 425.9123342790831, 426.14566761241645]	2021_Feb_04_1530	59.93481097039058	1	0.375
24	71	FALSE	NV	a	['G', 'M', 'E', 'R', 'T', 'W', 'V', 'Z', 'X', 'J', 'S', 'B', 'P', 'H', 'U', 'A']	[944, 1224, 904, 1587, 1888, 2448, 2245, 2911, 4000, 1029, 1731, 760, 1456, 986, 2059, 697]	9	Present	NA	NA	PRESENT	0.21462202072143555	428.1217179298401	430.132052898407	430.8320600509244	431.182061958253	434.24953603744507	4.117483139038086	[428.14167189598083, 428.2581489086151, 429.2328588962555, 429.40929794311523, 430.1600921154022, 430.2770640850067, 430.3936960697174, 430.5105891227722, 430.6272671222687, 430.74416995048523, 430.8609299659729, 430.9777410030365, 431.0944139957428, 431.21112298965454, 431.3281080722809, 431.44496607780457, 431.56167793273926, 431.67851090431213, 431.7952630519867, 431.91187596321106, 432.0288529396057, 432.2495369911194]	[428.14566761241645, 428.26233427907647, 429.2453342790765, 429.41203427907647, 430.16203427907647, 430.2787009457365, 430.3953676123965, 430.51203427905654, 430.62870094571656, 430.7453676123766, 430.8620342790366, 430.97870094569663, 431.09536761235665, 431.2120342790167, 431.3287009456767, 431.4453676123367, 431.56203427899675, 431.6787009456568, 431.7953676123168, 431.9120342789768, 432.02870094563684, 432.2620342789702]	2021_Feb_04_1530	59.93481097039058	1	0.375
24	72	FALSE	NV	a	['T', 'E', 'J', 'B', 'K', 'Z', 'V', 'M', 'P', 'R', 'G', 'X', 'C', 'N', 'W', 'A']	[1888, 904, 1029, 760, 1122, 2911, 2245, 1224, 1456, 1587, 944, 4000, 829, 1335, 2448, 697]	12	Present	NA	NA	PRESENT	0.40316104888916016	434.2444519996643	436.2483398914337	437.2983470439311	437.6483489512597	440.3659029006958	4.117563009262085	[434.26440596580505, 434.38126492500305, 435.3492259979248, 435.5324459075928, 436.28322196006775, 436.4001319408417, 436.51696705818176, 436.63364696502686, 436.7506799697876, 436.867280960083, 436.9840660095215, 437.10093212127686, 437.2177369594574, 437.33447790145874, 437.45143389701843, 437.568088054657, 437.68492603302, 437.8017020225525, 437.91858291625977, 438.03515005111694, 438.15233302116394, 438.3659019470215]	[434.2620342789702, 434.3787009456302, 435.3617009456302, 435.5284009456302, 436.2784009456302, 436.39506761229023, 436.51173427895026, 436.6284009456103, 436.7450676122703, 436.8617342789303, 436.97840094559035, 437.0950676122504, 437.2117342789104, 437.3284009455704, 437.44506761223045, 437.56173427889047, 437.6784009455505, 437.7950676122105, 437.91173427887054, 438.02840094553056, 438.1450676121906, 438.37840094552394]	2021_Feb_04_1530	59.93481097039058	1	0.375
24	73	FALSE	NA	a	['P', 'B', 'R', 'A', 'E', 'K', 'T', 'X', 'G', 'W', 'N', 'Z', 'C', 'M', 'U', 'J']	[1456, 760, 1587, 697, 904, 1122, 1888, 4000, 944, 2448, 1335, 2911, 829, 1224, 2059, 1029]	8	Present	NA	NA	PRESENT	0.44061708450317383	440.3676278591156	442.3647880554199	442.9481283028587	443.29813021018737	446.4822700023651	4.11748194694519	[440.3875820636749, 440.48762106895447, 441.4655919075012, 441.638876914978, 442.3896110057831, 442.5066599845886, 442.6234209537506, 442.74025893211365, 442.8569040298462, 442.97387504577637, 443.0904190540314, 443.20738911628723, 443.3242139816284, 443.44104290008545, 443.5576629638672, 443.6744339466095, 443.7912380695343, 443.9083020687103, 444.0249171257019, 444.14181900024414, 444.2584431171417, 444.4822700023651]	[440.37840094552394, 440.49506761218396, 441.47806761218396, 441.64476761218395, 442.39476761218395, 442.511434278844, 442.628100945504, 442.744767612164, 442.86143427882405, 442.9781009454841, 443.0947676121441, 443.2114342788041, 443.32810094546414, 443.44476761212417, 443.5614342787842, 443.6781009454442, 443.79476761210424, 443.91143427876426, 444.0281009454243, 444.1447676120843, 444.26143427874433, 444.4947676120777]	2021_Feb_04_1530	59.93481097039058	1	0.375
24	74	FALSE	NN	a	['G', 'V', 'C', 'N', 'B', 'E', 'H', 'T', 'W', 'U', 'Y', 'K', 'A', 'S', 'J', 'M']	[944, 2245, 829, 1335, 760, 904, 986, 1888, 2448, 2059, 2670, 1122, 697, 1731, 1029, 1224]	9	Absent	NA	NA	ABSENT	0.4850010871887207	446.47434186935425	448.48110699653625	449.1811139106351	449.53111605638225	452.59863591194153	4.117528915405273	[446.49430990219116, 446.6110649108887, 447.58196091651917, 447.7621560096741, 448.51320791244507, 448.62984800338745, 448.74662709236145, 448.8633830547333, 448.98011207580566, 449.09677600860596, 449.2136809825897, 449.330668926239, 449.4472830295563, 449.5639350414276, 449.6809480190277, 449.7975571155548, 449.9146249294281, 450.0311450958252, 450.1480190753937, 450.264769077301, 450.3817141056061, 450.5986359119415]	[446.4947676120777, 446.6114342787377, 447.5944342787377, 447.7611342787377, 448.5111342787377, 448.6278009453977, 448.74446761205775, 448.86113427871777, 448.9778009453778, 449.0944676120378, 449.21113427869784, 449.32780094535786, 449.4444676120179, 449.5611342786779, 449.67780094533794, 449.79446761199796, 449.911134278658, 450.027800945318, 450.14446761197803, 450.26113427863805, 450.3778009452981, 450.6111342786314]	2021_Feb_04_1530	59.93481097039058	1	0.375
24	75	FALSE	AN	a	['U', 'K', 'C', 'G', 'surprise', 'Z', 'N', 'V', 'H', 'S', 'Y', 'R', 'M', 'W', 'B', 'E']	[2059, 1122, 829, 944, 'stimAuditory/all_stimAuditory/224.wav', 2911, 1335, 2245, 986, 1731, 2670, 1587, 1224, 2448, 760, 904]	8	Absent	stimAuditory/all_stimAuditory/124.wav	NA	ABSENT	0.7704660892486572	452.597286939621	454.5975570678711	455.1808982689842	455.53090017631285	458.7150020599365	4.11744499206543	[452.6172409057617, 452.73402404785156, 453.69832611083984, 453.88517808914185, 454.6361560821533, 454.7360908985138, 454.8529179096222, 454.9696400165558, 455.0864419937134, 455.2033030986786, 455.3200659751892, 455.43681502342224, 455.5536630153656, 455.6704580783844, 455.7873020172119, 455.9039831161499, 456.0208740234375, 456.1375949382782, 456.2545020580292, 456.3712410926819, 456.4881269931793, 456.71500301361084]	[452.6111342786314, 452.72780094529145, 453.71080094529145, 453.87750094529144, 454.62750094529144, 454.74416761195147, 454.8608342786115, 454.9775009452715, 455.09416761193154, 455.21083427859156, 455.3275009452516, 455.4441676119116, 455.56083427857163, 455.67750094523166, 455.7941676118917, 455.9108342785517, 456.0275009452117, 456.14416761187175, 456.2608342785318, 456.3775009451918, 456.4941676118518, 456.72750094518517]	2021_Feb_04_1530	59.93481097039058	1	0.375
24	76	FALSE	NA	a	['G', 'M', 'B', 'J', 'U', 'Z', 'N', 'V', 'W', 'H', 'S', 'X', 'C', 'K', 'Y', 'P']	[944, 1224, 760, 1029, 2059, 2911, 1335, 2245, 2448, 986, 1731, 4000, 829, 1122, 2670, 1456]	12	Present	NA	NA	PRESENT	0.30321502685546875	458.7041590213776	460.71392798423767	461.76393704408366	462.1139389514123	464.83136892318726	4.117440938949585	[458.7241129875183, 458.84059405326843, 459.8146929740906, 459.9917070865631, 460.74255895614624, 460.8593559265137, 460.9761469364166, 461.0930759906769, 461.20962405204773, 461.3266251087189, 461.44347190856934, 461.5602741241455, 461.67689299583435, 461.7938380241394, 461.9106059074402, 462.02735805511475, 462.14426612854004, 462.26082611083984, 462.37783908843994, 462.4944500923157, 462.6113951206207, 462.83136892318726]	[458.72750094518517, 458.8441676118452, 459.8271676118452, 459.9938676118452, 460.7438676118452, 460.8605342785052, 460.97720094516524, 461.09386761182526, 461.2105342784853, 461.3272009451453, 461.44386761180533, 461.56053427846535, 461.6772009451254, 461.7938676117854, 461.9105342784454, 462.02720094510545, 462.1438676117655, 462.2605342784255, 462.3772009450855, 462.49386761174554, 462.61053427840557, 462.8438676117389]	2021_Feb_04_1530	59.93481097039058	1	0.375
24	77	FALSE	NN	a	['T', 'V', 'Z', 'G', 'K', 'B', 'S', 'U', 'J', 'Y', 'R', 'C', 'N', 'H', 'A', 'P']	[1888, 2245, 2911, 944, 1122, 760, 1731, 2059, 1029, 2670, 1587, 829, 1335, 986, 697, 1456]	12	Absent	NA	NA	ABSENT	0.4354679584503174	464.8271288871765	466.830365896225	467.88037495607097	468.2303768633996	470.94773602485657	4.117370128631592	[464.84708309173584, 464.9638559818268, 465.9310610294342, 466.1150870323181, 466.8658139705658, 466.98243403434753, 467.0992920398712, 467.21617007255554, 467.33302307128906, 467.44961404800415, 467.5666310787201, 467.68328404426575, 467.8000099658966, 467.9170169830322, 468.0336420536041, 468.1507511138916, 468.26720094680786, 468.3840789794922, 468.5007610321045, 468.61774706840515, 468.7343900203705, 468.9477379322052]	[464.8438676117389, 464.96053427839894, 465.94353427839894, 466.11023427839893, 466.86023427839893, 466.97690094505896, 467.093567611719, 467.210234278379, 467.32690094503903, 467.44356761169905, 467.5602342783591, 467.6769009450191, 467.7935676116791, 467.91023427833915, 468.02690094499917, 468.1435676116592, 468.2602342783192, 468.37690094497924, 468.49356761163926, 468.6102342782993, 468.7269009449593, 468.96023427829266]	2021_Feb_04_1530	59.93481097039058	1	0.375
24	78	FALSE	NV	a	['N', 'E', 'U', 'Y', 'R', 'C', 'Z', 'S', 'X', 'T', 'P', 'B', 'W', 'J', 'A', 'M']	[1335, 904, 2059, 2670, 1587, 829, 2911, 1731, 4000, 1888, 1456, 760, 2448, 1029, 697, 1224]	9	Present	NA	NA	PRESENT	1.2808029651641846	470.9334590435028	472.9465298652649	473.6465379714566	473.9965398787852	477.0641031265259	4.117573261260986	[470.9534239768982, 471.07007098197937, 472.0474269390106, 472.22159695625305, 472.9721620082855, 473.0891499519348, 473.20567202568054, 473.32272601127625, 473.43959307670593, 473.55630707740784, 473.6731541156769, 473.78995990753174, 473.9064700603485, 474.02356004714966, 474.1402430534363, 474.2571361064911, 474.37388706207275, 474.49066710472107, 474.60739398002625, 474.72425389289856, 474.840940952301, 475.0641031265259]	[470.96023427829266, 471.0769009449527, 472.0599009449527, 472.2266009449527, 472.9766009449527, 473.0932676116127, 473.2099342782727, 473.32660094493275, 473.4432676115928, 473.5599342782528, 473.6766009449128, 473.79326761157284, 473.90993427823287, 474.0266009448929, 474.1432676115529, 474.25993427821294, 474.37660094487296, 474.493267611533, 474.609934278193, 474.72660094485303, 474.84326761151306, 475.0766009448464]	2021_Feb_04_1530	59.93481097039058	1	0.375
24	79	FALSE	NN	a	['J', 'C', 'M', 'V', 'K', 'S', 'G', 'H', 'P', 'Y', 'Z', 'U', 'T', 'W', 'E', 'N']	[1029, 829, 1224, 2245, 1122, 1731, 944, 986, 1456, 2670, 2911, 2059, 1888, 2448, 904, 1335]	8	Absent	NA	NA	ABSENT	0.32538390159606934	477.05661487579346	479.06300806999207	479.6463492711052	479.9963511784338	483.1804690361023	4.1174609661102295	[477.0765690803528, 477.19356298446655, 478.16379404067993, 478.34495997428894, 479.0954821109772, 479.2122209072113, 479.32902097702026, 479.44585394859314, 479.562686920166, 479.67937994003296, 479.79638409614563, 479.9128770828247, 480.02983808517456, 480.14660692214966, 480.26346707344055, 480.3801779747009, 480.49700689315796, 480.61389803886414, 480.7306818962097, 480.84743094444275, 480.96409010887146, 481.1804690361023]	[477.0766009448464, 477.1932676115064, 478.17626761150643, 478.3429676115064, 479.0929676115064, 479.20963427816645, 479.32630094482647, 479.4429676114865, 479.5596342781465, 479.67630094480654, 479.79296761146657, 479.9096342781266, 480.0263009447866, 480.14296761144664, 480.25963427810666, 480.3763009447667, 480.4929676114267, 480.60963427808673, 480.72630094474675, 480.8429676114068, 480.9596342780668, 481.19296761140015]	2021_Feb_04_1530	59.93481097039058	1	0.375
