participant	trial_num	practice	task	condition	RSVP	RAP	probePos	probe_presence	surprise_sound	surprise_img	probe_response	probe_resp_time	first_fixation_time	trial_start_time	surprise_start_time	probe_start_time	trial_end_time	trial_duration	actualEventTimes	plannedEventTimes	date	framerate	marker_vol	RAP_vol
27	1	FALSE	NV	a	['H', 'M', 'B', 'K', 'U', 'E', 'T', 'C', 'Z', 'R', 'S', 'J', 'V', 'X', 'W', 'A']	[986, 1224, 760, 1122, 2059, 904, 1888, 829, 2911, 1587, 1731, 1029, 2245, 4000, 2448, 697]	14	Present	NA	NA	PRESENT	0.13103604316711426	3.0994415283203125e-6	1.998671054840088	3.28201440168041	3.632016547427622	6.103869199752808	4.10519814491272	[0.01165318489074707, 0.11127305030822754, 1.0871891975402832, 1.2626361846923828, 2.0300331115722656, 2.1302950382232666, 2.246915102005005, 2.3639349937438965, 2.4805331230163574, 2.5974910259246826, 2.7142770290374756, 2.8310301303863525, 2.9477031230926514, 3.064474105834961, 3.1812121868133545, 3.298067092895508, 3.414750099182129, 3.5317060947418213, 3.648475170135498, 3.7652900218963623, 3.8820672035217285, 4.103870153427124]	[1.1920928955078125e-06, 0.11666785875289551, 1.0996678587528954, 1.2663678587528955, 2.0163678587528953, 2.1330345254128953, 2.2497011920728953, 2.3663678587328953, 2.4830345253928954, 2.5997011920528954, 2.7163678587128954, 2.8330345253728955, 2.9497011920328955, 3.0663678586928955, 3.1830345253528955, 3.2997011920128956, 3.4163678586728956, 3.5330345253328956, 3.6497011919928957, 3.7663678586528957, 3.8830345253128957, 4.116367858646229]	2021_Feb_06_1336	59.92367928153944	1	0.375
27	2	FALSE	NN	a	['J', 'B', 'C', 'T', 'E', 'H', 'U', 'Y', 'W', 'Z', 'K', 'G', 'S', 'N', 'M', 'R']	[1029, 760, 829, 1888, 904, 986, 2059, 2670, 2448, 2911, 1122, 944, 1731, 1335, 1224, 1587]	10	Absent	NA	NA	ABSENT	0.16732406616210938	6.105910062789917	8.111308097839355	8.927982870691045	9.277984778019675	12.22023606300354	4.108927965164185	[6.117559194564819, 6.234655141830444, 7.203557014465332, 7.385776996612549, 8.136504173278809, 8.253302097320557, 8.370086193084717, 8.486807107925415, 8.603828191757202, 8.720538139343262, 8.83731198310852, 8.95415210723877, 9.070955038070679, 9.187790155410767, 9.304319143295288, 9.421489000320435, 9.538048028945923, 9.654746055603027, 9.771758079528809, 9.888396978378296, 10.005276203155518, 10.22023606300354]	[6.116367858646229, 6.233034525306229, 7.216034525306228, 7.382734525306228, 8.132734525306228, 8.249401191966228, 8.366067858626229, 8.48273452528623, 8.59940119194623, 8.71606785860623, 8.83273452526623, 8.949401191926231, 9.066067858586232, 9.182734525246232, 9.299401191906233, 9.416067858566233, 9.532734525226234, 9.649401191886234, 9.766067858546235, 9.882734525206235, 9.999401191866236, 10.232734525199568]	2021_Feb_06_1336	59.92367928153944	1	0.375
27	3	FALSE	NV	a	['W', 'J', 'B', 'T', 'H', 'R', 'V', 'C', 'X', 'S', 'Y', 'M', 'P', 'E', 'A', 'Z']	[2448, 1029, 760, 1888, 986, 1587, 2245, 829, 4000, 1731, 2670, 1224, 1456, 904, 697, 2911]	9	Present	NA	NA	PRESENT	0.4448580741882324	12.229262113571169	14.227862119674684	14.927870225866371	15.277872133195006	18.33660316467285	4.108741044998169	[12.240912199020386, 12.357813119888306, 13.319926023483276, 13.492104053497314, 14.259788990020752, 14.359821081161499, 14.476477146148682, 14.593542098999023, 14.710211992263794, 14.827046155929565, 14.943739175796509, 15.06066107749939, 15.177285194396973, 15.294265031814575, 15.411097049713135, 15.527745008468628, 15.644447088241577, 15.761404991149902, 15.878051042556763, 15.99500298500061, 16.111741065979004, 16.33660316467285]	[12.232734525199568, 12.349401191859569, 13.332401191859569, 13.49910119185957, 14.24910119185957, 14.36576785851957, 14.48243452517957, 14.599101191839571, 14.715767858499571, 14.832434525159572, 14.949101191819572, 15.065767858479573, 15.182434525139573, 15.299101191799574, 15.415767858459574, 15.532434525119575, 15.649101191779575, 15.765767858439576, 15.882434525099576, 15.999101191759577, 16.115767858419577, 16.34910119175291]	2021_Feb_06_1336	59.92367928153944	1	0.375
27	4	FALSE	AA	a	['E', 'Y', 'M', 'B', 'A', 'R', 'N', 'P', 'C', 'H', 'surprise', 'W', 'U', 'X', 'G', 'S']	[904, 2670, 1224, 760, 697, 1587, 1335, 1456, 829, 986, 'stimAuditory/all_stimAuditory/204.wav', 2448, 2059, 4000, 944, 1731]	14	Present	stimAuditory/all_stimAuditory/204.wav	NA	PRESENT	0.09728312492370604	18.33579921722412	20.344118118286133	21.627459557777826	21.977461465106455	24.452969074249268	4.108850955963135	[18.34744906425476, 18.464275121688843, 19.43629503250122, 19.61571216583252, 20.366065979003906, 20.48297119140625, 20.599911212921143, 20.716544151306152, 20.83349609375, 20.95046901702881, 21.067018032073975, 21.18394112586975, 21.3006010055542, 21.41737413406372, 21.53418207168579, 21.65082597732544, 21.76768708229065, 21.884469985961914, 22.001283168792725, 22.1181001663208, 22.23491406440735, 22.452970027923584]	[18.34910119175291, 18.46576785841291, 19.44876785841291, 19.61546785841291, 20.36546785841291, 20.482134525072908, 20.598801191732907, 20.715467858392905, 20.832134525052904, 20.948801191712903, 21.0654678583729, 21.1821345250329, 21.2988011916929, 21.415467858352898, 21.532134525012896, 21.648801191672895, 21.765467858332894, 21.882134524992892, 21.99880119165289, 22.11546785831289, 22.23213452497289, 22.465467858306223]	2021_Feb_06_1336	59.92367928153944	1	0.375
27	5	FALSE	NA	a	['M', 'A', 'J', 'H', 'B', 'P', 'Z', 'U', 'V', 'W', 'E', 'T', 'X', 'G', 'R', 'K']	[1224, 697, 1029, 986, 760, 1456, 2911, 2059, 2245, 2448, 904, 1888, 4000, 944, 1587, 1122]	13	Present	NA	NA	PRESENT	0.02292609214782715	24.45878314971924	26.460451126098633	27.627125660511744	27.977127806258956	30.569337129592896	4.108886003494263	[24.470432996749878, 24.58721113204956, 25.55265998840332, 25.738806009292603, 26.489394187927246, 26.60622215270996, 26.722997188568115, 26.839771032333374, 26.95658802986145, 27.073275089263916, 27.190185070037842, 27.306941032409668, 27.4240140914917, 27.54061198234558, 27.65735101699829, 27.75732707977295, 27.873998165130615, 27.990780115127563, 28.107609033584595, 28.224419116973877, 28.34127712249756, 28.569337129592896]	[24.465467858306223, 24.58213452496622, 25.565134524966222, 25.73183452496622, 26.48183452496622, 26.59850119162622, 26.715167858286218, 26.831834524946217, 26.948501191606216, 27.065167858266214, 27.181834524926213, 27.29850119158621, 27.41516785824621, 27.53183452490621, 27.648501191566208, 27.765167858226206, 27.881834524886205, 27.998501191546204, 28.115167858206203, 28.2318345248662, 28.3485011915262, 28.581834524859534]	2021_Feb_06_1336	59.92367928153944	1	0.375
27	6	FALSE	NA	a	['N', 'R', 'A', 'S', 'Y', 'U', 'G', 'Z', 'E', 'B', 'P', 'M', 'X', 'C', 'H', 'V']	[1335, 1587, 697, 1731, 2670, 2059, 944, 2911, 904, 760, 1456, 1224, 4000, 829, 986, 2245]	13	Present	NA	NA	PRESENT	0.10710692405700684	30.565694093704224	32.57682418823242	33.74349872264553	34.093500868392745	36.68570399284363	4.108879804611206	[30.577346086502075, 30.693870067596436, 31.669028997421265, 31.845245122909546, 32.59579920768738, 32.712759017944336, 32.82959508895874, 32.946240186691284, 33.063011169433594, 33.17968010902405, 33.29657506942749, 33.41333508491516, 33.5302631855011, 33.64708113670349, 33.76376819610596, 33.88046908378601, 33.997472047805786, 34.11422514915466, 34.230990171432495, 34.347635984420776, 34.46461319923401, 34.68570303916931]	[30.581834524859534, 30.698501191519533, 31.681501191519533, 31.848201191519532, 32.598201191519536, 32.71486785817954, 32.83153452483954, 32.94820119149954, 33.064867858159545, 33.18153452481955, 33.29820119147955, 33.41486785813955, 33.531534524799554, 33.648201191459556, 33.76486785811956, 33.88153452477956, 33.99820119143956, 34.114867858099565, 34.23153452475957, 34.34820119141957, 34.46486785807957, 34.698201191412906]	2021_Feb_06_1336	59.92367928153944	1	0.375
27	7	FALSE	NA	a	['S', 'G', 'H', 'V', 'C', 'A', 'K', 'N', 'M', 'W', 'J', 'X', 'Z', 'Y', 'R', 'T']	[1731, 944, 986, 2245, 829, 697, 1122, 1335, 1224, 2448, 1029, 4000, 2911, 2670, 1587, 1888]	12	Present	NA	NA	PRESENT	0.11192607879638672	36.68871808052063	38.69339609146118	39.74340419763287	40.093405151287186	42.80206918716431	4.108673095703125	[36.70036721229553, 36.81709313392639, 37.785391092300415, 37.96843504905701, 38.718958139419556, 38.835960149765015, 38.952529191970825, 39.069467067718506, 39.186275005340576, 39.30302119255066, 39.41993308067322, 39.53665208816528, 39.65351605415344, 39.770167112350464, 39.88701009750366, 40.00390005111694, 40.120617151260376, 40.23718214035034, 40.354207038879395, 40.471264123916626, 40.5877480506897, 40.80206918716431]	[36.698201191412906, 36.81486785807291, 37.797867858072905, 37.964567858072904, 38.714567858072904, 38.831234524732906, 38.94790119139291, 39.06456785805291, 39.18123452471291, 39.297901191372915, 39.41456785803292, 39.53123452469292, 39.64790119135292, 39.764567858012924, 39.88123452467293, 39.99790119133293, 40.11456785799293, 40.23123452465293, 40.347901191312936, 40.46456785797294, 40.58123452463294, 40.814567857966274]	2021_Feb_06_1336	59.92367928153944	1	0.375
27	8	FALSE	NN	a	['S', 'J', 'Z', 'M', 'B', 'P', 'K', 'R', 'N', 'Y', 'A', 'H', 'U', 'C', 'V', 'W']	[1731, 1029, 2911, 1224, 760, 1456, 1122, 1587, 1335, 2670, 697, 986, 2059, 829, 2245, 2448]	12	Absent	NA	NA	ABSENT	0.12514996528625488	42.81184720993042	44.809561014175415	45.8595691203471	46.209571027675736	48.918437004089355	4.10887598991394	[42.82349610328674, 42.92345404624939, 43.90175819396973, 44.074727058410645, 44.84228014945984, 44.94239020347595, 45.059017181396484, 45.17592811584473, 45.29258108139038, 45.40953302383423, 45.52624320983887, 45.6431450843811, 45.759807109832764, 45.876795053482056, 45.993449211120605, 46.110347032547, 46.22702217102051, 46.3438880443573, 46.46052813529968, 46.57743000984192, 46.69418001174927, 46.91843605041504]	[42.814567857966274, 42.93123452462628, 43.91423452462627, 44.08093452462627, 44.83093452462627, 44.947601191286275, 45.06426785794628, 45.18093452460628, 45.29760119126628, 45.41426785792628, 45.530934524586286, 45.64760119124629, 45.76426785790629, 45.88093452456629, 45.997601191226295, 46.1142678578863, 46.2309345245463, 46.3476011912063, 46.464267857866304, 46.580934524526306, 46.69760119118631, 46.93093452451964]	2021_Feb_06_1336	59.92367928153944	1	0.375
27	9	FALSE	NV	a	['A', 'Z', 'Y', 'B', 'J', 'W', 'H', 'P', 'T', 'E', 'X', 'S', 'K', 'C', 'U', 'N']	[697, 2911, 2670, 760, 1029, 2448, 986, 1456, 1888, 904, 4000, 1731, 1122, 829, 2059, 1335]	11	Present	NA	NA	PRESENT	0.2337021827697754	48.91833710670471	50.925753116607666	51.85909550979367	52.20909741712231	55.03480315208435	4.109050035476685	[48.92998719215393, 49.04671120643616, 50.01812815666199, 50.197885036468506, 50.9489221572876, 51.06559610366821, 51.182218074798584, 51.29921197891235, 51.415935039520264, 51.53260612487793, 51.64950609207153, 51.76615309715271, 51.883119106292725, 51.99976921081543, 52.116748094558716, 52.23332619667053, 52.35025405883789, 52.466915130615234, 52.58394002914429, 52.700645208358765, 52.81746816635132, 53.03480410575867]	[48.93093452451964, 49.047601191179645, 50.03060119117964, 50.19730119117964, 50.94730119117964, 51.06396785783964, 51.180634524499645, 51.29730119115965, 51.41396785781965, 51.53063452447965, 51.647301191139654, 51.763967857799656, 51.88063452445966, 51.99730119111966, 52.11396785777966, 52.230634524439665, 52.34730119109967, 52.46396785775967, 52.58063452441967, 52.697301191079674, 52.81396785773968, 53.04730119107301]	2021_Feb_06_1336	59.92367928153944	1	0.375
27	10	FALSE	NV	a	['A', 'J', 'T', 'V', 'P', 'W', 'R', 'X', 'N', 'K', 'E', 'C', 'Z', 'S', 'M', 'Y']	[697, 1029, 1888, 2245, 1456, 2448, 1587, 4000, 1335, 1122, 904, 829, 2911, 1731, 1224, 2670]	8	Present	NA	NA	PRESENT	0.03889894485473633	55.04128909111023	57.042272090911865	57.62561353044355	57.975615437772184	61.15117001533508	4.108897924423218	[55.05293917655945, 55.16997504234314, 56.1344940662384, 56.32119011878967, 57.072012186050415, 57.18858003616333, 57.305562019348145, 57.4221670627594, 57.53914499282837, 57.63901209831238, 57.755845069885254, 57.8726270198822, 57.989376068115234, 58.10619401931763, 58.22299814224243, 58.33980703353882, 58.45661807060242, 58.57340121269226, 58.69025421142578, 58.80695414543152, 58.92383003234863, 59.15116906166077]	[55.04730119107301, 55.16396785773301, 56.14696785773301, 56.31366785773301, 57.06366785773301, 57.18033452439301, 57.29700119105301, 57.413667857713016, 57.53033452437302, 57.64700119103302, 57.76366785769302, 57.880334524353025, 57.99700119101303, 58.11366785767303, 58.23033452433303, 58.34700119099303, 58.463667857653036, 58.58033452431304, 58.69700119097304, 58.81366785763304, 58.930334524293045, 59.16366785762638]	2021_Feb_06_1336	59.92367928153944	1	0.375
27	11	FALSE	NV	a	['U', 'C', 'A', 'S', 'Z', 'Y', 'N', 'V', 'X', 'W', 'K', 'P', 'R', 'M', 'T', 'G']	[2059, 829, 697, 1731, 2911, 2670, 1335, 2245, 4000, 2448, 1122, 1456, 1587, 1224, 1888, 944]	9	Present	NA	NA	PRESENT	0.01143503189086914	61.14807605743408	63.15850305557251	63.85851020808988	64.20851211541851	67.26753616333008	4.109033107757568	[61.1597261428833, 61.27638506889343, 62.25086212158203, 62.4278130531311, 63.17820405960083, 63.29527020454407, 63.4119930267334, 63.528839111328125, 63.645538091659546, 63.76236915588379, 63.87918400764465, 63.99605202674866, 64.11274909973145, 64.22948503494263, 64.34630107879639, 64.46314406394958, 64.57988214492798, 64.69677305221558, 64.81353998184204, 64.93053817749023, 65.04703497886658, 65.2675371170044]	[61.16366785762638, 61.28033452428638, 62.26333452428638, 62.43003452428638, 63.18003452428638, 63.29670119094638, 63.41336785760638, 63.530034524266384, 63.646701190926386, 63.76336785758639, 63.88003452424639, 63.99670119090639, 64.11336785756639, 64.23003452422638, 64.34670119088638, 64.46336785754637, 64.58003452420637, 64.69670119086636, 64.81336785752636, 64.93003452418635, 65.04670119084635, 65.28003452417968]	2021_Feb_06_1336	59.92367928153944	1	0.375
27	12	FALSE	NN	a	['U', 'K', 'C', 'Z', 'B', 'M', 'J', 'E', 'S', 'P', 'N', 'T', 'A', 'H', 'V', 'W']	[2059, 1122, 829, 2911, 760, 1224, 1029, 904, 1731, 1456, 1335, 1888, 697, 986, 2245, 2448]	11	Absent	NA	NA	ABSENT	0.2801480293273926	67.27108716964722	69.27502608299255	70.20836633041135	70.55836847615856	73.38390398025513	4.108877897262573	[67.28273606300354, 67.399649143219, 68.36722707748413, 68.55089116096497, 69.30157113075256, 69.41823410987854, 69.53514814376831, 69.65183305740356, 69.76885199546814, 69.88540816307068, 70.00242018699646, 70.1191201210022, 70.23573303222656, 70.35275506973267, 70.46967315673828, 70.58615207672119, 70.70316004753113, 70.81997513771057, 70.93669509887695, 71.0535101890564, 71.1704261302948, 71.38390302658081]	[67.28003452417968, 67.39670119083968, 68.37970119083968, 68.54640119083969, 69.29640119083969, 69.41306785749968, 69.52973452415968, 69.64640119081967, 69.76306785747967, 69.87973452413966, 69.99640119079966, 70.11306785745965, 70.22973452411965, 70.34640119077964, 70.46306785743964, 70.57973452409963, 70.69640119075963, 70.81306785741963, 70.92973452407962, 71.04640119073962, 71.16306785739961, 71.39640119073294]	2021_Feb_06_1336	59.92367928153944	1	0.375
27	13	FALSE	NA	a	['T', 'N', 'M', 'Y', 'U', 'W', 'K', 'Z', 'B', 'X', 'A', 'E', 'G', 'V', 'P', 'R']	[1888, 1335, 1224, 2670, 2059, 2448, 1122, 2911, 760, 4000, 697, 904, 944, 2245, 1456, 1587]	10	Present	NA	NA	PRESENT	0.01326608657836914	73.39415502548218	75.39138007164001	76.20805389081738	76.55805579814601	79.50027012825012	4.108890056610107	[73.40580415725708, 73.50593113899231, 74.48359513282776, 74.65737414360046, 75.40793514251709, 75.52489399909973, 75.6416380405426, 75.75857615470886, 75.87517404556274, 75.99205017089844, 76.10884118080139, 76.22564005851746, 76.34238004684448, 76.4591600894928, 76.57596206665039, 76.69278311729431, 76.8096489906311, 76.9264280796051, 77.0432071685791, 77.16002202033997, 77.27686500549316, 77.50027012825012]	[73.39640119073294, 73.51306785739294, 74.49606785739294, 74.66276785739295, 75.41276785739295, 75.52943452405295, 75.64610119071294, 75.76276785737294, 75.87943452403293, 75.99610119069293, 76.11276785735292, 76.22943452401292, 76.34610119067291, 76.4627678573329, 76.5794345239929, 76.6961011906529, 76.81276785731289, 76.92943452397289, 77.04610119063288, 77.16276785729288, 77.27943452395287, 77.5127678572862]	2021_Feb_06_1336	59.92367928153944	1	0.375
27	14	FALSE	NN	a	['S', 'Z', 'C', 'G', 'R', 'M', 'E', 'U', 'J', 'Y', 'B', 'V', 'N', 'P', 'T', 'K']	[1731, 2911, 829, 944, 1587, 1224, 904, 2059, 1029, 2670, 760, 2245, 1335, 1456, 1888, 1122]	14	Absent	NA	NA	ABSENT	0.3378000259399414	79.50077509880066	81.50766706466675	82.79100850415844	83.14101041148707	85.61663603782654	4.10896897315979	[79.51242518424988, 79.6292130947113, 80.59996104240417, 80.78071999549866, 81.53122901916504, 81.64790201187134, 81.76479315757751, 81.88153600692749, 81.99840307235718, 82.11516213417053, 82.23193907737732, 82.3487901687622, 82.46559715270996, 82.58232998847961, 82.69919109344482, 82.81589412689209, 82.93281602859497, 83.04947710037231, 83.1663830280304, 83.2831711769104, 83.39987301826477, 83.61663603782654]	[79.5127678572862, 79.6294345239462, 80.6124345239462, 80.77913452394621, 81.52913452394621, 81.6458011906062, 81.7624678572662, 81.8791345239262, 81.99580119058619, 82.11246785724619, 82.22913452390618, 82.34580119056618, 82.46246785722617, 82.57913452388617, 82.69580119054616, 82.81246785720616, 82.92913452386615, 83.04580119052615, 83.16246785718614, 83.27913452384614, 83.39580119050613, 83.62913452383947]	2021_Feb_06_1336	59.92367928153944	1	0.375
27	15	FALSE	NA	a	['H', 'B', 'P', 'W', 'Z', 'J', 'A', 'R', 'N', 'C', 'X', 'M', 'U', 'T', 'Y', 'V']	[986, 760, 1456, 2448, 2911, 1029, 697, 1587, 1335, 829, 4000, 1224, 2059, 1888, 2670, 2245]	11	Present	NA	NA	PRESENT	0.07903599739074707	85.62384605407715	87.62397122383118	88.55731242492429	88.90731433225292	91.73300409317017	4.109032869338989	[85.63549709320068, 85.75244116783142, 86.71632814407349, 86.9036910533905, 87.65443205833435, 87.75435900688171, 87.8711371421814, 87.98788809776306, 88.1047191619873, 88.22153401374817, 88.3383240699768, 88.45517897605896, 88.57186603546143, 88.68866014480591, 88.80555605888367, 88.92237520217896, 89.03933215141296, 89.15594100952148, 89.2728590965271, 89.38945412635803, 89.50647711753845, 89.73300313949585]	[85.62913452383947, 85.74580119049946, 86.72880119049947, 86.89550119049947, 87.64550119049947, 87.76216785715947, 87.87883452381946, 87.99550119047946, 88.11216785713945, 88.22883452379945, 88.34550119045944, 88.46216785711944, 88.57883452377943, 88.69550119043943, 88.81216785709942, 88.92883452375942, 89.04550119041942, 89.16216785707941, 89.2788345237394, 89.3955011903994, 89.5121678570594, 89.74550119039273]	2021_Feb_06_1336	59.92367928153944	1	0.375
27	16	FALSE	VA	a	['J', 'H', 'Y', 'U', 'G', 'surprise', 'V', 'R', 'X', 'P', 'T', 'E', 'K', 'W', 'M', 'Z']	[1029, 986, 2670, 2059, 944, 'stimAuditory/all_stimAuditory/209.wav', 2245, 1587, 4000, 1456, 1888, 904, 1122, 2448, 1224, 2911]	9	Present	NA	NA	PRESENT	0.0997750759124756	91.7307460308075	93.7404282093048	94.44043607707792	94.79043822282512	97.84936904907228	4.108940839767456	[91.74239611625671, 91.85898399353027, 92.83269214630127, 93.01008009910583, 93.76084518432617, 93.87772107124329, 93.99452614784241, 94.11131405830383, 94.22802710533142, 94.344722032547, 94.46164798736572, 94.57849907875061, 94.69528603553772, 94.81212115287781, 94.92890119552612, 95.0455231666565, 95.16245102882385, 95.27914619445801, 95.39604020118713, 95.51272511482239, 95.62945318222046, 95.84936904907227]	[91.74550119039273, 91.86216785705273, 92.84516785705273, 93.01186785705274, 93.76186785705274, 93.87853452371273, 93.99520119037273, 94.11186785703272, 94.22853452369272, 94.34520119035271, 94.4618678570127, 94.5785345236727, 94.6952011903327, 94.81186785699269, 94.92853452365269, 95.04520119031268, 95.16186785697268, 95.27853452363267, 95.39520119029267, 95.51186785695266, 95.62853452361266, 95.86186785694599]	2021_Feb_06_1336	59.92367928153944	1	0.375
27	17	FALSE	NN	a	['A', 'S', 'J', 'C', 'G', 'U', 'Y', 'W', 'B', 'N', 'V', 'K', 'R', 'P', 'T', 'Z']	[697, 1731, 1029, 829, 944, 2059, 2670, 2448, 760, 1335, 2245, 1122, 1587, 1456, 1888, 2911]	14	Absent	NA	NA	ABSENT	0.10421395301818848	97.85373616218568	99.85673809051514	101.14007953000684	101.49008143733546	103.96573615074158	4.10899806022644	[97.86538505554199, 97.98198509216309, 98.94906210899353, 99.1331741809845, 99.88415312767029, 100.00085806846619, 100.11760020256042, 100.23429703712463, 100.3512670993805, 100.46797800064087, 100.58487510681152, 100.70153903961182, 100.81843209266663, 100.9353129863739, 101.05195212364197, 101.16893315315247, 101.28563714027405, 101.40264821052551, 101.51913404464722, 101.63581418991089, 101.75271105766296, 101.9657371044159]	[97.86186785694599, 97.97853452360599, 98.96153452360599, 99.128234523606, 99.878234523606, 99.99490119026599, 100.11156785692599, 100.22823452358598, 100.34490119024598, 100.46156785690597, 100.57823452356597, 100.69490119022596, 100.81156785688596, 100.92823452354595, 101.04490119020595, 101.16156785686594, 101.27823452352594, 101.39490119018593, 101.51156785684593, 101.62823452350592, 101.74490119016592, 101.97823452349925]	2021_Feb_06_1336	59.92367928153944	1	0.375
27	18	FALSE	NV	a	['P', 'W', 'S', 'N', 'Y', 'K', 'J', 'E', 'M', 'C', 'Z', 'X', 'B', 'G', 'U', 'A']	[1456, 2448, 1731, 1335, 2670, 1122, 1029, 904, 1224, 829, 2911, 4000, 760, 944, 2059, 697]	12	Present	NA	NA	PRESENT	0.3960130214691162	103.95997500419617	105.9731831550598	107.02319102281292	107.37319316856014	110.08210301399232	4.108919858932495	[103.97162413597107, 104.08850598335266, 105.06542921066284, 105.23964405059814, 105.99049019813538, 106.10720920562744, 106.22415614128113, 106.34095406532288, 106.45764803886414, 106.57448506355286, 106.69119906425476, 106.80798602104187, 106.92490720748901, 107.04162406921387, 107.15843915939331, 107.27515411376953, 107.39213705062866, 107.50879311561584, 107.62577319145203, 107.7423951625824, 107.85929608345032, 108.0821042060852]	[103.97823452349925, 104.09490119015925, 105.07790119015925, 105.24460119015926, 105.99460119015926, 106.11126785681925, 106.22793452347925, 106.34460119013924, 106.46126785679924, 106.57793452345923, 106.69460119011923, 106.81126785677922, 106.92793452343922, 107.04460119009921, 107.16126785675921, 107.2779345234192, 107.3946011900792, 107.5112678567392, 107.62793452339919, 107.74460119005919, 107.86126785671918, 108.09460119005251]	2021_Feb_06_1336	59.92367928153944	1	0.375
27	19	FALSE	NN	a	['E', 'Y', 'R', 'C', 'W', 'J', 'T', 'S', 'B', 'H', 'A', 'G', 'U', 'P', 'V', 'M']	[904, 2670, 1587, 829, 2448, 1029, 1888, 1731, 760, 986, 697, 944, 2059, 1456, 2245, 1224]	8	Absent	NA	NA	ABSENT	0.17826008796691897	110.08323502540588	112.08959007263184	112.6729305584892	113.02293341949216	116.19847011566162	4.108880043029785	[110.0948851108551, 110.21176815032959, 111.18179106712341, 111.36296200752258, 112.11407399177551, 112.23040509223938, 112.34732913970947, 112.46400713920593, 112.58091402053833, 112.69759106636047, 112.81452417373657, 112.93146109580994, 113.04794597625732, 113.16481804847717, 113.2816641330719, 113.39843797683716, 113.51534008979797, 113.63200807571411, 113.74894618988037, 113.86549806594849, 113.9824571609497, 114.1984691619873]	[110.09460119005251, 110.21126785671251, 111.19426785671251, 111.36096785671252, 112.11096785671252, 112.22763452337252, 112.34430119003251, 112.4609678566925, 112.5776345233525, 112.6943011900125, 112.81096785667249, 112.92763452333249, 113.04430118999248, 113.16096785665248, 113.27763452331247, 113.39430118997247, 113.51096785663246, 113.62763452329246, 113.74430118995245, 113.86096785661245, 113.97763452327244, 114.21096785660578]	2021_Feb_06_1336	59.92367928153944	1	0.375
27	20	FALSE	NV	a	['A', 'U', 'Y', 'S', 'P', 'M', 'C', 'Z', 'T', 'H', 'W', 'X', 'N', 'J', 'B', 'R']	[697, 2059, 2670, 1731, 1456, 1224, 829, 2911, 1888, 986, 2448, 4000, 1335, 1029, 760, 1587]	12	Present	NA	NA	PRESENT	0.19153404235839844	116.20655012130736	118.2060000896454	119.25600819581707	119.6060101031457	122.31483602523804	4.108835935592651	[116.2181990146637, 116.33485507965088, 117.29816007614136, 117.48617005348206, 118.23696398735046, 118.3369550704956, 118.45370817184448, 118.57048010826111, 118.68722009658813, 118.80400204658508, 118.9209041595459, 119.03757500648499, 119.15448498725891, 119.271231174469, 119.38813519477844, 119.50497102737427, 119.62175297737122, 119.73839807510376, 119.85517907142639, 119.97201704978943, 120.08886098861694, 120.31483602523804]	[116.21096785660578, 116.32763452326577, 117.31063452326578, 117.47733452326578, 118.22733452326578, 118.34400118992578, 118.46066785658577, 118.57733452324577, 118.69400118990576, 118.81066785656576, 118.92733452322575, 119.04400118988575, 119.16066785654574, 119.27733452320574, 119.39400118986573, 119.51066785652573, 119.62733452318572, 119.74400118984572, 119.86066785650571, 119.97733452316571, 120.0940011898257, 120.32733452315904]	2021_Feb_06_1336	59.92367928153944	1	0.375
27	21	FALSE	VV	a	['B', 'E', 'Y', 'N', 'K', 'U', 'S', 'surprise', 'H', 'T', 'X', 'C', 'A', 'W', 'P', 'M']	[760, 904, 2670, 1335, 1122, 2059, 1731, 'stimAuditory/all_stimAuditory/114.wav', 986, 1888, 4000, 829, 697, 2448, 1456, 1224]	11	Present	NA	NA	PRESENT	0.21199798583984375	122.31316018104552	124.32219910621644	125.25553935363524	125.60554149938244	128.4312040805817	4.109004974365234	[122.32481002807617, 122.441397190094, 123.41452598571777, 123.59263515472412, 124.34342098236084, 124.46028017997742, 124.57706308364868, 124.69384598731995, 124.81071209907532, 124.92732405662537, 125.04417705535889, 125.16076302528381, 125.27776098251343, 125.39433717727661, 125.51134419441223, 125.62797713279724, 125.74480319023132, 125.86159610748291, 125.97841906547546, 126.09541511535645, 126.21215510368347, 126.43120408058167]	[122.32733452315904, 122.44400118981903, 123.42700118981904, 123.59370118981904, 124.34370118981904, 124.46036785647904, 124.57703452313903, 124.69370118979903, 124.81036785645902, 124.92703452311902, 125.04370118977901, 125.16036785643901, 125.277034523099, 125.393701189759, 125.510367856419, 125.62703452307899, 125.74370118973899, 125.86036785639898, 125.97703452305898, 126.09370118971897, 126.21036785637897, 126.4437011897123]	2021_Feb_06_1336	59.92367928153944	1	0.375
27	22	FALSE	NN	a	['S', 'R', 'A', 'C', 'H', 'T', 'K', 'N', 'U', 'Z', 'B', 'V', 'M', 'Y', 'J', 'P']	[1731, 1587, 697, 829, 986, 1888, 1122, 1335, 2059, 2911, 760, 2245, 1224, 2670, 1029, 1456]	14	Absent	NA	NA	ABSENT	0.2246549129486084	128.43609499931335	130.43873810768127	131.72207954717297	132.0720814545016	134.54756999015808	4.108831882476807	[128.44774508476257, 128.56459498405457, 129.5308940410614, 129.71583914756775, 130.4666850566864, 130.5834081172943, 130.7002739906311, 130.8170189857483, 130.93374109268188, 131.05067014694214, 131.16730117797852, 131.28426003456116, 131.40123414993286, 131.51773619651794, 131.63453316688538, 131.75137305259705, 131.86821699142456, 131.9848210811615, 132.1015820503235, 132.2184910774231, 132.33524107933044, 132.54756999015808]	[128.4437011897123, 128.5603678563723, 129.5433678563723, 129.7100678563723, 130.4600678563723, 130.5767345230323, 130.69340118969228, 130.81006785635228, 130.92673452301227, 131.04340118967227, 131.16006785633226, 131.27673452299226, 131.39340118965225, 131.51006785631225, 131.62673452297224, 131.74340118963224, 131.86006785629223, 131.97673452295223, 132.09340118961222, 132.21006785627222, 132.3267345229322, 132.56006785626553]	2021_Feb_06_1336	59.92367928153944	1	0.375
27	23	FALSE	NV	a	['P', 'K', 'V', 'R', 'M', 'B', 'H', 'W', 'N', 'Y', 'X', 'E', 'C', 'G', 'U', 'Z']	[1456, 1122, 2245, 1587, 1224, 760, 986, 2448, 1335, 2670, 4000, 904, 829, 944, 2059, 2911]	11	Present	NA	NA	PRESENT	0.14191913604736328	134.54247522354126	136.55492401123047	137.48826545074215	137.8382673580708	140.66393613815308	4.109012126922607	[134.5541250705719, 134.67116498947144, 135.6472601890564, 135.82214307785034, 136.57292699813843, 136.6900200843811, 136.8066999912262, 136.92403316497803, 137.0402181148529, 137.15693020820618, 137.2738220691681, 137.390527009964, 137.50740814208984, 137.62410497665405, 137.74105715751648, 137.8576681613922, 137.97465205192566, 138.09125399589539, 138.20822715759277, 138.3249990940094, 138.44157099723816, 138.66393613815308]	[134.56006785626553, 134.67673452292553, 135.65973452292553, 135.82643452292552, 136.57643452292552, 136.69310118958552, 136.80976785624551, 136.9264345229055, 137.0431011895655, 137.1597678562255, 137.2764345228855, 137.3931011895455, 137.50976785620549, 137.62643452286548, 137.74310118952548, 137.85976785618547, 137.97643452284547, 138.09310118950546, 138.20976785616546, 138.32643452282545, 138.44310118948545, 138.67643452281877]	2021_Feb_06_1336	59.92367928153944	1	0.375
27	24	FALSE	NA	a	['A', 'M', 'S', 'K', 'J', 'Z', 'R', 'H', 'V', 'N', 'C', 'E', 'X', 'Y', 'U', 'P']	[697, 1224, 1731, 1122, 1029, 2911, 1587, 986, 2245, 1335, 829, 904, 4000, 2670, 2059, 1456]	13	Present	NA	NA	PRESENT	0.1385350227355957	140.66563415527344	142.6714310646057	143.8381058374374	144.18810774476603	146.7803041934967	4.108873128890991	[140.67728304862976, 140.79434204101562, 141.76362800598145, 141.94574999809265, 142.69626212120056, 142.81298899650574, 142.92983412742615, 143.04660415649414, 143.1633369922638, 143.28023409843445, 143.39708399772644, 143.51375699043274, 143.63060808181763, 143.74723410606384, 143.86412119865417, 143.98105907440186, 144.09779119491577, 144.21450114250183, 144.33124017715454, 144.44808101654053, 144.56480312347412, 144.7803030014038]	[140.67643452281877, 140.79310118947876, 141.77610118947877, 141.94280118947876, 142.69280118947876, 142.80946785613875, 142.92613452279875, 143.04280118945874, 143.15946785611874, 143.27613452277873, 143.39280118943873, 143.50946785609872, 143.62613452275872, 143.7428011894187, 143.8594678560787, 143.9761345227387, 144.0928011893987, 144.2094678560587, 144.3261345227187, 144.44280118937868, 144.55946785603868, 144.792801189372]	2021_Feb_06_1336	59.92367928153944	1	0.375
27	25	FALSE	NV	a	['K', 'M', 'H', 'P', 'Z', 'V', 'R', 'E', 'J', 'N', 'X', 'T', 'C', 'A', 'W', 'S']	[1122, 1224, 986, 1456, 2911, 2245, 1587, 904, 1029, 1335, 4000, 1888, 829, 697, 2448, 1731]	11	Present	NA	NA	PRESENT	0.05571889877319336	146.7889711856842	148.7876420021057	149.72098248794308	150.07098439527172	152.8966691493988	4.109027147293091	[146.80062103271484, 146.91743302345276, 147.87999606132507, 148.05181312561035, 148.81941103935242, 148.91968512535095, 149.03633403778076, 149.15320205688477, 149.26996517181396, 149.38674306869507, 149.50335001945496, 149.62016606330872, 149.73709106445312, 149.85370016098022, 149.9705090522766, 150.08723521232605, 150.2040810585022, 150.32084798812866, 150.43784999847412, 150.55448698997498, 150.67144513130188, 150.8966691493988]	[146.792801189372, 146.909467856032, 147.892467856032, 148.059167856032, 148.809167856032, 148.92583452269199, 149.04250118935198, 149.15916785601198, 149.27583452267197, 149.39250118933197, 149.50916785599196, 149.62583452265196, 149.74250118931195, 149.85916785597195, 149.97583452263194, 150.09250118929194, 150.20916785595193, 150.32583452261193, 150.44250118927192, 150.55916785593192, 150.6758345225919, 150.90916785592523]	2021_Feb_06_1336	59.92367928153944	1	0.375
27	26	FALSE	NA	a	['S', 'R', 'J', 'T', 'U', 'Y', 'A', 'Z', 'G', 'X', 'K', 'C', 'V', 'N', 'E', 'H']	[1731, 1587, 1029, 1888, 2059, 2670, 697, 2911, 944, 4000, 1122, 829, 2245, 1335, 904, 986]	10	Present	NA	NA	PRESENT	0.18844008445739743	152.89580821990967	154.9042570590973	155.7209327856233	156.07093469295194	159.01303601264954	4.108778953552246	[152.9074580669403, 153.02387309074402, 153.9963641166687, 154.17508506774902, 154.92586302757263, 155.0427050590515, 155.15954208374023, 155.2762110233307, 155.39306020736694, 155.50976419448853, 155.62655019760132, 155.74336099624634, 155.8601779937744, 155.97710800170898, 156.09386205673218, 156.21061301231384, 156.327495098114, 156.44413709640503, 156.56099820137024, 156.67777919769287, 156.79460906982422, 157.01303720474243]	[152.90916785592523, 153.02583452258523, 154.00883452258523, 154.17553452258522, 154.92553452258522, 155.04220118924522, 155.1588678559052, 155.2755345225652, 155.3922011892252, 155.5088678558852, 155.6255345225452, 155.7422011892052, 155.85886785586518, 155.97553452252518, 156.09220118918518, 156.20886785584517, 156.32553452250517, 156.44220118916516, 156.55886785582516, 156.67553452248515, 156.79220118914515, 157.02553452247847]	2021_Feb_06_1336	59.92367928153944	1	0.375
27	27	FALSE	AV	a	['R', 'K', 'G', 'V', 'S', 'A', 'H', 'E', 'Y', 'surprise', 'Z', 'C', 'X', 'M', 'P', 'T']	[1587, 1122, 944, 2245, 1731, 697, 986, 904, 2670, 'stimAuditory/all_stimAuditory/123.wav', 2911, 829, 4000, 1224, 1456, 1888]	13	Present	stimAuditory/all_stimAuditory/209.wav	NA	PRESENT	0.01762914657592773	159.01868605613708	161.02041101455688	162.18708578738858	162.5370876947172	165.12940216064453	4.1089911460876465	[159.0303361415863, 159.1470170021057, 160.1127290725708, 160.29816603660583, 161.04904103279114, 161.16581797599792, 161.2825870513916, 161.3994631767273, 161.51612210273743, 161.63314414024353, 161.74999499320984, 161.8666172027588, 161.98356914520264, 162.10008311271667, 162.21690320968628, 162.33375811576843, 162.45074915885925, 162.56745600700378, 162.66734099388123, 162.78413915634155, 162.90096712112427, 163.12940406799316]	[159.02553452247847, 159.14220118913846, 160.12520118913847, 160.29190118913846, 161.04190118913846, 161.15856785579845, 161.27523452245845, 161.39190118911844, 161.50856785577844, 161.62523452243843, 161.74190118909843, 161.85856785575842, 161.97523452241842, 162.0919011890784, 162.2085678557384, 162.3252345223984, 162.4419011890584, 162.5585678557184, 162.6752345223784, 162.79190118903838, 162.90856785569838, 163.1419011890317]	2021_Feb_06_1336	59.92367928153944	1	0.375
27	28	FALSE	NV	a	['Z', 'Y', 'C', 'K', 'E', 'B', 'W', 'H', 'R', 'N', 'T', 'P', 'U', 'X', 'S', 'A']	[2911, 2670, 829, 1122, 904, 760, 2448, 986, 1587, 1335, 1888, 1456, 2059, 4000, 1731, 697]	14	Present	NA	NA	PRESENT	0.18223094940185547	165.12503004074097	167.13689804077148	168.42023948026318	168.7702413875918	171.24576997756958	4.108871936798096	[165.1366810798645, 165.25360107421875, 166.2290940284729, 166.40477514266968, 167.1554980278015, 167.27223420143127, 167.38924312591553, 167.5059950351715, 167.6228311061859, 167.73948121070862, 167.8561990261078, 167.97306203842163, 168.09008812904358, 168.20666599273682, 168.32356214523315, 168.44015312194824, 168.5571231842041, 168.67373919487, 168.7907440662384, 168.9073669910431, 169.02416110038757, 169.24576902389526]	[165.1419011890317, 165.2585678556917, 166.2415678556917, 166.4082678556917, 167.1582678556917, 167.27493452235169, 167.39160118901168, 167.50826785567168, 167.62493452233167, 167.74160118899167, 167.85826785565166, 167.97493452231166, 168.09160118897165, 168.20826785563165, 168.32493452229164, 168.44160118895164, 168.55826785561163, 168.67493452227163, 168.79160118893162, 168.90826785559162, 169.0249345222516, 169.25826785558493]	2021_Feb_06_1336	59.92367928153944	1	0.375
27	29	FALSE	NA	a	['P', 'H', 'G', 'U', 'Z', 'B', 'Y', 'K', 'C', 'W', 'M', 'N', 'J', 'X', 'A', 'R']	[1456, 986, 944, 2059, 2911, 760, 2670, 1122, 829, 2448, 1224, 1335, 1029, 4000, 697, 1587]	14	Present	NA	NA	PRESENT	0.06670689582824707	171.24823904037476	173.2531700134277	174.5365104992451	174.88651240657373	177.36213612556458	4.108966112136841	[171.25988912582397, 171.37664103507996, 172.34546208381653, 172.52830815315247, 173.27863001823425, 173.39544415473938, 173.51220417022705, 173.62921810150146, 173.7457411289215, 173.8626880645752, 173.97935605049133, 174.09635210037231, 174.21321320533752, 174.3298900127411, 174.44663405418396, 174.5633840560913, 174.68004512786865, 174.79710006713867, 174.91385102272034, 175.0307080745697, 175.1473410129547, 175.36213612556458]	[171.25826785558493, 171.37493452224493, 172.35793452224493, 172.52463452224492, 173.27463452224492, 173.39130118890492, 173.5079678555649, 173.6246345222249, 173.7413011888849, 173.8579678555449, 173.9746345222049, 174.0913011888649, 174.20796785552488, 174.32463452218488, 174.44130118884488, 174.55796785550487, 174.67463452216487, 174.79130118882486, 174.90796785548486, 175.02463452214485, 175.14130118880485, 175.37463452213817]	2021_Feb_06_1336	59.92367928153944	1	0.375
27	30	FALSE	NV	a	['R', 'Z', 'Y', 'H', 'W', 'G', 'P', 'A', 'B', 'K', 'V', 'M', 'X', 'T', 'C', 'J']	[1587, 2911, 2670, 986, 2448, 944, 1456, 697, 760, 1122, 2245, 1224, 4000, 1888, 829, 1029]	13	Present	NA	NA	PRESENT	0.27986884117126465	177.3716070652008	179.3695890903473	180.5362626710861	180.8862648168333	183.4785041809082	4.108915090560913	[177.3832561969757, 177.50002598762512, 178.46182799339294, 178.63431406021118, 179.40183901786804, 179.50210404396057, 179.61882615089417, 179.73567914962769, 179.85246109962463, 179.96906208992004, 180.08594799041748, 180.20277619361877, 180.31954407691956, 180.43630504608154, 180.5531940460205, 180.66973400115967, 180.78672909736633, 180.90333008766174, 181.02014017105103, 181.13708019256592, 181.25391602516174, 181.4785029888153]	[177.37463452213817, 177.49130118879816, 178.47430118879817, 178.64100118879816, 179.39100118879816, 179.50766785545815, 179.62433452211815, 179.74100118877814, 179.85766785543814, 179.97433452209813, 180.09100118875813, 180.20766785541812, 180.32433452207812, 180.4410011887381, 180.5576678553981, 180.6743345220581, 180.7910011887181, 180.9076678553781, 181.0243345220381, 181.14100118869808, 181.25766785535808, 181.4910011886914]	2021_Feb_06_1336	59.92367928153944	1	0.375
27	31	FALSE	NN	a	['E', 'K', 'B', 'A', 'Y', 'J', 'Z', 'V', 'R', 'N', 'W', 'T', 'H', 'C', 'G', 'S']	[904, 1122, 760, 697, 2670, 1029, 2911, 2245, 1587, 1335, 2448, 1888, 986, 829, 944, 1731]	9	Absent	NA	NA	ABSENT	0.3884871006011963	183.47823119163513	185.48593020439148	186.18594307895475	186.535945224702	189.5948691368103	4.108938932418823	[183.48988008499146, 183.606427192688, 184.5781970024109, 184.75763416290283, 185.50842118263245, 185.62523412704468, 185.74196314811707, 185.85879707336426, 185.97540998458862, 186.0923080444336, 186.20906710624695, 186.32596898078918, 186.44282412528992, 186.55946803092957, 186.67638111114502, 186.7932322025299, 186.90978598594666, 187.02676105499268, 187.14328813552856, 187.26021599769592, 187.37704706192017, 187.59487009048462]	[183.4910011886914, 183.6076678553514, 184.5906678553514, 184.7573678553514, 185.5073678553514, 185.62403452201139, 185.74070118867138, 185.85736785533138, 185.97403452199137, 186.09070118865137, 186.20736785531136, 186.32403452197136, 186.44070118863135, 186.55736785529135, 186.67403452195134, 186.79070118861134, 186.90736785527133, 187.02403452193133, 187.14070118859132, 187.25736785525132, 187.3740345219113, 187.60736785524463]	2021_Feb_06_1336	59.92367928153944	1	0.375
27	32	FALSE	NA	a	['M', 'U', 'G', 'J', 'K', 'C', 'A', 'X', 'E', 'P', 'T', 'N', 'S', 'W', 'V', 'H']	[1224, 2059, 944, 1029, 1122, 829, 697, 4000, 904, 1456, 1888, 1335, 1731, 2448, 2245, 986]	8	Present	NA	NA	PRESENT	0.22602200508117676	189.60124111175537	191.60249710083008	192.18583854036177	192.5358404476904	195.71123600006104	4.108738899230957	[189.6128911972046, 189.72964215278625, 190.69456100463867, 190.88089418411255, 191.63142800331116, 191.74840712547302, 191.8650782108307, 191.98194909095764, 192.09868812561035, 192.21561908721924, 192.33226704597473, 192.44922804832458, 192.56591510772705, 192.66591906547546, 192.78275418281555, 192.89954113960266, 193.0161600112915, 193.13297700881958, 193.24978804588318, 193.3666172027588, 193.4836711883545, 193.71123600006104]	[189.60736785524463, 189.72403452190463, 190.70703452190463, 190.87373452190462, 191.62373452190462, 191.74040118856462, 191.8570678552246, 191.9737345218846, 192.0904011885446, 192.2070678552046, 192.3237345218646, 192.4404011885246, 192.55706785518458, 192.67373452184458, 192.79040118850457, 192.90706785516457, 193.02373452182457, 193.14040118848456, 193.25706785514456, 193.37373452180455, 193.49040118846455, 193.72373452179787]	2021_Feb_06_1336	59.92367928153944	1	0.375
27	33	FALSE	NA	a	['Z', 'W', 'U', 'M', 'Y', 'R', 'S', 'G', 'N', 'J', 'K', 'X', 'A', 'H', 'V', 'P']	[2911, 2448, 2059, 1224, 2670, 1587, 1731, 944, 1335, 1029, 1122, 4000, 697, 986, 2245, 1456]	12	Present	NA	NA	PRESENT	0.05440187454223633	195.70747804641724	197.71868801116943	198.7686961173411	199.11869707099544	201.82760310173035	4.108915090560913	[195.71912717819214, 195.83611011505127, 196.81092810630798, 196.98730301856995, 197.73807001113892, 197.85476303100586, 197.9717140197754, 198.08838605880737, 198.20537114143372, 198.32187700271606, 198.4387001991272, 198.5554940700531, 198.67239212989807, 198.7890980243683, 198.90599513053894, 199.0227370262146, 199.139466047287, 199.2563281059265, 199.37315320968628, 199.48990511894226, 199.60655903816223, 199.82760214805603]	[195.72373452179787, 195.84040118845786, 196.82340118845786, 196.99010118845786, 197.74010118845786, 197.85676785511785, 197.97343452177785, 198.09010118843784, 198.20676785509784, 198.32343452175783, 198.44010118841783, 198.55676785507782, 198.67343452173782, 198.7901011883978, 198.9067678550578, 199.0234345217178, 199.1401011883778, 199.2567678550378, 199.3734345216978, 199.49010118835778, 199.60676785501778, 199.8401011883511]	2021_Feb_06_1336	59.92367928153944	1	0.375
27	34	FALSE	NA	a	['P', 'K', 'E', 'H', 'W', 'G', 'J', 'B', 'Y', 'R', 'S', 'N', 'Z', 'X', 'A', 'T']	[1456, 1122, 904, 986, 2448, 944, 1029, 760, 2670, 1587, 1731, 1335, 2911, 4000, 697, 1888]	14	Present	NA	NA	PRESENT	0.3229680061340332	201.8308629989624	203.83506417274475	205.11840442014355	205.46840632747217	207.9439702033997	4.108906030654907	[201.8425121307373, 201.9592981338501, 202.9272952079773, 203.1105341911316, 203.8616020679474, 203.97816109657288, 204.0946559906006, 204.21164298057556, 204.32846808433533, 204.44535112380981, 204.5619831085205, 204.67886209487915, 204.79568004608154, 204.91263604164124, 205.02912497520447, 205.1459469795227, 205.26269602775574, 205.37967014312744, 205.49621605873108, 205.61315512657166, 205.72973203659058, 205.94397020339966]	[201.8401011883511, 201.9567678550111, 202.9397678550111, 203.1064678550111, 203.8564678550111, 203.97313452167108, 204.08980118833108, 204.20646785499108, 204.32313452165107, 204.43980118831107, 204.55646785497106, 204.67313452163106, 204.78980118829105, 204.90646785495105, 205.02313452161104, 205.13980118827104, 205.25646785493103, 205.37313452159103, 205.48980118825102, 205.60646785491102, 205.723134521571, 205.95646785490433]	2021_Feb_06_1336	59.92367928153944	1	0.375
27	35	FALSE	NA	a	['R', 'J', 'Z', 'P', 'T', 'G', 'V', 'X', 'M', 'S', 'A', 'H', 'K', 'Y', 'E', 'W']	[1587, 1029, 2911, 1456, 1888, 944, 2245, 4000, 1224, 1731, 697, 986, 1122, 2670, 904, 2448]	8	Present	NA	NA	PRESENT	0.19214510917663577	207.95382118225095	209.95135521888733	210.53469546632613	210.88469737365477	214.0603370666504	4.1089818477630615	[207.9654700756073, 208.065505027771, 209.04366207122803, 209.2170250415802, 209.96754503250122, 210.08464002609253, 210.20131015777588, 210.31797099113464, 210.43496108055115, 210.55152106285095, 210.6685609817505, 210.78515815734863, 210.9021201133728, 211.01875615119934, 211.1356770992279, 211.25238013267517, 211.3692831993103, 211.48592019081116, 211.6028871536255, 211.71951007843018, 211.83644104003906, 212.0603370666504]	[207.95646785490433, 208.07313452156433, 209.05613452156433, 209.22283452156432, 209.97283452156432, 210.08950118822432, 210.2061678548843, 210.3228345215443, 210.4395011882043, 210.5561678548643, 210.6728345215243, 210.7895011881843, 210.90616785484428, 211.02283452150428, 211.13950118816427, 211.25616785482427, 211.37283452148426, 211.48950118814426, 211.60616785480426, 211.72283452146425, 211.83950118812425, 212.07283452145757]	2021_Feb_06_1336	59.92367928153944	1	0.375
27	36	FALSE	NV	a	['A', 'E', 'S', 'C', 'H', 'U', 'V', 'Y', 'X', 'J', 'K', 'W', 'N', 'T', 'B', 'Z']	[697, 904, 1731, 829, 986, 2059, 2245, 2670, 4000, 1029, 1122, 2448, 1335, 1888, 760, 2911]	9	Present	NA	NA	PRESENT	0.0927889347076416	214.06077313423157	216.0677990913391	216.7678071975308	217.11780910485945	220.1767041683197	4.108905076980591	[214.0724229812622, 214.18893599510193, 215.16002702713013, 215.34021306037903, 216.09080815315247, 216.20773911476135, 216.32440614700317, 216.44130897521973, 216.55815410614014, 216.67489099502563, 216.79170298576355, 216.90854406356812, 217.02534914016724, 217.1419641971588, 217.25889801979065, 217.375568151474, 217.49238920211792, 217.6092610359192, 217.72596216201782, 217.84278321266174, 217.9594841003418, 218.1767029762268]	[214.07283452145757, 214.18950118811756, 215.17250118811756, 215.33920118811756, 216.08920118811756, 216.20586785477755, 216.32253452143755, 216.43920118809754, 216.55586785475754, 216.67253452141753, 216.78920118807753, 216.90586785473752, 217.02253452139752, 217.1392011880575, 217.2558678547175, 217.3725345213775, 217.4892011880375, 217.6058678546975, 217.7225345213575, 217.83920118801748, 217.95586785467748, 218.1892011880108]	2021_Feb_06_1336	59.92367928153944	1	0.375
27	37	FALSE	AN	a	['H', 'C', 'N', 'Y', 'G', 'surprise', 'V', 'P', 'T', 'W', 'A', 'U', 'R', 'S', 'Z', 'B']	[986, 829, 1335, 2670, 944, 'stimAuditory/all_stimAuditory/101.wav', 2245, 1456, 1888, 2448, 697, 2059, 1587, 1731, 2911, 760]	9	Absent	stimAuditory/all_stimAuditory/114.wav	NA	ABSENT	0.11421895027160645	220.1835231781006	222.18408703804016	222.88409514423185	223.2340970515605	226.2930691242218	4.108982086181641	[220.19517302513123, 220.3119490146637, 221.27639412879944, 221.46318912506104, 222.21406602859497, 222.3309509754181, 222.44749402999878, 222.5644052028656, 222.66443300247192, 222.7812421321869, 222.89804911613464, 223.01480197906494, 223.13164615631104, 223.24834299087524, 223.365168094635, 223.48228812217712, 223.59868216514587, 223.71564316749573, 223.83234000205994, 223.9492211341858, 224.06587505340576, 224.2930691242218]	[220.1892011880108, 220.3058678546708, 221.2888678546708, 221.4555678546708, 222.2055678546708, 222.32223452133078, 222.43890118799078, 222.55556785465077, 222.67223452131077, 222.78890118797077, 222.90556785463076, 223.02223452129076, 223.13890118795075, 223.25556785461075, 223.37223452127074, 223.48890118793074, 223.60556785459073, 223.72223452125073, 223.83890118791072, 223.95556785457072, 224.0722345212307, 224.30556785456403]	2021_Feb_06_1336	59.92367928153944	1	0.375
27	38	FALSE	NN	a	['Z', 'V', 'K', 'U', 'S', 'G', 'H', 'B', 'A', 'W', 'N', 'E', 'T', 'J', 'M', 'R']	[2911, 2245, 1122, 2059, 1731, 944, 986, 760, 697, 2448, 1335, 904, 1888, 1029, 1224, 1587]	9	Absent	NA	NA	ABSENT	0.6226499080657959	226.2901430130005	228.30068922042847	229.0006961345273	229.3506980418559	232.40943717956543	4.108747959136963	[226.3017921447754, 226.41855597496033, 227.39276003837585, 227.56982803344727, 228.32043719291687, 228.4373230934143, 228.5541751384735, 228.67081904411316, 228.78778505325317, 228.90439200401306, 229.02129220962524, 229.13814520835876, 229.25493216514587, 229.37169098854065, 229.4885790348053, 229.6053171157837, 229.72199511528015, 229.83896207809448, 229.95551800727844, 230.0725920200348, 230.18913412094116, 230.40943598747253]	[226.30556785456403, 226.42223452122403, 227.40523452122403, 227.57193452122402, 228.32193452122402, 228.43860118788402, 228.555267854544, 228.671934521204, 228.788601187864, 228.905267854524, 229.021934521184, 229.138601187844, 229.25526785450398, 229.37193452116398, 229.48860118782397, 229.60526785448397, 229.72193452114396, 229.83860118780396, 229.95526785446395, 230.07193452112395, 230.18860118778395, 230.42193452111727]	2021_Feb_06_1336	59.92367928153944	1	0.375
27	39	FALSE	NN	a	['A', 'J', 'T', 'V', 'Y', 'E', 'R', 'W', 'H', 'M', 'K', 'Z', 'U', 'B', 'N', 'C']	[697, 1029, 1888, 2245, 2670, 904, 1587, 2448, 986, 1224, 1122, 2911, 2059, 760, 1335, 829]	13	Absent	NA	NA	ABSENT	0.1631450653076172	232.41334199905396	234.41689705848697	235.58357087764432	235.93357278497297	238.52580404281616	4.108906984329224	[232.42499113082886, 232.54175305366516, 233.50913000106812, 233.69334506988525, 234.44349217414856, 234.56073117256165, 234.67715406417847, 234.79401206970215, 234.9109251499176, 235.02769207954407, 235.14437103271484, 235.2612271308899, 235.3779580593109, 235.494863986969, 235.61169910430908, 235.7283411026001, 235.84523820877075, 235.9620270729065, 236.0789670944214, 236.19551301002502, 236.3124520778656, 236.52580404281616]	[232.42193452111727, 232.53860118777726, 233.52160118777726, 233.68830118777726, 234.43830118777726, 234.55496785443725, 234.67163452109725, 234.78830118775724, 234.90496785441724, 235.02163452107723, 235.13830118773723, 235.25496785439722, 235.37163452105722, 235.4883011877172, 235.6049678543772, 235.7216345210372, 235.8383011876972, 235.9549678543572, 236.0716345210172, 236.18830118767718, 236.30496785433718, 236.5383011876705]	2021_Feb_06_1336	59.92367928153944	1	0.375
27	40	FALSE	NA	a	['Z', 'G', 'R', 'Y', 'S', 'M', 'A', 'X', 'U', 'K', 'W', 'C', 'H', 'E', 'T', 'J']	[2911, 944, 1587, 2670, 1731, 1224, 697, 4000, 2059, 1122, 2448, 829, 986, 904, 1888, 1029]	8	Present	NA	NA	PRESENT	0.04050087928771973	238.51951909065247	240.53329014778137	241.1166313488945	241.46663349464168	244.64217019081116	4.108880043029785	[238.5311679840088, 238.6480851173401, 239.6254951953888, 239.799556016922, 240.55001711845398, 240.66689705848694, 240.78382921218872, 240.90044403076172, 241.0172300338745, 241.1341199874878, 241.2510371208191, 241.36771321296692, 241.48464798927307, 241.60130620002747, 241.71819019317627, 241.8349370956421, 241.9516260623932, 242.06861305236816, 242.1853551864624, 242.30213117599487, 242.41944098472595, 242.64216899871826]	[238.5383011876705, 238.6549678543305, 239.6379678543305, 239.8046678543305, 240.5546678543305, 240.67133452099048, 240.78800118765048, 240.90466785431047, 241.02133452097047, 241.13800118763046, 241.25466785429046, 241.37133452095046, 241.48800118761045, 241.60466785427045, 241.72133452093044, 241.83800118759044, 241.95466785425043, 242.07133452091043, 242.18800118757042, 242.30466785423042, 242.4213345208904, 242.65466785422373]	2021_Feb_06_1336	59.92367928153944	1	0.375
27	41	FALSE	NN	a	['K', 'U', 'W', 'B', 'G', 'M', 'Z', 'C', 'P', 'R', 'H', 'E', 'N', 'T', 'Y', 'V']	[1122, 2059, 2448, 760, 944, 1224, 2911, 829, 1456, 1587, 986, 904, 1335, 1888, 2670, 2245]	13	Absent	NA	NA	ABSENT	0.05306315422058105	244.64323806762695	246.6495921611786	247.8162666955917	248.1662688413389	250.75853610038757	4.108943939208984	[244.65488815307617, 244.77147912979126, 245.74186205863953, 245.92281007766724, 246.6734540462494, 246.79013013839722, 246.90705013275146, 247.0237112045288, 247.1404631137848, 247.25736117362976, 247.37422013282776, 247.4908890724182, 247.6077380180359, 247.7245969772339, 247.84123420715332, 247.95818710327148, 248.074933052063, 248.1916811466217, 248.30857014656067, 248.42537307739258, 248.5419840812683, 248.75853610038757]	[244.65466785422373, 244.77133452088373, 245.75433452088373, 245.92103452088372, 246.67103452088372, 246.78770118754372, 246.9043678542037, 247.0210345208637, 247.1377011875237, 247.2543678541837, 247.3710345208437, 247.4877011875037, 247.60436785416368, 247.72103452082368, 247.83770118748367, 247.95436785414367, 248.07103452080366, 248.18770118746366, 248.30436785412365, 248.42103452078365, 248.53770118744364, 248.77103452077696]	2021_Feb_06_1336	59.92367928153944	1	0.375
27	42	FALSE	NA	a	['H', 'V', 'N', 'Z', 'G', 'K', 'T', 'X', 'B', 'P', 'R', 'Y', 'E', 'C', 'J', 'W']	[986, 2245, 1335, 2911, 944, 1122, 1888, 4000, 760, 1456, 1587, 2670, 904, 829, 1029, 2448]	8	Present	NA	NA	PRESENT	0.06616902351379395	250.76619911193848	252.76603722572327	253.3493774731621	253.69937938049068	256.8749032020569	4.108865976333618	[250.7778491973877, 250.89470601081848, 251.85822916030884, 252.04564499855042, 252.79676008224487, 252.89663219451904, 253.01334619522095, 253.13013410568237, 253.24683213233948, 253.36363816261292, 253.4804790019989, 253.59728002548218, 253.7140212059021, 253.83085107803345, 253.94765710830688, 254.0644941329956, 254.18137907981873, 254.29815101623535, 254.4150722026825, 254.53183007240295, 254.64849400520325, 254.87490320205688]	[250.77103452077696, 250.88770118743696, 251.87070118743696, 252.03740118743696, 252.78740118743696, 252.90406785409695, 253.02073452075695, 253.13740118741694, 253.25406785407694, 253.37073452073693, 253.48740118739693, 253.60406785405692, 253.72073452071692, 253.8374011873769, 253.9540678540369, 254.0707345206969, 254.1874011873569, 254.3040678540169, 254.4207345206769, 254.53740118733688, 254.65406785399688, 254.8874011873302]	2021_Feb_06_1336	59.92367928153944	1	0.375
27	43	FALSE	NV	a	['K', 'R', 'E', 'U', 'Y', 'W', 'Z', 'G', 'J', 'N', 'X', 'C', 'H', 'T', 'V', 'B']	[1122, 1587, 904, 2059, 2670, 2448, 2911, 944, 1029, 1335, 4000, 829, 986, 1888, 2245, 760]	11	Present	NA	NA	PRESENT	0.06284499168395996	256.8726270198822	258.8823010921478	259.81564253165953	260.1656444389881	262.9912700653076	4.10896897315979	[256.8842761516571, 257.00098299980164, 257.97459506988525, 258.15234112739563, 258.90295600891113, 259.019828081131, 259.1367189884186, 259.25332903862, 259.3702321052551, 259.4870409965515, 259.6038520336151, 259.72060799598694, 259.837434053421, 259.95419120788574, 260.07093119621277, 260.1878001689911, 260.3044981956482, 260.42182302474976, 260.53807306289673, 260.6549460887909, 260.77161598205566, 260.9912700653076]	[256.88740118733017, 257.0040678539902, 257.9870678539902, 258.1537678539902, 258.9037678539902, 259.0204345206502, 259.13710118731024, 259.25376785397026, 259.3704345206303, 259.4871011872903, 259.60376785395033, 259.72043452061035, 259.8371011872704, 259.9537678539304, 260.0704345205904, 260.18710118725045, 260.3037678539105, 260.4204345205705, 260.5371011872305, 260.65376785389054, 260.77043452055057, 261.0037678538839]	2021_Feb_06_1336	59.92367928153944	1	0.375
27	44	FALSE	NA	a	['T', 'E', 'U', 'Z', 'M', 'G', 'W', 'N', 'C', 'P', 'X', 'B', 'S', 'A', 'K', 'R']	[1888, 904, 2059, 2911, 1224, 944, 2448, 1335, 829, 1456, 4000, 760, 1731, 697, 1122, 1587]	11	Present	NA	NA	PRESENT	0.219404935836792	262.9958782196045	264.9989080429077	265.9322494824194	266.28225234342233	269.10763597488403	4.108727931976318	[263.0075271129608, 263.12429904937744, 264.09096097946167, 264.2753620147705, 265.0266201496124, 265.1431670188904, 265.2598659992218, 265.3765799999237, 265.4934220314026, 265.6102740764618, 265.7268431186676, 265.84382700920105, 265.9605510234833, 266.0771520137787, 266.1941521167755, 266.3107821941376, 266.42793917655945, 266.54456901550293, 266.6613960266113, 266.7781400680542, 266.8950572013855, 267.10763716697693]	[263.0037678538839, 263.12043452054394, 264.10343452054394, 264.27013452054393, 265.02013452054393, 265.13680118720396, 265.253467853864, 265.370134520524, 265.486801187184, 265.60346785384405, 265.7201345205041, 265.8368011871641, 265.9534678538241, 266.07013452048415, 266.18680118714417, 266.3034678538042, 266.4201345204642, 266.53680118712424, 266.65346785378426, 266.7701345204443, 266.8868011871043, 267.12013452043766]	2021_Feb_06_1336	59.92367928153944	1	0.375
27	45	FALSE	AN	a	['N', 'P', 'M', 'E', 'A', 'J', 'B', 'C', 'H', 'V', 'surprise', 'S', 'Z', 'R', 'U', 'W']	[1335, 1456, 1224, 904, 697, 1029, 760, 829, 986, 2245, 'stimAuditory/all_stimAuditory/203.wav', 1731, 2911, 1587, 2059, 2448]	14	Absent	stimAuditory/all_stimAuditory/123.wav	NA	ABSENT	0.12883400917053223	269.10219717025757	271.1148040294647	272.3981554825367	272.74815834353967	275.22400403022766	4.1092000007629395	[269.1138460636139, 269.2305791378021, 270.20732712745667, 270.3819441795349, 271.1326901912689, 271.24948716163635, 271.3662350177765, 271.48300313949585, 271.5998890399933, 271.7166271209717, 271.83351397514343, 271.9501910209656, 272.0672171115875, 272.18384408950806, 272.3006970882416, 272.41761803627014, 272.53426909446716, 272.6510081291199, 272.76780104637146, 272.88455605506897, 273.00144815444946, 273.22400307655334]	[269.12013452043766, 269.2368011870977, 270.2198011870977, 270.3865011870977, 271.1365011870977, 271.2531678537577, 271.3698345204177, 271.48650118707775, 271.6031678537378, 271.7198345203978, 271.8365011870578, 271.95316785371784, 272.06983452037787, 272.1865011870379, 272.3031678536979, 272.41983452035794, 272.53650118701796, 272.653167853678, 272.769834520338, 272.88650118699803, 273.00316785365806, 273.2365011869914]	2021_Feb_06_1336	59.92367928153944	1	0.375
27	46	FALSE	NN	a	['N', 'Y', 'C', 'E', 'K', 'J', 'R', 'V', 'A', 'S', 'H', 'Z', 'G', 'M', 'W', 'B']	[1335, 2670, 829, 904, 1122, 1029, 1587, 2245, 697, 1731, 986, 2911, 944, 1224, 2448, 760]	8	Absent	NA	NA	ABSENT	0.2452220916748047	275.22583508491516	277.23151206970215	277.8148525555595	278.1648544628882	281.34037017822266	4.108858108520508	[275.2374851703644, 275.3538119792938, 276.32369112968445, 276.5049262046814, 277.25590205192566, 277.37275099754333, 277.4895210266113, 277.6063301563263, 277.7228991985321, 277.839821100235, 277.95662212371826, 278.07344698905945, 278.1900911331177, 278.3068780899048, 278.4238510131836, 278.54065918922424, 278.657329082489, 278.7741870880127, 278.8909010887146, 279.00782799720764, 279.12460112571716, 279.34036898612976]	[275.2365011869914, 275.3531678536514, 276.33616785365143, 276.5028678536514, 277.2528678536514, 277.36953452031145, 277.48620118697147, 277.6028678536315, 277.7195345202915, 277.83620118695154, 277.95286785361156, 278.0695345202716, 278.1862011869316, 278.30286785359164, 278.41953452025166, 278.5362011869117, 278.6528678535717, 278.76953452023173, 278.88620118689175, 279.0028678535518, 279.1195345202118, 279.35286785354515]	2021_Feb_06_1336	59.92367928153944	1	0.375
27	47	FALSE	NV	a	['C', 'Y', 'S', 'V', 'Z', 'R', 'B', 'N', 'M', 'X', 'U', 'W', 'A', 'H', 'E', 'G']	[829, 2670, 1731, 2245, 2911, 1587, 760, 1335, 1224, 4000, 2059, 2448, 697, 986, 904, 944]	10	Present	NA	NA	PRESENT	0.13857698440551758	281.34855818748474	283.34776616096497	284.16444069539807	284.5144428411453	287.4567360877991	4.1089699268341064	[281.36020708084106, 281.47709107398987, 282.44006299972534, 282.6113681793213, 283.3791592121124, 283.47904920578003, 283.59590220451355, 283.71266508102417, 283.8294050693512, 283.94612097740173, 284.0631220340729, 284.17976117134094, 284.2966949939728, 284.4137761592865, 284.5303361415863, 284.64705514907837, 284.7637460231781, 284.8806121349335, 284.99727606773376, 285.11423897743225, 285.2309470176697, 285.4567360877991]	[281.35286785354515, 281.4695345202052, 282.4525345202052, 282.61923452020517, 283.36923452020517, 283.4859011868652, 283.6025678535252, 283.71923452018524, 283.83590118684526, 283.9525678535053, 284.0692345201653, 284.18590118682533, 284.30256785348536, 284.4192345201454, 284.5359011868054, 284.6525678534654, 284.76923452012545, 284.8859011867855, 285.0025678534455, 285.1192345201055, 285.23590118676555, 285.4692345200989]	2021_Feb_06_1336	59.92367928153944	1	0.375
27	48	FALSE	NV	a	['N', 'K', 'C', 'Y', 'P', 'W', 'S', 'B', 'A', 'Z', 'G', 'R', 'H', 'X', 'T', 'U']	[1335, 1122, 829, 2670, 1456, 2448, 1731, 760, 697, 2911, 944, 1587, 986, 4000, 1888, 2059]	14	Present	NA	NA	PRESENT	0.2471790313720703	287.45520520210266	289.46422719955444	290.74756840062753	291.09757054637475	293.5731041431427	4.108876943588257	[287.4668550491333, 287.5834159851074, 288.55643010139465, 288.7347331047058, 289.4854300022125, 289.6023910045624, 289.7191090583801, 289.8360860347748, 289.95271706581116, 290.06964206695557, 290.18619108200073, 290.3030881881714, 290.4203701019287, 290.53676414489746, 290.6533751487732, 290.7702510356903, 290.8869061470032, 291.003671169281, 291.12066411972046, 291.2374701499939, 291.3541920185089, 291.573105096817]	[287.4692345200989, 287.5859011867589, 288.5689011867589, 288.7356011867589, 289.4856011867589, 289.60226785341894, 289.71893452007896, 289.835601186739, 289.952267853399, 290.06893452005903, 290.18560118671905, 290.3022678533791, 290.4189345200391, 290.5356011866991, 290.65226785335915, 290.7689345200192, 290.8856011866792, 291.0022678533392, 291.11893451999924, 291.23560118665927, 291.3522678533193, 291.58560118665264]	2021_Feb_06_1336	59.92367928153944	1	0.375
27	49	FALSE	NN	a	['R', 'C', 'W', 'U', 'S', 'N', 'V', 'J', 'T', 'G', 'A', 'K', 'B', 'P', 'Z', 'H']	[1587, 829, 2448, 2059, 1731, 1335, 2245, 1029, 1888, 944, 697, 1122, 760, 1456, 2911, 986]	10	Absent	NA	NA	ABSENT	0.16380596160888672	293.57820105552673	295.5804991722107	296.3971727529695	296.74717466029813	299.6894700527191	4.108970880508423	[293.58985018730164, 293.7068340778351, 294.67279410362244, 294.85831904411316, 295.60874700546265, 295.725545167923, 295.8422532081604, 295.9591841697693, 296.0759630203247, 296.19266414642334, 296.30953907966614, 296.4267141819, 296.5429971218109, 296.65993309020996, 296.7765471935272, 296.89336705207825, 297.0102610588074, 297.12695717811584, 297.2438220977783, 297.3604950904846, 297.4773180484772, 297.6894690990448]	[293.58560118665264, 293.70226785331266, 294.68526785331267, 294.85196785331266, 295.60196785331266, 295.7186345199727, 295.8353011866327, 295.95196785329273, 296.06863451995275, 296.1853011866128, 296.3019678532728, 296.4186345199328, 296.53530118659285, 296.65196785325287, 296.7686345199129, 296.8853011865729, 297.00196785323294, 297.11863451989296, 297.235301186553, 297.351967853213, 297.46863451987304, 297.7019678532064]	2021_Feb_06_1336	59.92367928153944	1	0.375
27	50	FALSE	NN	a	['J', 'A', 'S', 'W', 'R', 'T', 'N', 'G', 'E', 'Z', 'B', 'H', 'M', 'V', 'Y', 'C']	[1029, 697, 1731, 2448, 1587, 1888, 1335, 944, 904, 2911, 760, 986, 1224, 2245, 2670, 829]	9	Absent	NA	NA	ABSENT	0.12907886505126953	299.6845672130585	301.6968710422516	302.3968791484433	302.7468810557719	305.8058362007141	4.108965158462524	[299.6962170600891, 299.8130211830139, 300.78916001319885, 300.9642131328583, 301.71502113342285, 301.83200907707214, 301.9487600326538, 302.0654101371765, 302.1822121143341, 302.2989420890808, 302.4157819747925, 302.5326449871063, 302.6495261192322, 302.7663481235504, 302.88295102119446, 302.9998722076416, 303.11660599708557, 303.23359417915344, 303.3502941131592, 303.4670650959015, 303.58385610580444, 303.8058362007141]	[299.7019678532064, 299.8186345198664, 300.8016345198664, 300.9683345198664, 301.7183345198664, 301.8350011865264, 301.95166785318645, 302.0683345198465, 302.1850011865065, 302.3016678531665, 302.41833451982654, 302.53500118648657, 302.6516678531466, 302.7683345198066, 302.88500118646664, 303.00166785312666, 303.1183345197867, 303.2350011864467, 303.35166785310673, 303.46833451976676, 303.5850011864268, 303.8183345197601]	2021_Feb_06_1336	59.92367928153944	1	0.375
27	51	FALSE	NV	a	['C', 'Z', 'A', 'U', 'K', 'G', 'T', 'P', 'Y', 'R', 'M', 'X', 'W', 'J', 'S', 'B']	[829, 2911, 697, 2059, 1122, 944, 1888, 1456, 2670, 1587, 1224, 4000, 2448, 1029, 1731, 760]	12	Present	NA	NA	PRESENT	0.07760190963745117	305.80831599235535	307.8129930496216	308.86300115579326	309.2130030631219	311.9222140312195	4.1092209815979	[305.81996607780457, 305.936311006546, 306.9055290222168, 307.0874261856079, 307.83824610710144, 307.9552710056305, 308.0720272064209, 308.1887640953064, 308.3054389953613, 308.4223880767822, 308.539115190506, 308.6559181213379, 308.7725601196289, 308.8895320892334, 309.0061659812927, 309.12315797805786, 309.2398900985718, 309.3566381931305, 309.47345304489136, 309.5902261734009, 309.7069890499115, 309.92220401763916]	[305.8183345197601, 305.93500118642015, 306.91800118642016, 307.08470118642015, 307.83470118642015, 307.95136785308017, 308.0680345197402, 308.1847011864002, 308.30136785306024, 308.41803451972027, 308.5347011863803, 308.6513678530403, 308.76803451970034, 308.88470118636036, 309.0013678530204, 309.1180345196804, 309.23470118634043, 309.35136785300045, 309.4680345196605, 309.5847011863205, 309.7013678529805, 309.9347011863139]	2021_Feb_06_1336	59.92367928153944	1	0.375
27	52	FALSE	VA	a	['S', 'Z', 'G', 'T', 'H', 'N', 'M', 'surprise', 'Y', 'R', 'X', 'B', 'W', 'U', 'E', 'C']	[1731, 2911, 944, 1888, 986, 1335, 1224, 'stimAuditory/all_stimAuditory/117.wav', 2670, 1587, 4000, 760, 2448, 2059, 904, 829]	11	Present	NA	NA	PRESENT	0.10686397552490234	311.9311101436615	313.9297251701355	314.8630654175543	315.2130673248829	318.03857016563416	4.108844995498657	[311.94275999069214, 312.05953216552734, 313.0218939781189, 313.1939580440521, 313.96154618263245, 314.06159806251526, 314.17849612236023, 314.29523611068726, 314.41207003593445, 314.5288209915161, 314.64569306373596, 314.7624280452728, 314.87917017936707, 314.9958791732788, 315.1128251552582, 315.22960019111633, 315.34637212753296, 315.4634921550751, 315.5799911022186, 315.69681310653687, 315.8135130405426, 316.03857016563416]	[311.9347011863139, 312.0513678529739, 313.0343678529739, 313.2010678529739, 313.9510678529739, 314.0677345196339, 314.18440118629394, 314.30106785295396, 314.417734519614, 314.534401186274, 314.65106785293403, 314.76773451959406, 314.8844011862541, 315.0010678529141, 315.1177345195741, 315.23440118623415, 315.3510678528942, 315.4677345195542, 315.5844011862142, 315.70106785287425, 315.81773451953427, 316.0510678528676]	2021_Feb_06_1336	59.92367928153944	1	0.375
27	53	FALSE	NN	a	['K', 'J', 'Z', 'Y', 'H', 'U', 'M', 'T', 'G', 'A', 'P', 'B', 'C', 'S', 'R', 'E']	[1122, 1029, 2911, 2670, 986, 2059, 1224, 1888, 944, 697, 1456, 760, 829, 1731, 1587, 904]	9	Absent	NA	NA	ABSENT	0.04743504524230957	318.037456035614	320.0460321903229	320.746040058096	321.0960422038432	324.1549370288849	4.108904838562012	[318.0491051673889, 318.1660270690918, 319.1382620334625, 319.3171319961548, 320.06794118881226, 320.18482518196106, 320.30177116394043, 320.4189541339874, 320.53516602516174, 320.652113199234, 320.7687110900879, 320.8856461048126, 321.00225710868835, 321.11913800239563, 321.23591804504395, 321.35275316238403, 321.4695541858673, 321.5863060951233, 321.7031180858612, 321.81982612609863, 321.9366910457611, 322.15493512153625]	[318.0510678528676, 318.16773451952764, 319.15073451952765, 319.31743451952764, 320.06743451952764, 320.18410118618766, 320.3007678528477, 320.4174345195077, 320.53410118616773, 320.65076785282776, 320.7674345194878, 320.8841011861478, 321.0007678528078, 321.11743451946785, 321.2341011861279, 321.3507678527879, 321.4674345194479, 321.58410118610794, 321.70076785276797, 321.817434519428, 321.934101186088, 322.16743451942136]	2021_Feb_06_1336	59.92367928153944	1	0.375
27	54	FALSE	NN	a	['C', 'B', 'A', 'W', 'H', 'M', 'K', 'E', 'Z', 'U', 'S', 'V', 'G', 'T', 'N', 'R']	[829, 760, 697, 2448, 986, 1224, 1122, 904, 2911, 2059, 1731, 2245, 944, 1888, 1335, 1587]	9	Absent	NA	NA	ABSENT	0.06087303161621094	324.1607701778412	326.1623921394348	326.86240000720795	327.2124021529551	330.2713031768799	4.108911037445068	[324.1724190711975, 324.2892060279846, 325.2546269893646, 325.44059705734253, 326.1912651062012, 326.30805802345276, 326.4248411655426, 326.5416440963745, 326.6584541797638, 326.775062084198, 326.89204502105713, 327.008780002594, 327.1256790161133, 327.24219012260437, 327.35921812057495, 327.4759511947632, 327.5927891731262, 327.69257712364197, 327.8094880580902, 327.92627716064453, 328.04303097724915, 328.2713031768799]	[324.16743451942136, 324.2841011860814, 325.2671011860814, 325.4338011860814, 326.1838011860814, 326.3004678527414, 326.41713451940143, 326.53380118606145, 326.6504678527215, 326.7671345193815, 326.8838011860415, 327.00046785270155, 327.11713451936157, 327.2338011860216, 327.3504678526816, 327.46713451934164, 327.58380118600166, 327.7004678526617, 327.8171345193217, 327.93380118598174, 328.05046785264176, 328.2838011859751]	2021_Feb_06_1336	59.92367928153944	1	0.375
27	55	FALSE	AV	a	['Y', 'E', 'P', 'H', 'surprise', 'V', 'C', 'X', 'B', 'Z', 'U', 'R', 'J', 'A', 'T', 'S']	[2670, 904, 1456, 986, 'stimAuditory/all_stimAuditory/104.wav', 2245, 829, 4000, 760, 2911, 2059, 1587, 1029, 697, 1888, 1731]	8	Present	stimAuditory/all_stimAuditory/101.wav	NA	PRESENT	0.161268949508667	330.26707100868225	332.27875900268555	332.86210044221724	333.2121023495459	336.3876700401306	4.108911037445068	[330.27872014045715, 330.3955512046814, 331.3709931373596, 331.5469100475311, 332.2976679801941, 332.41443514823914, 332.53142404556274, 332.64798402786255, 332.76472902297974, 332.8816251754761, 332.99850511550903, 333.11525797843933, 333.2319860458374, 333.34893703460693, 333.4655101299286, 333.5824601650238, 333.6992690563202, 333.8159911632538, 333.9327690601349, 334.04961013793945, 334.16647505760193, 334.3876721858978]	[330.2838011859751, 330.40046785263513, 331.38346785263514, 331.5501678526351, 332.3001678526351, 332.41683451929515, 332.5335011859552, 332.6501678526152, 332.7668345192752, 332.88350118593524, 333.00016785259527, 333.1168345192553, 333.2335011859153, 333.35016785257534, 333.46683451923536, 333.5835011858954, 333.7001678525554, 333.81683451921543, 333.93350118587546, 334.0501678525355, 334.1668345191955, 334.40016785252885]	2021_Feb_06_1336	59.92367928153944	1	0.375
27	56	FALSE	NV	a	['C', 'J', 'R', 'U', 'T', 'G', 'B', 'K', 'S', 'V', 'H', 'P', 'X', 'Y', 'Z', 'A']	[829, 1029, 1587, 2059, 1888, 944, 760, 1122, 1731, 2245, 986, 1456, 4000, 2670, 2911, 697]	13	Present	NA	NA	PRESENT	0.8698508739471436	336.39063715934753	338.39523005485535	339.5619038740127	339.9119057813414	342.5040371417999	4.10880708694458	[336.4022870063782, 336.5189731121063, 337.48736214637756, 337.66997504234314, 338.42102003097534, 338.5377151966095, 338.65444016456604, 338.7713451385498, 338.8881061077118, 339.00494408607483, 339.12167716026306, 339.238361120224, 339.3552920818329, 339.47198510169983, 339.5888001918793, 339.70535707473755, 339.82238507270813, 339.939227104187, 340.0560472011566, 340.17271614074707, 340.2895781993866, 340.5040371417999]	[336.40016785252885, 336.5168345191889, 337.4998345191889, 337.6665345191889, 338.4165345191889, 338.5332011858489, 338.6498678525089, 338.76653451916894, 338.88320118582897, 338.999867852489, 339.116534519149, 339.23320118580904, 339.34986785246906, 339.4665345191291, 339.5832011857891, 339.69986785244913, 339.81653451910915, 339.9332011857692, 340.0498678524292, 340.1665345190892, 340.28320118574925, 340.5165345190826]	2021_Feb_06_1336	59.92367928153944	1	0.375
27	57	FALSE	NV	a	['A', 'G', 'M', 'E', 'T', 'C', 'R', 'J', 'Y', 'U', 'N', 'W', 'V', 'X', 'B', 'K']	[697, 944, 1224, 904, 1888, 829, 1587, 1029, 2670, 2059, 1335, 2448, 2245, 4000, 760, 1122]	14	Present	NA	NA	PRESENT	0.02662301063537597	342.5135340690613	344.5115702152252	345.7949114162983	346.14491332362695	348.62040305137634	4.108832836151123	[342.5251832008362, 342.6420261859894, 343.6037380695343, 343.7763931751251, 344.54403710365295, 344.6439712047577, 344.76077604293823, 344.877690076828, 344.9943251609802, 345.111310005188, 345.2279272079468, 345.3449261188507, 345.46159315109253, 345.57853603363037, 345.6953580379486, 345.8120369911194, 345.92870020866394, 346.04569721221924, 346.16231513023376, 346.2789831161499, 346.3960859775543, 346.62040400505066]	[342.5165345190826, 342.6332011857426, 343.6162011857426, 343.7829011857426, 344.5329011857426, 344.64956785240264, 344.76623451906266, 344.8829011857227, 344.9995678523827, 345.11623451904273, 345.23290118570276, 345.3495678523628, 345.4662345190228, 345.58290118568283, 345.69956785234285, 345.8162345190029, 345.9329011856629, 346.0495678523229, 346.16623451898295, 346.28290118564297, 346.399567852303, 346.63290118563634]	2021_Feb_06_1336	59.92367928153944	1	0.375
27	58	FALSE	NA	a	['N', 'Z', 'S', 'E', 'U', 'G', 'P', 'J', 'B', 'T', 'Y', 'K', 'A', 'X', 'R', 'W']	[1335, 2911, 1731, 904, 2059, 944, 1456, 1029, 760, 1888, 2670, 1122, 697, 4000, 1587, 2448]	14	Present	NA	NA	PRESENT	0.04780817031860351	348.62040615081787	350.62778401374817	351.9111244995655	352.26112640689416	354.73676919937134	4.108985185623169	[348.6320559978485, 348.7485990524292, 349.72009110450745, 349.8995940685272, 350.65061497688293, 350.76713609695435, 350.8839781284332, 351.00074219703674, 351.11765909194946, 351.23459815979004, 351.3512201309204, 351.46803307533264, 351.58492708206177, 351.7015631198883, 351.8184142112732, 351.93514609336853, 352.0519301891327, 352.16886711120605, 352.2855110168457, 352.4025070667267, 352.5193281173706, 352.73676919937134]	[348.63290118563634, 348.74956785229637, 349.73256785229637, 349.89926785229636, 350.64926785229636, 350.7659345189564, 350.8826011856164, 350.99926785227643, 351.11593451893646, 351.2326011855965, 351.3492678522565, 351.4659345189165, 351.58260118557655, 351.6992678522366, 351.8159345188966, 351.9326011855566, 352.04926785221664, 352.16593451887667, 352.2826011855367, 352.3992678521967, 352.51593451885674, 352.7492678521901]	2021_Feb_06_1336	59.92367928153944	1	0.375
27	59	FALSE	NA	a	['M', 'V', 'S', 'K', 'E', 'U', 'N', 'X', 'P', 'B', 'A', 'W', 'J', 'G', 'C', 'Z']	[1224, 2245, 1731, 1122, 904, 2059, 1335, 4000, 1456, 760, 697, 2448, 1029, 944, 829, 2911]	8	Present	NA	NA	PRESENT	0.2050929069519043	354.74315118789673	356.74385714530945	357.32719834642256	357.6772004921698	360.8531370162964	4.1092798709869385	[354.75480008125305, 354.8716239929199, 355.8364601135254, 356.0228090286255, 356.7739841938019, 356.8903751373291, 357.007266998291, 357.1240110397339, 357.2410252094269, 357.35754919052124, 357.4744110107422, 357.57436418533325, 357.69120717048645, 357.8080310821533, 357.9248631000519, 358.0415470600128, 358.15837001800537, 358.2751531600952, 358.3919620513916, 358.50873708724976, 358.6254870891571, 358.8531370162964]	[354.7492678521901, 354.8659345188501, 355.8489345188501, 356.0156345188501, 356.7656345188501, 356.88230118551013, 356.99896785217015, 357.1156345188302, 357.2323011854902, 357.3489678521502, 357.46563451881025, 357.58230118547027, 357.6989678521303, 357.8156345187903, 357.93230118545034, 358.04896785211037, 358.1656345187704, 358.2823011854304, 358.39896785209044, 358.51563451875046, 358.6323011854105, 358.86563451874383]	2021_Feb_06_1336	59.92367928153944	1	0.375
27	60	FALSE	NN	a	['U', 'W', 'V', 'R', 'Z', 'A', 'C', 'M', 'K', 'H', 'Y', 'S', 'N', 'B', 'G', 'P']	[2059, 2448, 2245, 1587, 2911, 697, 829, 1224, 1122, 986, 2670, 1731, 1335, 760, 944, 1456]	12	Absent	NA	NA	ABSENT	0.05733203887939453	360.8497591018677	362.86049008369446	363.9104969977733	364.26049914352046	366.9695041179657	4.10901403427124	[360.8614091873169, 360.9781241416931, 361.95283102989197, 362.1294581890106, 362.8800311088562, 362.99702501296997, 363.1137230396271, 363.2306501865387, 363.3472731113434, 363.4642059803009, 363.580934047699, 363.6976602077484, 363.8145070075989, 363.93125104904175, 364.04817605018616, 364.1650061607361, 364.2817120552063, 364.39850902557373, 364.51507806777954, 364.6319091320038, 364.748850107193, 364.9695041179657]	[360.86563451874383, 360.98230118540386, 361.96530118540386, 362.13200118540385, 362.88200118540385, 362.9986678520639, 363.1153345187239, 363.2320011853839, 363.34866785204395, 363.46533451870397, 363.582001185364, 363.698667852024, 363.81533451868404, 363.93200118534406, 364.0486678520041, 364.1653345186641, 364.28200118532413, 364.39866785198416, 364.5153345186442, 364.6320011853042, 364.7486678519642, 364.9820011852976]	2021_Feb_06_1336	59.92367928153944	1	0.375
27	61	FALSE	NV	a	['Z', 'B', 'H', 'S', 'R', 'A', 'Y', 'X', 'U', 'C', 'E', 'V', 'W', 'G', 'M', 'N']	[2911, 760, 986, 1731, 1587, 697, 2670, 4000, 2059, 829, 904, 2245, 2448, 944, 1224, 1335]	8	Present	NA	NA	PRESENT	0.02206707000732422	366.9730780124664	368.97693705558777	369.56027849511946	369.9102804024481	373.0858700275421	4.108932971954346	[366.98472809791565, 367.1013112068176, 368.06919503211975, 368.2529351711273, 369.0032870769501, 369.12016010284424, 369.2369420528412, 369.35366106033325, 369.4706380367279, 369.5873830318451, 369.7042200565338, 369.8210120201111, 369.9375231266022, 370.05443000793457, 370.1713800430298, 370.2879230976105, 370.40477204322815, 370.52139711380005, 370.638295173645, 370.75508213043213, 370.87207317352295, 371.0858700275421]	[366.9820011852976, 367.0986678519576, 368.0816678519576, 368.2483678519576, 368.9983678519576, 369.1150345186176, 369.23170118527764, 369.34836785193767, 369.4650345185977, 369.5817011852577, 369.69836785191774, 369.81503451857776, 369.9317011852378, 370.0483678518978, 370.16503451855783, 370.28170118521786, 370.3983678518779, 370.5150345185379, 370.6317011851979, 370.74836785185795, 370.865034518518, 371.0983678518513]	2021_Feb_06_1336	59.92367928153944	1	0.375
27	62	FALSE	NN	a	['G', 'H', 'V', 'S', 'U', 'M', 'T', 'E', 'A', 'J', 'R', 'C', 'W', 'P', 'K', 'Y']	[944, 986, 2245, 1731, 2059, 1224, 1888, 904, 697, 1029, 1587, 829, 2448, 1456, 1122, 2670]	11	Absent	NA	NA	ABSENT	0.1153421401977539	373.0959360599518	375.0934660434723	376.026807482984	376.3768093903126	379.2022371292114	4.108771085739136	[373.1075870990753, 373.2077250480652, 374.18555903434753, 374.35898303985596, 375.10962319374084, 375.2266221046448, 375.34351205825806, 375.4602470397949, 375.57688307762146, 375.6938650608063, 375.81069111824036, 375.9274230003357, 376.04411911964417, 376.1608901023865, 376.27768301963806, 376.3946030139923, 376.5115900039673, 376.6279740333557, 376.7448651790619, 376.8616900444031, 376.97850704193115, 377.2022361755371]	[373.0983678518513, 373.21503451851135, 374.19803451851135, 374.36473451851134, 375.11473451851134, 375.23140118517136, 375.3480678518314, 375.4647345184914, 375.58140118515144, 375.69806785181146, 375.8147345184715, 375.9314011851315, 376.04806785179153, 376.16473451845155, 376.2814011851116, 376.3980678517716, 376.5147345184316, 376.63140118509165, 376.74806785175167, 376.8647345184117, 376.9814011850717, 377.21473451840507]	2021_Feb_06_1336	59.92367928153944	1	0.375
27	63	FALSE	NA	a	['J', 'B', 'K', 'G', 'H', 'A', 'E', 'Z', 'S', 'T', 'M', 'W', 'Y', 'X', 'P', 'U']	[1029, 760, 1122, 944, 986, 697, 904, 2911, 1731, 1888, 1224, 2448, 2670, 4000, 1456, 2059]	14	Present	NA	NA	PRESENT	0.02407193183898925	379.2024621963501	381.20977115631104	382.4931114037098	382.84311354945703	385.31860303878784	4.108831882476807	[379.21411204338074, 379.3311080932617, 380.30192613601685, 380.4821150302887, 381.2328350543976, 381.3497431278229, 381.46669006347656, 381.58324217796326, 381.7000939846039, 381.8168640136719, 381.93407106399536, 382.0504231452942, 382.1673049926758, 382.283949136734, 382.4008641242981, 382.5175681114197, 382.63446497917175, 382.75132608413696, 382.86816120147705, 382.9848301410675, 383.10166120529175, 383.31860303878784]	[379.21473451840507, 379.3314011850651, 380.3144011850651, 380.4811011850651, 381.2311011850651, 381.3477678517251, 381.46443451838513, 381.58110118504516, 381.6977678517052, 381.8144345183652, 381.9311011850252, 382.04776785168525, 382.1644345183453, 382.2811011850053, 382.3977678516653, 382.51443451832534, 382.63110118498537, 382.7477678516454, 382.8644345183054, 382.98110118496544, 383.09776785162546, 383.3311011849588]	2021_Feb_06_1336	59.92367928153944	1	0.375
27	64	FALSE	VV	a	['A', 'B', 'P', 'E', 'surprise', 'C', 'Y', 'X', 'Z', 'J', 'W', 'M', 'N', 'K', 'S', 'V']	[697, 760, 1456, 904, 'stimAuditory/all_stimAuditory/222.wav', 829, 2670, 4000, 2911, 1029, 2448, 1224, 1335, 1122, 1731, 2245]	8	Present	NA	NA	PRESENT	0.06925487518310547	385.3257410526275	387.3259160518646	387.9092574913963	388.25925939872496	391.4349701404571	4.109054088592529	[385.3373920917511, 385.4541771411896, 386.4182960987091, 386.6057300567627, 387.35618114471436, 387.4730441570282, 387.5897309780121, 387.6896481513977, 387.80646419525146, 387.92336201667786, 388.0400969982147, 388.1569230556488, 388.27376317977905, 388.3904941082001, 388.50734400749207, 388.6240231990814, 388.7407991886139, 388.85785007476807, 388.9744231700897, 389.091206073761, 389.2079770565033, 389.43497014045715]	[385.3311011849588, 385.44776785161883, 386.43076785161884, 386.59746785161883, 387.34746785161883, 387.46413451827885, 387.5808011849389, 387.6974678515989, 387.8141345182589, 387.93080118491895, 388.047467851579, 388.164134518239, 388.280801184899, 388.39746785155904, 388.51413451821907, 388.6308011848791, 388.7474678515391, 388.86413451819914, 388.98080118485916, 389.0974678515192, 389.2141345181792, 389.44746785151256]	2021_Feb_06_1336	59.92367928153944	1	0.375
27	65	FALSE	NA	a	['J', 'R', 'T', 'H', 'V', 'K', 'G', 'X', 'B', 'M', 'Z', 'A', 'N', 'E', 'W', 'S']	[1029, 1587, 1888, 986, 2245, 1122, 944, 4000, 760, 1224, 2911, 697, 1335, 904, 2448, 1731]	8	Present	NA	NA	PRESENT	0.08993291854858398	391.4321630001068	393.4423611164093	394.025702555941	394.3757044632696	397.5513370037079	4.108975887298584	[391.4438121318817, 391.5605790615082, 392.5346610546112, 392.71194100379944, 393.46264600753784, 393.5794560909271, 393.69619607925415, 393.8128480911255, 393.92970609664917, 394.0466101169586, 394.1632800102234, 394.2801511287689, 394.3969180583954, 394.51368618011475, 394.6306481361389, 394.747367143631, 394.8642179965973, 394.9809651374817, 395.09773206710815, 395.2144751548767, 395.33137917518616, 395.5513370037079]	[391.44746785151256, 391.5641345181726, 392.5471345181726, 392.7138345181726, 393.4638345181726, 393.5805011848326, 393.6971678514926, 393.81383451815265, 393.93050118481267, 394.0471678514727, 394.1638345181327, 394.28050118479274, 394.39716785145276, 394.5138345181128, 394.6305011847728, 394.74716785143283, 394.86383451809286, 394.9805011847529, 395.0971678514129, 395.21383451807293, 395.33050118473295, 395.5638345180663]	2021_Feb_06_1336	59.92367928153944	1	0.375
27	66	FALSE	NV	a	['N', 'T', 'J', 'P', 'C', 'V', 'K', 'X', 'Y', 'M', 'A', 'R', 'Z', 'W', 'U', 'B']	[1335, 1888, 1029, 1456, 829, 2245, 1122, 4000, 2670, 1224, 697, 1587, 2911, 2448, 2059, 760]	8	Present	NA	NA	PRESENT	0.17425107955932617	397.55574011802673	399.5586590766907	400.1419993241295	400.4920014698767	403.6677031517029	4.109044075012207	[397.56739115715027, 397.6837592124939, 398.65102910995483, 398.8349289894104, 399.58572912216187, 399.7025191783905, 399.8194971084595, 399.93650913238525, 400.0529911518097, 400.16962599754333, 400.2865672111511, 400.4032859802246, 400.5200459957123, 400.63703417778015, 400.7538731098175, 400.87050008773804, 400.98724913597107, 401.1042380332947, 401.220908164978, 401.3376770019531, 401.4546320438385, 401.6677041053772]	[397.5638345180663, 397.6805011847263, 398.66350118472633, 398.8302011847263, 399.5802011847263, 399.69686785138634, 399.81353451804637, 399.9302011847064, 400.0468678513664, 400.16353451802644, 400.28020118468646, 400.3968678513465, 400.5135345180065, 400.63020118466653, 400.74686785132656, 400.8635345179866, 400.9802011846466, 401.0968678513066, 401.21353451796665, 401.3302011846267, 401.4468678512867, 401.68020118462005]	2021_Feb_06_1336	59.92367928153944	1	0.375
27	67	FALSE	NV	a	['H', 'B', 'V', 'U', 'P', 'K', 'Y', 'C', 'A', 'W', 'Z', 'X', 'E', 'M', 'S', 'R']	[986, 760, 2245, 2059, 1456, 1122, 2670, 829, 697, 2448, 2911, 4000, 904, 1224, 1731, 1587]	12	Present	NA	NA	PRESENT	0.19560790061950684	403.66168212890625	405.6751310825348	406.7251379966136	407.0751401423608	409.7840700149536	4.108938932418823	[403.6733310222626, 403.79021310806274, 404.76739621162415, 404.94157314300537, 405.6922290325165, 405.8091061115265, 405.92579913139343, 406.04267621040344, 406.15933108329773, 406.2762670516968, 406.3930320739746, 406.50996112823486, 406.6265461444855, 406.74349212646484, 406.8602662086487, 406.9771320819855, 407.09383511543274, 407.21070313453674, 407.3274781703949, 407.44441509246826, 407.5610730648041, 407.7840690612793]	[403.68020118462005, 403.79686785128007, 404.7798678512801, 404.94656785128007, 405.69656785128007, 405.8132345179401, 405.9299011846001, 406.04656785126014, 406.16323451792016, 406.2799011845802, 406.3965678512402, 406.51323451790023, 406.62990118456025, 406.7465678512203, 406.8632345178803, 406.9799011845403, 407.09656785120035, 407.21323451786037, 407.3299011845204, 407.4465678511804, 407.56323451784044, 407.7965678511738]	2021_Feb_06_1336	59.92367928153944	1	0.375
27	68	FALSE	VN	a	['R', 'H', 'Z', 'N', 'U', 'B', 'W', 'V', 'surprise', 'G', 'C', 'E', 'M', 'K', 'J', 'A']	[1587, 986, 2911, 1335, 2059, 760, 2448, 2245, 'stimAuditory/all_stimAuditory/217.wav', 944, 829, 904, 1224, 1122, 1029, 697]	12	Absent	NA	NA	ABSENT	0.03994297981262207	409.785099029541	411.7914180755615	412.8414261817332	413.19142808906184	415.9004371166229	4.109019041061401	[409.7967481613159, 409.9138550758362, 410.88375997543335, 411.0646901130676, 411.8153681755066, 411.93228006362915, 412.0490071773529, 412.16590309143066, 412.282683134079, 412.39927411079407, 412.5162420272827, 412.6329391002655, 412.7499032020569, 412.86666202545166, 412.98352003097534, 413.1002480983734, 413.21702909469604, 413.33368611335754, 413.45046615600586, 413.5672609806061, 413.6842842102051, 413.9004361629486]	[409.7965678511738, 409.9132345178338, 410.8962345178338, 411.0629345178338, 411.8129345178338, 411.92960118449383, 412.04626785115386, 412.1629345178139, 412.2796011844739, 412.3962678511339, 412.51293451779395, 412.629601184454, 412.746267851114, 412.862934517774, 412.97960118443405, 413.09626785109407, 413.2129345177541, 413.3296011844141, 413.44626785107414, 413.56293451773416, 413.6796011843942, 413.91293451772754]	2021_Feb_06_1336	59.92367928153944	1	0.375
27	69	FALSE	NV	a	['P', 'U', 'H', 'N', 'W', 'Y', 'K', 'V', 'X', 'B', 'A', 'M', 'J', 'E', 'R', 'S']	[1456, 2059, 986, 1335, 2448, 2670, 1122, 2245, 4000, 760, 697, 1224, 1029, 904, 1587, 1731]	9	Present	NA	NA	PRESENT	0.06140804290771484	415.908429145813	417.9080140590668	418.6080221652585	418.9580240725871	422.01680397987366	4.108789920806885	[415.9200801849365, 416.0365672111511, 417.0001301765442, 417.18774008750916, 417.93897700309753, 418.03860998153687, 418.15544509887695, 418.27214312553406, 418.3889911174774, 418.505784034729, 418.62254905700684, 418.7392930984497, 418.8561460971832, 418.97294211387634, 419.089791059494, 419.20677614212036, 419.3233292102814, 419.44025897979736, 419.55698108673096, 419.67373299598694, 419.7905550003052, 420.01680397987366]	[415.91293451772754, 416.02960118438756, 417.01260118438756, 417.17930118438755, 417.92930118438755, 418.0459678510476, 418.1626345177076, 418.2793011843676, 418.39596785102765, 418.5126345176877, 418.6293011843477, 418.7459678510077, 418.86263451766774, 418.97930118432777, 419.0959678509878, 419.2126345176478, 419.32930118430784, 419.44596785096786, 419.5626345176279, 419.6793011842879, 419.79596785094793, 420.0293011842813]	2021_Feb_06_1336	59.92367928153944	1	0.375
27	70	FALSE	NV	a	['S', 'C', 'G', 'J', 'M', 'R', 'A', 'V', 'W', 'X', 'Y', 'B', 'Z', 'H', 'T', 'E']	[1731, 829, 944, 1029, 1224, 1587, 697, 2245, 2448, 4000, 2670, 760, 2911, 986, 1888, 904]	10	Present	NA	NA	PRESENT	0.07390594482421875	422.0146322250366	424.02425813674927	424.84093386327527	425.1909357706039	428.13317012786865	4.108911991119385	[422.0262830257416, 422.1430971622467, 423.116494178772, 423.2942280769348, 424.04514598846436, 424.16215801239014, 424.27858710289, 424.39554619789124, 424.51223707199097, 424.62920212745667, 424.74595308303833, 424.86265420913696, 424.97956109046936, 425.0962882041931, 425.21312499046326, 425.32994413375854, 425.4467031955719, 425.5635631084442, 425.6803410053253, 425.79712319374084, 425.9142270088196, 426.13316917419434]	[422.0293011842813, 422.1459678509413, 423.1289678509413, 423.2956678509413, 424.0456678509413, 424.1623345176013, 424.27900118426135, 424.39566785092137, 424.5123345175814, 424.6290011842414, 424.74566785090144, 424.86233451756146, 424.9790011842215, 425.0956678508815, 425.21233451754154, 425.32900118420156, 425.4456678508616, 425.5623345175216, 425.67900118418163, 425.79566785084165, 425.9123345175017, 426.145667850835]	2021_Feb_06_1336	59.92367928153944	1	0.375
27	71	FALSE	NV	a	['M', 'Z', 'H', 'S', 'U', 'R', 'A', 'X', 'T', 'W', 'G', 'J', 'N', 'P', 'K', 'Y']	[1224, 2911, 986, 1731, 2059, 1587, 697, 4000, 1888, 2448, 944, 1029, 1335, 1456, 1122, 2670]	8	Present	NA	NA	PRESENT	0.1506028175354004	428.13803911209106	430.1405951976776	430.7239363987907	431.0739385445379	434.24953603744507	4.108940839767456	[428.1496891975403, 428.2662191390991, 429.2328610420227, 429.4176781177521, 430.1682929992676, 430.28531098365784, 430.4019169807434, 430.5187141895294, 430.6355731487274, 430.7521049976349, 430.8690791130066, 430.9858121871948, 431.10270619392395, 431.21951508522034, 431.3361802101135, 431.4529151916504, 431.5697431564331, 431.68650007247925, 431.80342507362366, 431.9201819896698, 432.0370910167694, 432.2495369911194]	[428.145667850835, 428.26233451749505, 429.24533451749505, 429.41203451749504, 430.16203451749504, 430.27870118415507, 430.3953678508151, 430.5120345174751, 430.62870118413514, 430.74536785079516, 430.8620345174552, 430.9787011841152, 431.09536785077523, 431.21203451743526, 431.3287011840953, 431.4453678507553, 431.5620345174153, 431.67870118407535, 431.7953678507354, 431.9120345173954, 432.0287011840554, 432.26203451738877]	2021_Feb_06_1336	59.92367928153944	1	0.375
27	72	FALSE	NA	a	['K', 'H', 'J', 'T', 'S', 'Z', 'G', 'U', 'N', 'R', 'B', 'E', 'C', 'X', 'M', 'Y']	[1122, 986, 1029, 1888, 1731, 2911, 944, 2059, 1335, 1587, 760, 904, 829, 4000, 1224, 2670]	14	Present	NA	NA	PRESENT	0.3943650722503662	434.24426221847534	436.2568941116333	437.54023555112497	437.8902374584536	440.3659031391144	4.109009027481079	[434.255912065506, 434.3728229999542, 435.3492271900177, 435.5239541530609, 436.2747371196747, 436.3917860984802, 436.50835514068604, 436.6252341270447, 436.74184918403625, 436.85883808135986, 436.97554898262024, 437.09216713905334, 437.20914912223816, 437.32598900794983, 437.4429290294647, 437.559602022171, 437.6763381958008, 437.79299211502075, 437.9099271297455, 438.02652311325073, 438.14353013038635, 438.3659031391144]	[434.26203451738877, 434.3787011840488, 435.3617011840488, 435.5284011840488, 436.2784011840488, 436.3950678507088, 436.51173451736884, 436.62840118402886, 436.7450678506889, 436.8617345173489, 436.97840118400893, 437.09506785066895, 437.211734517329, 437.328401183989, 437.445067850649, 437.56173451730905, 437.6784011839691, 437.7950678506291, 437.9117345172891, 438.02840118394914, 438.14506785060917, 438.3784011839425]	2021_Feb_06_1336	59.92367928153944	1	0.375
27	73	FALSE	NA	a	['H', 'S', 'T', 'K', 'G', 'Y', 'A', 'R', 'C', 'B', 'P', 'V', 'X', 'E', 'U', 'W']	[986, 1731, 1888, 1122, 944, 2670, 697, 1587, 829, 760, 1456, 2245, 4000, 904, 2059, 2448]	13	Present	NA	NA	PRESENT	0.4083590507507324	440.3677251338959	442.37333822250366	443.54001180324246	443.8900137105711	446.4822700023651	4.10893177986145	[440.3793740272522, 440.49592113494873, 441.46559405326843, 441.64714002609253, 442.39790415763855, 442.5148980617523, 442.6317341327667, 442.74846601486206, 442.86515498161316, 442.98186206817627, 443.0987310409546, 443.2153871059418, 443.3323631286621, 443.4491801261902, 443.5658800601959, 443.6825602054596, 443.79954719543457, 443.9164161682129, 444.03319907188416, 444.14983201026917, 444.266704082489, 444.482271194458]	[440.3784011839425, 440.49506785060254, 441.47806785060254, 441.64476785060253, 442.39476785060253, 442.51143451726256, 442.6281011839226, 442.7447678505826, 442.8614345172426, 442.97810118390265, 443.0947678505627, 443.2114345172227, 443.3281011838827, 443.44476785054275, 443.56143451720277, 443.6781011838628, 443.7947678505228, 443.91143451718284, 444.02810118384286, 444.1447678505029, 444.2614345171629, 444.49476785049626]	2021_Feb_06_1336	59.92367928153944	1	0.375
27	74	FALSE	NN	a	['G', 'P', 'J', 'C', 'Y', 'U', 'K', 'E', 'N', 'T', 'B', 'M', 'W', 'H', 'A', 'R']	[944, 1456, 1029, 829, 2670, 2059, 1122, 904, 1335, 1888, 760, 1224, 2448, 986, 697, 1587]	14	Absent	NA	NA	ABSENT	0.3095829486846924	446.490608215332	448.48970007896423	449.773040326363	450.1230424721102	452.5986361503601	4.108936071395874	[446.50225806236267, 446.6192669868469, 447.58196210861206, 447.7539141178131, 448.52115511894226, 448.6212191581726, 448.73785519599915, 448.85481214523315, 448.9716970920563, 449.0884029865265, 449.2051441669464, 449.3219850063324, 449.43855810165405, 449.55556321144104, 449.67229104042053, 449.7892231941223, 449.90597915649414, 450.02260518074036, 450.13950300216675, 450.2563621997833, 450.3732440471649, 450.59863805770874]	[446.49476785049626, 446.6114345171563, 447.5944345171563, 447.7611345171563, 448.5111345171563, 448.6278011838163, 448.7444678504763, 448.86113451713635, 448.9778011837964, 449.0944678504564, 449.2111345171164, 449.32780118377644, 449.44446785043647, 449.5611345170965, 449.6778011837565, 449.79446785041654, 449.91113451707656, 450.0278011837366, 450.1444678503966, 450.26113451705663, 450.37780118371666, 450.61113451705]	2021_Feb_06_1336	59.92367928153944	1	0.375
27	75	FALSE	VV	a	['R', 'M', 'N', 'W', 'G', 'surprise', 'E', 'J', 'X', 'U', 'H', 'B', 'S', 'T', 'Z', 'K']	[1587, 1224, 1335, 2448, 944, 'stimAuditory/all_stimAuditory/220.wav', 904, 1029, 4000, 2059, 986, 760, 1731, 1888, 2911, 1122]	9	Present	NA	NA	PRESENT	0.13043498992919922	452.5971519947052	454.6061441898346	455.30615205760773	455.656153011262	458.7150030136109	4.108858823776245	[452.6088011264801, 452.7256910800934, 453.69832706451416, 453.87674617767334, 454.6275281906128, 454.74443316459656, 454.8613221645355, 454.9778871536255, 455.09486508369446, 455.2122800350189, 455.3285369873047, 455.4449551105499, 455.5619351863861, 455.6786241531372, 455.7956621646881, 455.91280603408813, 456.02895307540894, 456.1457521915436, 456.2626881599426, 456.3795530796051, 456.4962170124054, 456.7150490283966]	[452.61113451705, 452.72780118371, 453.71080118371003, 453.87750118371, 454.62750118371, 454.74416785037005, 454.86083451703007, 454.9775011836901, 455.0941678503501, 455.21083451701014, 455.32750118367017, 455.4441678503302, 455.5608345169902, 455.67750118365024, 455.79416785031026, 455.9108345169703, 456.0275011836303, 456.14416785029033, 456.26083451695035, 456.3775011836104, 456.4941678502704, 456.72750118360375]	2021_Feb_06_1336	59.92367928153944	1	0.375
27	76	FALSE	NA	a	['K', 'P', 'B', 'E', 'C', 'N', 'G', 'Z', 'R', 'W', 'T', 'J', 'X', 'H', 'U', 'M']	[1122, 1456, 760, 904, 829, 1335, 944, 2911, 1587, 2448, 1888, 1029, 4000, 986, 2059, 1224]	13	Present	NA	NA	PRESENT	0.14367198944091797	458.7206611633301	460.7223751544952	461.88905088100125	462.2390527883299	464.83137011528015	4.108994960784912	[458.7323110103607, 458.8487181663513, 459.8146901130676, 459.9999921321869, 460.7508671283722, 460.8675801753998, 460.9843850135803, 461.10120820999146, 461.2179021835327, 461.334575176239, 461.45143818855286, 461.56826400756836, 461.6850562095642, 461.80187010765076, 461.9187390804291, 462.03549814224243, 462.15237307548523, 462.2691071033478, 462.38594603538513, 462.5025792121887, 462.6026771068573, 462.83137011528015]	[458.72750118360375, 458.8441678502638, 459.8271678502638, 459.99386785026377, 460.74386785026377, 460.8605345169238, 460.9772011835838, 461.09386785024384, 461.21053451690386, 461.3272011835639, 461.4438678502239, 461.56053451688393, 461.67720118354396, 461.793867850204, 461.910534516864, 462.027201183524, 462.14386785018405, 462.2605345168441, 462.3772011835041, 462.4938678501641, 462.61053451682415, 462.8438678501575]	2021_Feb_06_1336	59.92367928153944	1	0.375
27	77	FALSE	NN	a	['M', 'K', 'V', 'B', 'A', 'C', 'W', 'R', 'Z', 'E', 'G', 'Y', 'N', 'S', 'J', 'P']	[1224, 1122, 2245, 760, 697, 829, 2448, 1587, 2911, 904, 944, 2670, 1335, 1731, 1029, 1456]	12	Absent	NA	NA	ABSENT	0.07604098320007324	464.8270270824432	466.8387141227722	467.888721036851	468.2387231825982	470.94773602485657	4.109021902084351	[464.83867716789246, 464.95519518852234, 465.9310631752014, 466.10629200935364, 466.8572142124176, 466.97420501708984, 467.0908741950989, 467.2076950073242, 467.3245220184326, 467.4412190914154, 467.557941198349, 467.67486000061035, 467.79165410995483, 467.90823006629944, 468.02520418167114, 468.1418011188507, 468.2586271762848, 468.3754541873932, 468.4927132129669, 468.60911107063293, 468.7259590625763, 468.9477381706238]	[464.8438678501575, 464.9605345168175, 465.9435345168175, 466.1102345168175, 466.8602345168175, 466.97690118347754, 467.09356785013756, 467.2102345167976, 467.3269011834576, 467.44356785011763, 467.56023451677765, 467.6769011834377, 467.7935678500977, 467.9102345167577, 468.02690118341775, 468.1435678500778, 468.2602345167378, 468.3769011833978, 468.49356785005784, 468.61023451671787, 468.7269011833779, 468.96023451671124]	2021_Feb_06_1336	59.92367928153944	1	0.375
27	78	FALSE	NV	a	['V', 'C', 'E', 'Z', 'A', 'K', 'N', 'X', 'J', 'P', 'R', 'H', 'U', 'T', 'G', 'B']	[2245, 829, 904, 2911, 697, 1122, 1335, 4000, 1029, 1456, 1587, 986, 2059, 1888, 944, 760]	8	Present	NA	NA	PRESENT	0.2008650302886963	470.9501760005951	472.9551420211792	473.5384825070366	473.8884844143652	477.0641031265259	4.10896110534668	[470.96183609962463, 471.0784091949463, 472.0474259853363, 472.2296221256256, 472.9805221557617, 473.0973381996155, 473.2140791416168, 473.3308811187744, 473.4477241039276, 473.5643780231476, 473.68126916885376, 473.79785418510437, 473.91501212120056, 474.03144121170044, 474.14826917648315, 474.26519298553467, 474.38189220428467, 474.49888920783997, 474.615599155426, 474.7322151660919, 474.84903597831726, 475.0641040802002]	[470.96023451671124, 471.07690118337126, 472.05990118337127, 472.22660118337126, 472.97660118337126, 473.0932678500313, 473.2099345166913, 473.32660118335133, 473.44326785001135, 473.5599345166714, 473.6766011833314, 473.7932678499914, 473.90993451665145, 474.02660118331147, 474.1432678499715, 474.2599345166315, 474.37660118329154, 474.49326784995156, 474.6099345166116, 474.7266011832716, 474.84326784993164, 475.076601183265]	2021_Feb_06_1336	59.92367928153944	1	0.375
27	79	FALSE	VV	a	['Y', 'E', 'J', 'U', 'P', 'A', 'surprise', 'N', 'V', 'X', 'Z', 'K', 'T', 'R', 'C', 'H']	[2670, 904, 1029, 2059, 1456, 697, 'stimAuditory/all_stimAuditory/120.wav', 1335, 2245, 4000, 2911, 1122, 1888, 1587, 829, 986]	10	Present	NA	NA	PRESENT	0.20604395866394043	477.0733160972595	479.0713050365448	479.88797885572217	480.2379807630508	483.1804690361023	4.109163999557495	[477.08496499061584, 477.20175409317017, 478.1637930870056, 478.33600306510925, 479.103835105896, 479.20356798171997, 479.32067704200745, 479.4372282028198, 479.5539860725403, 479.6709439754486, 479.7876241207123, 479.9045271873474, 480.021112203598, 480.1380650997162, 480.2548520565033, 480.37160420417786, 480.4884750843048, 480.60511016845703, 480.7221620082855, 480.83893513679504, 480.95561814308167, 481.1804690361023]	[477.076601183265, 477.193267849925, 478.176267849925, 478.342967849925, 479.092967849925, 479.209634516585, 479.32630118324505, 479.4429678499051, 479.5596345165651, 479.6763011832251, 479.79296784988514, 479.90963451654517, 480.0263011832052, 480.1429678498652, 480.25963451652524, 480.37630118318526, 480.4929678498453, 480.6096345165053, 480.72630118316533, 480.84296784982536, 480.9596345164854, 481.19296784981873]	2021_Feb_06_1336	59.92367928153944	1	0.375
