participant	trial_num	practice	task	condition	RSVP	RAP	probePos	probe_presence	surprise_sound	surprise_img	probe_response	probe_resp_time	first_fixation_time	trial_start_time	surprise_start_time	probe_start_time	trial_end_time	trial_duration	actualEventTimes	plannedEventTimes	date	framerate	marker_vol	RAP_vol
27	1	FALSE	NV	v	['G', 'A', 'R', 'V', 'Y', 'Z', 'N', 'H', 'B', 'T', 'J', 'U', 'E', 'X', 'W', 'S']	[944, 697, 1587, 2245, 2670, 2911, 1335, 986, 760, 1888, 1029, 2059, 904, 4000, 2448, 1731]	14	Present	NA	NA	PRESENT	0.6627640724182129	3.0994415283203125e-6	2.002258062362671	3.2842299938201904	3.634010076522827	6.103870153427124	4.101612091064453	[0.007400035858154297, 0.12419509887695312, 1.108794927597046, 1.275454044342041, 2.026231050491333, 2.1429550647735596, 2.2596659660339355, 2.3764960765838623, 2.4933969974517822, 2.6099741458892822, 2.727023124694824, 2.8434791564941406, 2.9602880477905273, 3.077275037765503, 3.194054126739502, 3.3108770847320557, 3.4276649951934814, 3.5444209575653076, 3.661236047744751, 3.77789306640625, 3.8779079914093018, 4.103870153427124]	[2.1457672119140625e-06, 0.11666881243387857, 1.0996688124338785, 1.2663688124338786, 2.0163688124338783, 2.133035479100545, 2.2497021457672117, 2.3663688124338784, 2.483035479100545, 2.599702145767212, 2.7163688124338785, 2.833035479100545, 2.949702145767212, 3.0663688124338786, 3.1830354791005453, 3.299702145767212, 3.4163688124338787, 3.5330354791005454, 3.649702145767212, 3.7663688124338788, 3.8830354791005455, 4.116368812433879]	2021_Feb_06_1313	59.88167302464765	1	1
27	2	FALSE	NV	v	['Y', 'Z', 'M', 'U', 'S', 'V', 'N', 'J', 'W', 'C', 'G', 'B', 'T', 'X', 'H', 'P']	[2670, 2911, 1224, 2059, 1731, 2245, 1335, 1029, 2448, 829, 944, 760, 1888, 4000, 986, 1456]	14	Present	NA	NA	PRESENT	0.2754690647125244	6.106389045715332	8.115766048431396	9.399229049682615	9.749258995056152	12.220237016677856	4.10447096824646	[6.113785982131958, 6.230664014816284, 7.21506404876709, 7.38165807723999, 8.132633924484253, 8.249521017074585, 8.366119146347046, 8.482975959777832, 8.599878072738647, 8.71640396118164, 8.833322048187256, 8.950122117996216, 9.066928148269653, 9.183757066726685, 9.300545930862427, 9.417310953140259, 9.53408408164978, 9.65072512626648, 9.767791032791138, 9.88459300994873, 10.001305103302002, 10.220237970352173]	[6.116368812433879, 6.233035479100545, 7.216035479100545, 7.382735479100544, 8.132735479100544, 8.249402145767212, 8.366068812433879, 8.482735479100546, 8.599402145767213, 8.71606881243388, 8.832735479100547, 8.949402145767214, 9.066068812433882, 9.182735479100549, 9.299402145767216, 9.416068812433883, 9.53273547910055, 9.649402145767217, 9.766068812433884, 9.882735479100552, 9.999402145767219, 10.232735479100551]	2021_Feb_06_1313	59.88167302464765	1	1
27	3	FALSE	NV	v	['V', 'N', 'H', 'E', 'C', 'W', 'G', 'B', 'J', 'Y', 'U', 'T', 'K', 'X', 'Z', 'S']	[2245, 1335, 986, 904, 829, 2448, 944, 760, 1029, 2670, 2059, 1888, 1122, 4000, 2911, 1731]	14	Present	NA	NA	PRESENT	1.0079081058502195	12.229633092880247	14.23200511932373	15.515696048736572	15.865619897842407	18.33661413192749	4.10460901260376	[12.237030029296875, 12.353731155395508, 13.338120937347412, 13.505000114440918, 14.255708932876587, 14.372651100158691, 14.489252090454102, 14.606199026107788, 14.723053932189941, 14.839789152145386, 14.956679105758667, 15.07339096069336, 15.190144062042236, 15.306695938110352, 15.423754930496216, 15.540509939193726, 15.657259941101074, 15.774084091186523, 15.890854120254517, 16.007636070251465, 16.12437605857849, 16.336605072021484]	[12.232735479100551, 12.349402145767218, 13.332402145767219, 13.49910214576722, 14.24910214576722, 14.365768812433886, 14.482435479100554, 14.59910214576722, 14.715768812433888, 14.832435479100555, 14.949102145767222, 15.06576881243389, 15.182435479100556, 15.299102145767224, 15.41576881243389, 15.532435479100558, 15.649102145767225, 15.765768812433892, 15.88243547910056, 15.999102145767226, 16.115768812433892, 16.349102145767226]	2021_Feb_06_1313	59.88167302464765	1	1
27	4	FALSE	NV	v	['G', 'J', 'Y', 'C', 'Z', 'A', 'V', 'M', 'N', 'U', 'B', 'S', 'X', 'R', 'H', 'W']	[944, 1029, 2670, 829, 2911, 697, 2245, 1224, 1335, 2059, 760, 1731, 4000, 1587, 986, 2448]	13	Present	NA	NA	PRESENT	0.30115509033203125	18.335933923721313	20.34842109680176	21.515437126159668	21.86528491973877	24.4529709815979	4.104549884796143	[18.34333109855652, 18.46011710166931, 19.444613933563232, 19.611294984817505, 20.379271984100342, 20.478971004486084, 20.595672130584717, 20.712597131729126, 20.829488039016724, 20.946279048919678, 21.06293797492981, 21.17992401123047, 21.296597003936768, 21.413233995437622, 21.530061960220337, 21.64696502685547, 21.763670921325684, 21.880361080169678, 21.99729609489441, 22.113966941833496, 22.230821132659912, 22.4529709815979]	[18.349102145767226, 18.465768812433893, 19.448768812433894, 19.615468812433893, 20.365468812433893, 20.48213547910056, 20.598802145767227, 20.715468812433894, 20.83213547910056, 20.948802145767228, 21.065468812433895, 21.182135479100562, 21.29880214576723, 21.415468812433897, 21.532135479100564, 21.64880214576723, 21.765468812433898, 21.882135479100565, 21.998802145767232, 22.1154688124339, 22.232135479100567, 22.4654688124339]	2021_Feb_06_1313	59.88167302464765	1	1
27	5	FALSE	NV	v	['S', 'J', 'U', 'Y', 'T', 'B', 'M', 'A', 'H', 'Z', 'P', 'V', 'X', 'N', 'R', 'E']	[1731, 1029, 2059, 2670, 1888, 760, 1224, 697, 986, 2911, 1456, 2245, 4000, 1335, 1587, 904]	13	Present	NA	NA	PRESENT	0.2257840633392334	24.45924997329712	26.46484398841858	27.631712913513184	27.981786966323853	30.569337129592896	4.104493141174316	[24.466649055480957, 24.583357095718384, 25.56772208213806, 25.734442949295044, 26.485307931900024, 26.6020610332489, 26.71890902519226, 26.835838079452515, 26.95254111289978, 27.069265127182007, 27.186234951019287, 27.30280900001526, 27.41981792449951, 27.53655695915222, 27.653357982635498, 27.769958972930908, 27.88687300682068, 28.00356411933899, 28.120502948760986, 28.23736810684204, 28.354151964187622, 28.56933903694153]	[24.4654688124339, 24.582135479100568, 25.56513547910057, 25.731835479100567, 26.481835479100567, 26.598502145767235, 26.7151688124339, 26.83183547910057, 26.948502145767236, 27.065168812433903, 27.18183547910057, 27.298502145767237, 27.415168812433905, 27.53183547910057, 27.64850214576724, 27.765168812433906, 27.881835479100573, 27.99850214576724, 28.115168812433907, 28.231835479100575, 28.34850214576724, 28.581835479100576]	2021_Feb_06_1313	59.88167302464765	1	1
27	6	FALSE	AA	v	['P', 'J', 'W', 'R', 'B', 'surprise', 'M', 'G', 'X', 'C', 'T', 'V', 'S', 'Z', 'K', 'E']	[1456, 1029, 2448, 1587, 760, 'stimAuditory/all_stimAuditory/123.wav', 1224, 944, 4000, 829, 1888, 2245, 1731, 2911, 1122, 904]	9	Present	stimAuditory/all_stimAuditory/123.wav	stimVisual/all_stimVisual/113.jpg	ABSENT	1.9031918048858645	30.58278012275696	32.58122801780701	33.28141903877258	33.631797075271606	36.68570399284363	4.104475975036621	[30.590177059173584, 30.706696033477783, 31.674149990081787, 31.840893030166626, 32.608551025390625, 32.725391149520874, 32.84222912788391, 32.959043979644775, 33.07591009140015, 33.19264507293701, 33.30929112434387, 33.42610192298889, 33.543039083480835, 33.659773111343384, 33.77629804611206, 33.89331412315369, 34.01005506515503, 34.10994505882263, 34.226781129837036, 34.343559980392456, 34.46061110496521, 34.68570399284363]	[30.581835479100576, 30.698502145767243, 31.681502145767244, 31.848202145767242, 32.598202145767246, 32.71486881243391, 32.83153547910058, 32.94820214576725, 33.064868812433915, 33.18153547910058, 33.29820214576725, 33.414868812433916, 33.53153547910058, 33.64820214576725, 33.76486881243392, 33.881535479100584, 33.99820214576725, 34.11486881243392, 34.231535479100586, 34.34820214576725, 34.46486881243392, 34.698202145767254]	2021_Feb_06_1313	59.88167302464765	1	1
27	7	FALSE	NA	v	['N', 'P', 'R', 'C', 'S', 'A', 'G', 'U', 'X', 'V', 'W', 'Y', 'B', 'E', 'H', 'J']	[1335, 1456, 1587, 829, 1731, 697, 944, 2059, 4000, 2245, 2448, 2670, 760, 904, 986, 1029]	9	Present	NA	NA	PRESENT	0.21962785720825195	36.68887710571289	38.69755411148071	39.39765191078186	39.74758696556091	42.80207014083862	4.10451602935791	[36.69627404212952, 36.813090085983276, 37.79754304885864, 37.964224100112915, 38.714926958084106, 38.83187198638916, 38.9485969543457, 39.065492153167725, 39.18229913711548, 39.29909896850586, 39.415786027908325, 39.53271293640137, 39.649420976638794, 39.766303062438965, 39.88335394859314, 39.99960899353027, 40.11651110649109, 40.233392000198364, 40.35006809234619, 40.467092990875244, 40.583718061447144, 40.80207014083862]	[36.698202145767254, 36.81486881243392, 37.79786881243392, 37.96456881243392, 38.71456881243392, 38.831235479100584, 38.94790214576725, 39.06456881243392, 39.181235479100586, 39.29790214576725, 39.41456881243392, 39.53123547910059, 39.647902145767254, 39.76456881243392, 39.88123547910059, 39.997902145767256, 40.11456881243392, 40.23123547910059, 40.34790214576726, 40.464568812433924, 40.58123547910059, 40.814568812433926]	2021_Feb_06_1313	59.88167302464765	1	1
27	8	FALSE	NV	v	['N', 'G', 'E', 'V', 'H', 'M', 'C', 'P', 'Y', 'K', 'B', 'X', 'U', 'W', 'T', 'A']	[1335, 944, 904, 2245, 986, 1224, 829, 1456, 2670, 1122, 760, 4000, 2059, 2448, 1888, 697]	12	Present	NA	NA	PRESENT	0.18515610694885257	42.81195092201233	44.813745975494385	45.86412692070007	46.21401500701904	48.918437004089355	4.104691028594971	[42.81935000419617, 42.93630409240723, 43.92051410675049, 44.08739709854126, 44.83825612068176, 44.955095052719116, 45.071901082992554, 45.18871092796326, 45.30559206008911, 45.42210412025452, 45.53912806510925, 45.65560293197632, 45.77266311645508, 45.88939809799194, 46.00603795051575, 46.123077154159546, 46.23950409889221, 46.35656714439392, 46.47309112548828, 46.590147972106934, 46.690004110336304, 46.91843795776367]	[42.814568812433926, 42.93123547910059, 43.91423547910059, 44.08093547910059, 44.83093547910059, 44.947602145767256, 45.06426881243392, 45.18093547910059, 45.29760214576726, 45.414268812433924, 45.53093547910059, 45.64760214576726, 45.764268812433926, 45.88093547910059, 45.99760214576726, 46.11426881243393, 46.230935479100594, 46.34760214576726, 46.46426881243393, 46.580935479100596, 46.69760214576726, 46.9309354791006]	2021_Feb_06_1313	59.88167302464765	1	1
27	9	FALSE	NN	v	['Z', 'Y', 'A', 'S', 'T', 'P', 'H', 'N', 'B', 'R', 'W', 'U', 'M', 'C', 'G', 'V']	[2911, 2670, 697, 1731, 1888, 1456, 986, 1335, 760, 1587, 2448, 2059, 1224, 829, 944, 2245]	12	Absent	NA	NA	ABSENT	0.16556286811828613	48.91853189468384	50.930187940597534	51.980677127838135	52.330365896224976	55.03480505943298	4.104617118835449	[48.92592906951904, 49.04266715049744, 50.02755308151245, 50.19384694099426, 50.96147108078003, 51.061548948287964, 51.17821192741394, 51.29515314102173, 51.41183400154114, 51.52876615524292, 51.64543700218201, 51.7622230052948, 51.87910509109497, 51.995875120162964, 52.11261701583862, 52.22951102256775, 52.34617805480957, 52.46285915374756, 52.57982611656189, 52.69642210006714, 52.81335210800171, 53.03480505943298]	[48.9309354791006, 49.047602145767264, 50.03060214576726, 50.19730214576726, 50.94730214576726, 51.06396881243393, 51.180635479100594, 51.29730214576726, 51.41396881243393, 51.530635479100596, 51.64730214576726, 51.76396881243393, 51.8806354791006, 51.997302145767264, 52.11396881243393, 52.2306354791006, 52.347302145767266, 52.46396881243393, 52.5806354791006, 52.69730214576727, 52.813968812433934, 53.04730214576727]	2021_Feb_06_1313	59.88167302464765	1	1
27	10	FALSE	NV	v	['M', 'E', 'K', 'G', 'S', 'N', 'V', 'A', 'B', 'X', 'C', 'R', 'Z', 'W', 'U', 'P']	[1224, 904, 1122, 944, 1731, 1335, 2245, 697, 760, 4000, 829, 1587, 2911, 2448, 2059, 1456]	10	Present	NA	NA	PRESENT	0.2102057933807373	55.04157090187073	57.04657793045044	57.86348104476929	58.21337795257568	61.15117001533508	4.1045920848846436	[55.048969984054565, 55.16582012176514, 56.150315046310425, 56.317131996154785, 57.0677809715271, 57.18472504615784, 57.30153203010559, 57.41823101043701, 57.535069942474365, 57.65171003341675, 57.768718957901, 57.88547205924988, 58.002273082733154, 58.1190619468689, 58.235865116119385, 58.35258507728577, 58.46934509277344, 58.58604693412781, 58.70302700996399, 58.819637060165405, 58.936490058898926, 59.151171922683716]	[55.04730214576727, 55.163968812433936, 56.14696881243393, 56.31366881243393, 57.06366881243393, 57.1803354791006, 57.297002145767266, 57.41366881243393, 57.5303354791006, 57.64700214576727, 57.763668812433934, 57.8803354791006, 57.99700214576727, 58.113668812433936, 58.2303354791006, 58.34700214576727, 58.46366881243394, 58.580335479100604, 58.69700214576727, 58.81366881243394, 58.930335479100606, 59.16366881243394]	2021_Feb_06_1313	59.88167302464765	1	1
27	11	FALSE	VA	v	['S', 'U', 'K', 'C', 'surprise', 'E', 'Z', 'X', 'P', 'J', 'W', 'T', 'V', 'M', 'A', 'B']	[1731, 2059, 1122, 829, 'stimAuditory/all_stimAuditory/215.wav', 904, 2911, 4000, 1456, 1029, 2448, 1888, 2245, 1224, 697, 760]	8	Present	NA	stimVisual/all_stimVisual/211.jpg	PRESENT	0.25547003746032715	61.16510796546936	63.16309309005737	63.746737003326416	64.0966899394989	67.26753807067871	4.104444980621338	[61.17250609397888, 61.289068937301636, 62.25662612915039, 62.42368412017822, 63.19101405143738, 63.307767152786255, 63.42467904090881, 63.54148292541504, 63.65831112861633, 63.77509307861328, 63.89179801940918, 64.00863695144653, 64.10858607292175, 64.22541809082031, 64.34211802482605, 64.47603797912598, 64.57578897476196, 64.69249892234802, 64.8093330860138, 64.92607092857361, 65.04310607910156, 65.2675371170044]	[61.16366881243394, 61.28033547910061, 62.263335479100604, 62.4300354791006, 63.1800354791006, 63.29670214576727, 63.41336881243394, 63.530035479100604, 63.64670214576727, 63.76336881243394, 63.880035479100606, 63.99670214576727, 64.11336881243393, 64.2300354791006, 64.34670214576725, 64.46336881243391, 64.58003547910057, 64.69670214576723, 64.8133688124339, 64.93003547910055, 65.04670214576721, 65.28003547910055]	2021_Feb_06_1313	59.88167302464765	1	1
27	12	FALSE	NV	v	['H', 'E', 'R', 'U', 'J', 'M', 'N', 'Z', 'T', 'P', 'Y', 'W', 'X', 'C', 'G', 'K']	[986, 904, 1587, 2059, 1029, 1224, 1335, 2911, 1888, 1456, 2670, 2448, 4000, 829, 944, 1122]	13	Present	NA	NA	PRESENT	0.2200319766998291	67.27104902267456	69.27933812141418	70.44690608978271	70.79780507087708	73.38390398025513	4.104565858840942	[67.27844595909119, 67.39560604095459, 68.38000011444092, 68.5469319820404, 69.29742813110352, 69.41420412063599, 69.53109502792358, 69.64803099632263, 69.76480603218079, 69.88140797615051, 69.9982590675354, 70.1150541305542, 70.23205208778381, 70.34856700897217, 70.46559309959412, 70.58211493492126, 70.69915294647217, 70.81590414047241, 70.93282008171082, 71.04939794540405, 71.1661901473999, 71.38390398025513]	[67.28003547910055, 67.39670214576721, 68.37970214576721, 68.54640214576722, 69.29640214576722, 69.41306881243388, 69.52973547910054, 69.6464021457672, 69.76306881243386, 69.87973547910052, 69.99640214576718, 70.11306881243384, 70.2297354791005, 70.34640214576716, 70.46306881243382, 70.57973547910048, 70.69640214576714, 70.8130688124338, 70.92973547910046, 71.04640214576712, 71.16306881243378, 71.39640214576711]	2021_Feb_06_1313	59.88167302464765	1	1
27	13	FALSE	NN	v	['P', 'K', 'M', 'A', 'Z', 'W', 'B', 'C', 'R', 'J', 'E', 'H', 'U', 'Y', 'G', 'N']	[1456, 1122, 1224, 697, 2911, 2448, 760, 829, 1587, 1029, 904, 986, 2059, 2670, 944, 1335]	11	Absent	NA	NA	ABSENT	0.209306001663208	73.394611120224	75.39547204971313	76.32924199104309	76.67934703826904	79.50027108192444	4.104799032211304	[73.40200901031494, 73.5187120437622, 74.50322103500366, 74.67004895210266, 75.42060899734497, 75.53742599487305, 75.65428614616394, 75.77112102508545, 75.88789415359497, 76.00457215309143, 76.15461492538452, 76.23821306228638, 76.35513806343079, 76.4719569683075, 76.58869409561157, 76.70542097091675, 76.82213807106018, 76.93890595436096, 77.05591106414795, 77.17265105247498, 77.27254295349121, 77.50027203559875]	[73.39640214576711, 73.51306881243377, 74.49606881243378, 74.66276881243378, 75.41276881243378, 75.52943547910044, 75.6461021457671, 75.76276881243376, 75.87943547910042, 75.99610214576708, 76.11276881243374, 76.2294354791004, 76.34610214576706, 76.46276881243372, 76.57943547910038, 76.69610214576704, 76.8127688124337, 76.92943547910036, 77.04610214576702, 77.16276881243368, 77.27943547910034, 77.51276881243368]	2021_Feb_06_1313	59.88167302464765	1	1
27	14	FALSE	NV	v	['J', 'Y', 'N', 'M', 'U', 'W', 'V', 'P', 'B', 'X', 'A', 'C', 'S', 'T', 'K', 'H']	[1029, 2670, 1335, 1224, 2059, 2448, 2245, 1456, 760, 4000, 697, 829, 1731, 1888, 1122, 986]	10	Present	NA	NA	PRESENT	0.2057709693908691	79.50085306167603	81.51198506355286	82.32894396781921	82.67896604537964	85.61663794517517	4.1046528816223145	[79.50825095176697, 79.62526297569275, 80.60966897010803, 80.77629709243774, 81.5273950099945, 81.64381909370422, 81.76067304611206, 81.87758612632751, 81.99429106712341, 82.11099910736084, 82.22792100906372, 82.34470796585083, 82.4615409374237, 82.57824802398682, 82.69530010223389, 82.81184411048889, 82.92882013320923, 83.04540205001831, 83.16242408752441, 83.27905106544495, 83.39586806297302, 83.61663699150085]	[79.51276881243368, 79.62943547910034, 80.61243547910034, 80.77913547910035, 81.52913547910035, 81.64580214576701, 81.76246881243367, 81.87913547910033, 81.99580214576699, 82.11246881243365, 82.22913547910031, 82.34580214576697, 82.46246881243363, 82.57913547910029, 82.69580214576695, 82.81246881243361, 82.92913547910027, 83.04580214576693, 83.16246881243359, 83.27913547910025, 83.39580214576691, 83.62913547910024]	2021_Feb_06_1313	59.88167302464765	1	1
27	15	FALSE	VV	v	['S', 'A', 'N', 'C', 'V', 'H', 'J', 'U', 'surprise', 'M', 'B', 'X', 'T', 'Y', 'P', 'R']	[1731, 697, 1335, 829, 2245, 986, 1029, 2059, 'stimAuditory/all_stimAuditory/113.wav', 1224, 760, 4000, 1888, 2670, 1456, 1587]	12	Present	NA	stimVisual/all_stimVisual/100.jpg	PRESENT	0.21848487854003903	85.6241340637207	87.62865805625916	88.67876505851746	89.02879095077515	91.73300504684448	4.104346990585327	[85.63153195381165, 85.74840211868286, 86.73278594017029, 86.89958214759827, 87.65032601356506, 87.76716709136963, 87.88377094268799, 88.00086307525635, 88.11747908592224, 88.234384059906, 88.35122203826904, 88.46782994270325, 88.58453297615051, 88.7015130519867, 88.81822299957275, 88.93498492240906, 89.05193209648132, 89.16866707801819, 89.28550004959106, 89.4022171497345, 89.51900315284729, 89.73300409317017]	[85.62913547910024, 85.7458021457669, 86.7288021457669, 86.89550214576691, 87.64550214576691, 87.76216881243357, 87.87883547910023, 87.99550214576689, 88.11216881243355, 88.22883547910021, 88.34550214576687, 88.46216881243353, 88.57883547910019, 88.69550214576685, 88.81216881243351, 88.92883547910017, 89.04550214576683, 89.16216881243349, 89.27883547910015, 89.39550214576681, 89.51216881243347, 89.7455021457668]	2021_Feb_06_1313	59.88167302464765	1	1
27	16	FALSE	NA	v	['V', 'M', 'G', 'E', 'S', 'K', 'W', 'Z', 'P', 'C', 'T', 'X', 'B', 'R', 'U', 'Y']	[2245, 1224, 944, 904, 1731, 1122, 2448, 2911, 1456, 829, 1888, 4000, 760, 1587, 2059, 2670]	12	Present	NA	NA	PRESENT	0.19976305961608887	91.747528076171875	93.74490404129028	94.79513907432556	95.1450490951538	97.84937000274658	4.104465961456299	[91.75492596626282, 91.85460996627808, 92.83924508094788, 93.00615406036377, 93.77343201637268, 93.87341809272766, 93.9902491569519, 94.10700702667236, 94.22377610206604, 94.34064412117004, 94.45745301246643, 94.57423615455627, 94.69100308418274, 94.80782699584961, 94.92459797859192, 95.041424036026, 95.15821599960327, 95.27500605583191, 95.39192509651184, 95.508553981781, 95.62560701370239, 95.84937000274658]	[91.7455021457668, 91.86216881243347, 92.84516881243347, 93.01186881243348, 93.76186881243348, 93.87853547910014, 93.9952021457668, 94.11186881243346, 94.22853547910012, 94.34520214576678, 94.46186881243344, 94.5785354791001, 94.69520214576676, 94.81186881243342, 94.92853547910008, 95.04520214576674, 95.1618688124334, 95.27853547910006, 95.39520214576672, 95.51186881243338, 95.62853547910004, 95.86186881243337]	2021_Feb_06_1313	59.88167302464765	1	1
27	17	FALSE	NA	v	['R', 'J', 'M', 'S', 'K', 'N', 'B', 'C', 'U', 'G', 'T', 'X', 'Y', 'V', 'E', 'H']	[1587, 1029, 1224, 1731, 1122, 1335, 760, 829, 2059, 944, 1888, 4000, 2670, 2245, 904, 986]	12	Present	NA	NA	PRESENT	0.1881699562072754	97.85371589660645	99.86125802993774	100.9117739200592	101.26134204864502	103.9657380580902	4.104480028152466	[97.86111402511597, 97.9779760837555, 98.96227407455444, 99.12923407554626, 99.87992906570435, 99.99665808677673, 100.11359405517578, 100.2305200099945, 100.34717798233032, 100.46385192871094, 100.58077812194824, 100.69760012626648, 100.81433010101318, 100.93142604827881, 101.04797410964966, 101.1646420955658, 101.28143906593323, 101.39821004867554, 101.51520204544067, 101.63203406333923, 101.74878907203674, 101.96573805809021]	[97.86186881243337, 97.97853547910003, 98.96153547910004, 99.12823547910004, 99.87823547910004, 99.9949021457667, 100.11156881243336, 100.22823547910002, 100.34490214576668, 100.46156881243334, 100.5782354791, 100.69490214576666, 100.81156881243332, 100.92823547909998, 101.04490214576664, 101.1615688124333, 101.27823547909996, 101.39490214576662, 101.51156881243328, 101.62823547909994, 101.7449021457666, 101.97823547909994]	2021_Feb_06_1313	59.88167302464765	1	1
27	18	FALSE	NA	v	['Y', 'J', 'V', 'S', 'U', 'T', 'P', 'G', 'C', 'A', 'R', 'X', 'K', 'M', 'B', 'Z']	[2670, 1029, 2245, 1731, 2059, 1888, 1456, 944, 829, 697, 1587, 4000, 1122, 1224, 760, 2911]	12	Present	NA	NA	PRESENT	0.1457509994506836	103.9768340587616	105.9775218963623	107.02814292907716	107.3778429031372	110.08210492134094	4.104583024978638	[103.98423194885254, 104.10119915008545, 105.08560514450073, 105.25248908996582, 106.00317311286926, 106.12006711959839, 106.23686003684998, 106.35353398323059, 106.47033596038818, 106.58699297904968, 106.70397806167603, 106.82076692581177, 106.93731498718262, 107.05443000793457, 107.17118811607361, 107.28798198699951, 107.40485095977783, 107.52148604393005, 107.63831400871277, 107.75510597229004, 107.85523104667664, 108.08210396766663]	[103.97823547909994, 104.0949021457666, 105.0779021457666, 105.2446021457666, 105.9946021457666, 106.11126881243327, 106.22793547909993, 106.34460214576659, 106.46126881243325, 106.5779354790999, 106.69460214576657, 106.81126881243323, 106.92793547909989, 107.04460214576655, 107.1612688124332, 107.27793547909987, 107.39460214576653, 107.51126881243319, 107.62793547909985, 107.7446021457665, 107.86126881243317, 108.0946021457665]	2021_Feb_06_1313	59.88167302464765	1	1
27	19	FALSE	NA	v	['U', 'H', 'P', 'J', 'C', 'N', 'W', 'S', 'G', 'R', 'X', 'B', 'M', 'K', 'Z', 'T']	[2059, 986, 1456, 1029, 829, 1335, 2448, 1731, 944, 1587, 4000, 760, 1224, 1122, 2911, 1888]	11	Present	NA	NA	PRESENT	0.1180419921875	110.08342003822328	112.09383702278136	113.02747511863708	113.37903809547424	116.19847011566162	4.104633092880249	[110.09081792831421, 110.20767402648926, 111.19238495826721, 111.35889911651611, 112.10953903198242, 112.22623109817505, 112.34314203262329, 112.46008896827698, 112.57684302330017, 112.69369411468506, 112.81035804748535, 112.9272689819336, 113.044105052948, 113.16067600250244, 113.27764391899109, 113.39433693885803, 113.511225938797, 113.62785601615906, 113.74482607841492, 113.86143803596497, 113.97843503952026, 114.19847011566162]	[110.0946021457665, 110.21126881243316, 111.19426881243317, 111.36096881243317, 112.11096881243317, 112.22763547909983, 112.34430214576649, 112.46096881243315, 112.57763547909981, 112.69430214576647, 112.81096881243313, 112.92763547909979, 113.04430214576645, 113.16096881243311, 113.27763547909977, 113.39430214576643, 113.51096881243309, 113.62763547909975, 113.74430214576641, 113.86096881243307, 113.97763547909973, 114.21096881243307]	2021_Feb_06_1313	59.88167302464765	1	1
27	20	FALSE	NV	v	['P', 'B', 'U', 'Y', 'T', 'A', 'N', 'H', 'J', 'Z', 'X', 'R', 'W', 'S', 'V', 'C']	[1456, 760, 2059, 2670, 1888, 697, 1335, 986, 1029, 2911, 4000, 1587, 2448, 1731, 2245, 829]	11	Present	NA	NA	PRESENT	0.11503791809082033	116.20679092407228	118.21022605895996	119.14383792877196	119.49399495124815	122.31483697891235	4.104610919952393	[116.21418809890747, 116.33093595504761, 117.31512403488159, 117.4821629524231, 118.23292207717896, 118.34951901435852, 118.46627593040466, 118.583172082901, 118.69984793663025, 118.81674098968506, 118.93341708183289, 119.0503990650177, 119.16720509529114, 119.28395700454712, 119.40086698532104, 119.51747107505798, 119.63413405418396, 119.75114011764526, 119.86798596382141, 119.9847059249878, 120.10146307945251, 120.31483793258667]	[116.21096881243307, 116.32763547909973, 117.31063547909973, 117.47733547909974, 118.22733547909974, 118.3440021457664, 118.46066881243306, 118.57733547909972, 118.69400214576638, 118.81066881243304, 118.9273354790997, 119.04400214576636, 119.16066881243302, 119.27733547909968, 119.39400214576634, 119.510668812433, 119.62733547909966, 119.74400214576632, 119.86066881243298, 119.97733547909964, 120.0940021457663, 120.32733547909963]	2021_Feb_06_1313	59.88167302464765	1	1
27	21	FALSE	AV	v	['J', 'A', 'N', 'G', 'surprise', 'B', 'U', 'X', 'W', 'Y', 'R', 'Z', 'S', 'H', 'E', 'C']	[1029, 697, 1335, 944, 'stimAuditory/all_stimAuditory/102.wav', 760, 2059, 4000, 2448, 2670, 1587, 2911, 1731, 986, 904, 829]	8	Present	stimAuditory/all_stimAuditory/215.wav	stimVisual/all_stimVisual/214.jpg	PRESENT	0.20790696144104004	122.3132710456848	124.32682490348816	124.91026711463928	125.26017594337463	128.43120503425598	4.104380130767822	[122.32066798210144, 122.43722009658813, 123.4217119216919, 123.58847999572754, 124.35602712631226, 124.45603108406067, 124.57278108596802, 124.68950700759888, 124.82319712638855, 124.9231550693512, 125.04010796546936, 125.15670609474182, 125.273432970047, 125.390310049057, 125.507071018219, 125.62386107444763, 125.7408881187439, 125.8574869632721, 125.97443103790283, 126.09109210968018, 126.20809006690979, 126.43120408058167]	[122.32733547909963, 122.44400214576629, 123.4270021457663, 123.5937021457663, 124.3437021457663, 124.46036881243296, 124.57703547909962, 124.69370214576628, 124.81036881243294, 124.9270354790996, 125.04370214576626, 125.16036881243292, 125.27703547909958, 125.39370214576624, 125.5103688124329, 125.62703547909956, 125.74370214576622, 125.86036881243288, 125.97703547909954, 126.0937021457662, 126.21036881243286, 126.4437021457662]	2021_Feb_06_1313	59.88167302464765	1	1
27	22	FALSE	NV	v	['H', 'C', 'E', 'S', 'A', 'V', 'G', 'N', 'M', 'U', 'J', 'X', 'K', 'P', 'T', 'B']	[986, 829, 904, 1731, 697, 2245, 944, 1335, 1224, 2059, 1029, 4000, 1122, 1456, 1888, 760]	12	Present	NA	NA	PRESENT	0.212540864944458	128.43633890151978	130.44323706626892	131.49366998672485	131.84305095672607	134.5475709438324	4.104333877563477	[128.44373607635498, 128.56057405471802, 129.54497814178467, 129.7117350101471, 130.4624969959259, 130.5791449546814, 130.69609999656677, 130.81266593933105, 130.92964696884155, 131.04648399353027, 131.163339138031, 131.27997303009033, 131.39693593978882, 131.51374006271362, 131.6303060054779, 131.74712705612183, 131.86409091949463, 131.9810450077057, 132.0976860523224, 132.21450996398926, 132.33113408088684, 132.5475709438324]	[128.4437021457662, 128.56036881243287, 129.54336881243287, 129.71006881243287, 130.46006881243287, 130.57673547909954, 130.6934021457662, 130.8100688124329, 130.92673547909956, 131.04340214576624, 131.1600688124329, 131.27673547909959, 131.39340214576626, 131.51006881243293, 131.6267354790996, 131.74340214576628, 131.86006881243296, 131.97673547909963, 132.0934021457663, 132.21006881243298, 132.32673547909965, 132.56006881243297]	2021_Feb_06_1313	59.88167302464765	1	1
27	23	FALSE	NN	v	['S', 'P', 'B', 'A', 'V', 'Y', 'G', 'K', 'N', 'M', 'J', 'W', 'U', 'T', 'C', 'E']	[1731, 1456, 760, 697, 2245, 2670, 944, 1122, 1335, 1224, 1029, 2448, 2059, 1888, 829, 904]	10	Absent	NA	NA	ABSENT	0.21779704093933103	134.55959510803223	136.55927205085754	137.37638401985168	137.7262749671936	140.6639370918274	4.104665040969849	[134.56699204444885, 134.68354201316833, 135.66797494888306, 135.83472800254822, 136.58559894561768, 136.70254707336426, 136.81936502456665, 136.93607807159424, 137.0526261329651, 137.16965103149414, 137.28621196746826, 137.4031901359558, 137.51994609832764, 137.63686800003052, 137.75388407707214, 137.870285987854, 137.9871289730072, 138.10406398773193, 138.22077798843384, 138.33737111091614, 138.4377191066742, 138.6639380455017]	[134.56006881243297, 134.67673547909965, 135.65973547909965, 135.82643547909964, 136.57643547909964, 136.69310214576632, 136.809768812433, 136.92643547909967, 137.04310214576634, 137.15976881243301, 137.2764354790997, 137.39310214576636, 137.50976881243304, 137.6264354790997, 137.7431021457664, 137.85976881243306, 137.97643547909973, 138.0931021457664, 138.20976881243308, 138.32643547909976, 138.44310214576643, 138.67643547909975]	2021_Feb_06_1313	59.88167302464765	1	1
27	24	FALSE	NA	v	['C', 'S', 'A', 'W', 'R', 'U', 'G', 'K', 'E', 'P', 'V', 'H', 'T', 'X', 'B', 'M']	[829, 1731, 697, 2448, 1587, 2059, 944, 1122, 904, 1456, 2245, 986, 1888, 4000, 760, 1224]	14	Present	NA	NA	PRESENT	0.2065420150756836	140.66588306427002	142.67584991455078	143.9594841003418	144.3092439174652	146.78030514717102	4.104455232620239	[140.67328095436096, 140.7900640964508, 141.77451705932617, 141.94166898727417, 142.69201803207397, 142.80903506278992, 142.92579793930054, 143.04249000549316, 143.15946102142334, 143.2760100364685, 143.39294004440308, 143.5095989704132, 143.6266131401062, 143.74337792396545, 143.86013102531433, 143.97669005393982, 144.09348511695862, 144.21042704582214, 144.32726001739502, 144.44403409957886, 144.560702085495, 144.78030395507812]	[140.67643547909975, 140.79310214576643, 141.77610214576643, 141.94280214576642, 142.69280214576642, 142.8094688124331, 142.92613547909977, 143.04280214576644, 143.15946881243312, 143.2761354790998, 143.39280214576647, 143.50946881243314, 143.62613547909982, 143.7428021457665, 143.85946881243316, 143.97613547909984, 144.0928021457665, 144.2094688124332, 144.32613547909986, 144.44280214576654, 144.5594688124332, 144.79280214576653]	2021_Feb_06_1313	59.88167302464765	1	1
27	25	FALSE	NN	v	['K', 'T', 'P', 'J', 'N', 'W', 'M', 'Z', 'A', 'C', 'S', 'Y', 'R', 'U', 'G', 'H']	[1122, 1888, 1456, 1029, 1335, 2448, 1224, 2911, 697, 829, 1731, 2670, 1587, 2059, 944, 986]	11	Absent	NA	NA	ABSENT	0.16311311721801758	146.78916597366333	148.79202604293823	149.7255721092224	150.0758810043335	152.89667105674744	4.104645013809204	[146.79656410217285, 146.91335105895996, 147.89755296707153, 148.06449699401855, 148.81515312194824, 148.93210101127625, 149.04878902435303, 149.16582107543945, 149.2825710773468, 149.39922308921814, 149.51604914665222, 149.6328639984131, 149.749498128891, 149.8664629459381, 149.98326301574707, 150.1001420021057, 150.21685600280762, 150.3335371017456, 150.4510190486908, 150.56731605529785, 150.68386793136597, 150.89667105674744]	[146.79280214576653, 146.9094688124332, 147.8924688124332, 148.0591688124332, 148.8091688124332, 148.92583547909987, 149.04250214576655, 149.15916881243322, 149.2758354790999, 149.39250214576657, 149.50916881243324, 149.62583547909992, 149.7425021457666, 149.85916881243327, 149.97583547909994, 150.09250214576662, 150.2091688124333, 150.32583547909996, 150.44250214576664, 150.5591688124333, 150.6758354791, 150.9091688124333]	2021_Feb_06_1313	59.88167302464765	1	1
27	26	FALSE	AA	v	['T', 'V', 'U', 'P', 'M', 'Z', 'H', 'K', 'surprise', 'W', 'G', 'X', 'A', 'R', 'J', 'E']	[1888, 2245, 2059, 1456, 1224, 2911, 986, 1122, 'stimAuditory/all_stimAuditory/103.wav', 2448, 944, 4000, 697, 1587, 1029, 904]	12	Present	stimAuditory/all_stimAuditory/113.wav	stimVisual/all_stimVisual/101.jpg	PRESENT	0.1841599941253662	152.8957769870758	154.90845799446106	155.96041703224182	156.3086941242218	159.01303791999817	4.104579925537109	[152.90317511558533, 153.0198860168457, 154.00426197052002, 154.17102193832397, 154.93862915039062, 155.03873205184937, 155.15540504455566, 155.27224898338318, 155.38906502723694, 155.50560212135315, 155.62258791923523, 155.73917508125305, 155.8726830482483, 155.97276306152344, 156.0897650718689, 156.20641207695007, 156.32335495948792, 156.44002199172974, 156.55694699287415, 156.67374801635742, 156.79054808616638, 157.01303696632385]	[152.9091688124333, 153.02583547909998, 154.0088354791, 154.17553547909998, 154.92553547909998, 155.04220214576665, 155.15886881243333, 155.2755354791, 155.39220214576667, 155.50886881243335, 155.62553547910002, 155.7422021457667, 155.85886881243337, 155.97553547910005, 156.09220214576672, 156.2088688124334, 156.32553547910007, 156.44220214576674, 156.55886881243342, 156.6755354791001, 156.79220214576677, 157.02553547910009]	2021_Feb_06_1313	59.88167302464765	1	1
27	27	FALSE	NA	v	['C', 'A', 'H', 'G', 'B', 'W', 'V', 'K', 'X', 'R', 'N', 'M', 'Y', 'T', 'P', 'Z']	[829, 697, 986, 944, 760, 2448, 2245, 1122, 4000, 1587, 1335, 1224, 2670, 1888, 1456, 2911]	9	Present	NA	NA	PRESENT	0.17285799980163574	159.01886010169983	161.02476596832275	161.72500109672546	162.0750379562378	165.12940406799316	4.10463809967041	[159.02625703811646, 159.14313292503357, 160.1271481513977, 160.29427409172058, 161.04480504989624, 161.16171598434448, 161.2785770893097, 161.39547896385193, 161.51228594779968, 161.62901306152344, 161.74585103988647, 161.86253595352173, 161.97904992103577, 162.09616208076477, 162.2129590511322, 162.32968497276306, 162.44651794433594, 162.56324791908264, 162.67990612983704, 162.79688596725464, 162.9138400554657, 163.12940406799316]	[159.02553547910009, 159.14220214576676, 160.12520214576676, 160.29190214576676, 161.04190214576676, 161.15856881243343, 161.2752354791001, 161.39190214576678, 161.50856881243345, 161.62523547910013, 161.7419021457668, 161.85856881243348, 161.97523547910015, 162.09190214576682, 162.2085688124335, 162.32523547910017, 162.44190214576685, 162.55856881243352, 162.6752354791002, 162.79190214576687, 162.90856881243354, 163.14190214576686]	2021_Feb_06_1313	59.88167302464765	1	1
27	28	FALSE	NA	v	['T', 'U', 'B', 'Z', 'W', 'R', 'N', 'X', 'E', 'H', 'P', 'S', 'Y', 'A', 'V', 'M']	[1888, 2059, 760, 2911, 2448, 1587, 1335, 4000, 904, 986, 1456, 1731, 2670, 697, 2245, 1224]	8	Present	NA	NA	PRESENT	0.10611891746520996	165.1418800354004	167.14144897460938	167.72472500801086	168.07482504844666	171.2457709312439	4.1043219566345215	[165.14927911758423, 165.26618909835815, 166.25049114227295, 166.40045309066772, 167.168142080307, 167.28508496284485, 167.40177512168884, 167.51867699623108, 167.63521313667297, 167.75222396850586, 167.86888313293457, 167.98572897911072, 168.1023621559143, 168.2192039489746, 168.3361210823059, 168.45283603668213, 168.56958413124084, 168.68651509284973, 168.7863450050354, 168.90314412117004, 169.01997709274292, 169.24576997756958]	[165.14190214576686, 165.25856881243354, 166.24156881243354, 166.40826881243353, 167.15826881243353, 167.2749354791002, 167.39160214576688, 167.50826881243356, 167.62493547910023, 167.7416021457669, 167.85826881243358, 167.97493547910025, 168.09160214576693, 168.2082688124336, 168.32493547910028, 168.44160214576695, 168.55826881243362, 168.6749354791003, 168.79160214576697, 168.90826881243365, 169.02493547910032, 169.25826881243364]	2021_Feb_06_1313	59.88167302464765	1	1
27	29	FALSE	NA	v	['R', 'U', 'E', 'H', 'A', 'Z', 'M', 'V', 'C', 'P', 'W', 'X', 'Y', 'N', 'J', 'B']	[1587, 2059, 904, 986, 697, 2911, 1224, 2245, 829, 1456, 2448, 4000, 2670, 1335, 1029, 760]	12	Present	NA	NA	PRESENT	0.15071702003479004	171.24838209152222	173.2574610710144	174.30766606330872	174.65773510932922	177.3621380329132	4.104676961898804	[171.25577998161316, 171.3727810382843, 172.3568971157074, 172.5238311290741, 173.27504110336304, 173.3914761543274, 173.50831007957458, 173.62497806549072, 173.74187994003296, 173.85855412483215, 173.9753930568695, 174.09226512908936, 174.20900511741638, 174.32560396194458, 174.44256711006165, 174.55934405326843, 174.67618894577026, 174.79299807548523, 174.9097969532013, 175.02660202980042, 175.14337396621704, 175.3621380329132]	[171.25826881243364, 171.37493547910032, 172.35793547910032, 172.5246354791003, 173.2746354791003, 173.39130214576699, 173.50796881243366, 173.62463547910033, 173.741302145767, 173.85796881243368, 173.97463547910036, 174.09130214576703, 174.2079688124337, 174.32463547910038, 174.44130214576705, 174.55796881243373, 174.6746354791004, 174.79130214576708, 174.90796881243375, 175.02463547910043, 175.1413021457671, 175.37463547910042]	2021_Feb_06_1313	59.88167302464765	1	1
27	30	FALSE	AA	v	['K', 'U', 'Y', 'P', 'M', 'J', 'Z', 'surprise', 'C', 'N', 'X', 'S', 'B', 'R', 'E', 'V']	[1122, 2059, 2670, 1456, 1224, 1029, 2911, 'stimAuditory/all_stimAuditory/208.wav', 829, 1335, 4000, 1731, 760, 1587, 904, 2245]	11	Present	stimAuditory/all_stimAuditory/102.wav	stimVisual/all_stimVisual/122.jpg	PRESENT	0.04408884048461914	177.37150812149048	179.3739879131317	180.30775094032288	180.65743112564087	183.4785039424896	4.10451602935791	[177.37890601158142, 177.4959499835968, 178.4799370765686, 178.64682006835938, 179.39775896072388, 179.51461601257324, 179.63138914108276, 179.74810910224915, 179.86498308181763, 179.98185014724731, 180.09846591949463, 180.21525502204895, 180.33225893974304, 180.449471950531, 180.56582593917847, 180.6825830936432, 180.79915714263916, 180.91623997688293, 181.03277707099915, 181.1498601436615, 181.24958992004395, 181.47850513458252]	[177.37463547910042, 177.4913021457671, 178.4743021457671, 178.6410021457671, 179.3910021457671, 179.50766881243376, 179.62433547910044, 179.7410021457671, 179.8576688124338, 179.97433547910046, 180.09100214576713, 180.2076688124338, 180.32433547910048, 180.44100214576716, 180.55766881243383, 180.6743354791005, 180.79100214576718, 180.90766881243385, 181.02433547910053, 181.1410021457672, 181.25766881243388, 181.4910021457672]	2021_Feb_06_1313	59.88167302464765	1	1
27	31	FALSE	NA	v	['P', 'M', 'Z', 'B', 'H', 'T', 'U', 'A', 'C', 'R', 'V', 'W', 'Y', 'X', 'K', 'N']	[1456, 1224, 2911, 760, 986, 1888, 2059, 697, 829, 1587, 2245, 2448, 2670, 4000, 1122, 1335]	14	Present	NA	NA	PRESENT	0.20039701461791992	183.478374004364	185.49020195007324	186.77433800697327	187.12388110160828	189.59487104415896	4.104669094085693	[183.48577213287354, 183.60231399536133, 184.58643007278442, 184.75351810455322, 185.52102398872375, 185.62093901634216, 185.73788809776306, 185.85472202301025, 185.9715940952301, 186.08815598487854, 186.2050859928131, 186.32185101509094, 186.438658952713, 186.55546307563782, 186.67217707633972, 186.78891396522522, 186.90581798553467, 187.02255702018738, 187.13943600654602, 187.25623106956482, 187.37276196479797, 187.59487009048462]	[183.4910021457672, 183.60766881243387, 184.59066881243388, 184.75736881243387, 185.50736881243387, 185.62403547910054, 185.74070214576722, 185.8573688124339, 185.97403547910056, 186.09070214576724, 186.2073688124339, 186.3240354791006, 186.44070214576726, 186.55736881243394, 186.6740354791006, 186.79070214576728, 186.90736881243396, 187.02403547910063, 187.1407021457673, 187.25736881243398, 187.37403547910066, 187.60736881243398]	2021_Feb_06_1313	59.88167302464765	1	1
27	32	FALSE	NA	v	['Z', 'K', 'G', 'B', 'W', 'U', 'H', 'C', 'N', 'S', 'V', 'Y', 'X', 'A', 'P', 'T']	[2911, 1122, 944, 760, 2448, 2059, 986, 829, 1335, 1731, 2245, 2670, 4000, 697, 1456, 1888]	13	Present	NA	NA	PRESENT	0.16513800621032715	189.6014130115509	191.6067090034485	192.77345299720764	193.12408590316772	195.71123695373535	4.104527950286865	[189.60881114006042, 189.72555112838745, 190.70996499061584, 190.87676095962524, 191.62750911712646, 191.74425506591797, 191.86113500595093, 191.9777810573578, 192.09476900100708, 192.21150708198547, 192.32835006713867, 192.44504809379578, 192.56176710128784, 192.67855215072632, 192.79517912864685, 192.91243410110474, 193.02881813049316, 193.14568305015564, 193.26253199577332, 193.3792369365692, 193.49611711502075, 193.71123695373535]	[189.60736881243398, 189.72403547910065, 190.70703547910065, 190.87373547910065, 191.62373547910065, 191.74040214576732, 191.857068812434, 191.97373547910067, 192.09040214576734, 192.20706881243402, 192.3237354791007, 192.44040214576737, 192.55706881243404, 192.6737354791007, 192.7904021457674, 192.90706881243406, 193.02373547910074, 193.1404021457674, 193.25706881243408, 193.37373547910076, 193.49040214576743, 193.72373547910075]	2021_Feb_06_1313	59.88167302464765	1	1
27	33	FALSE	NV	v	['S', 'M', 'N', 'Y', 'E', 'H', 'R', 'Z', 'A', 'W', 'K', 'P', 'U', 'X', 'J', 'G']	[1731, 1224, 1335, 2670, 904, 986, 1587, 2911, 697, 2448, 1122, 1456, 2059, 4000, 1029, 944]	14	Present	NA	NA	PRESENT	0.05040693283081055	195.7243731021881	197.72301506996155	199.00684905052185	199.3564429283142	201.82760405540463	4.104588985443115	[195.73177003860474, 195.8486659526825, 196.81620502471924, 196.98294711112976, 197.7505600452423, 197.8674521446228, 197.9840431213379, 198.1012041568756, 198.21785593032837, 198.3346951007843, 198.45145893096924, 198.56829810142517, 198.6681649684906, 198.785001039505, 198.90175795555115, 199.03543305397034, 199.13522505760193, 199.252051115036, 199.36885905265808, 199.4856300354004, 199.60261011123657, 199.82760310173035]	[195.72373547910075, 195.84040214576743, 196.82340214576743, 196.99010214576742, 197.74010214576742, 197.8567688124341, 197.97343547910077, 198.09010214576745, 198.20676881243412, 198.3234354791008, 198.44010214576747, 198.55676881243414, 198.67343547910082, 198.7901021457675, 198.90676881243417, 199.02343547910084, 199.14010214576751, 199.2567688124342, 199.37343547910086, 199.49010214576754, 199.6067688124342, 199.84010214576753]	2021_Feb_06_1313	59.88167302464765	1	1
27	34	FALSE	NV	v	['T', 'C', 'H', 'U', 'K', 'Y', 'A', 'J', 'N', 'B', 'M', 'X', 'P', 'W', 'G', 'E']	[1888, 829, 986, 2059, 1122, 2670, 697, 1029, 1335, 760, 1224, 4000, 1456, 2448, 944, 904]	12	Present	NA	NA	PRESENT	0.09485697746276855	201.83091402053833	203.8395290374756	204.8897190093994	205.2396318912506	207.94397115707395	4.104442119598389	[201.83831095695496, 201.95508193969727, 202.9398820400238, 203.1064910888672, 203.8571059703827, 203.97380805015564, 204.09074211120605, 204.20755910873413, 204.32435393333435, 204.44105696678162, 204.55796003341675, 204.67465996742249, 204.7915859222412, 204.90831995010376, 205.02499294281006, 205.14197707176208, 205.2586579322815, 205.3755340576172, 205.49212408065796, 205.60903000831604, 205.72586011886597, 205.94396996498108]	[201.84010214576753, 201.9567688124342, 202.9397688124342, 203.1064688124342, 203.8564688124342, 203.97313547910088, 204.08980214576755, 204.20646881243422, 204.3231354791009, 204.43980214576757, 204.55646881243425, 204.67313547910092, 204.7898021457676, 204.90646881243427, 205.02313547910094, 205.13980214576762, 205.2564688124343, 205.37313547910097, 205.48980214576764, 205.60646881243431, 205.723135479101, 205.9564688124343]	2021_Feb_06_1313	59.88167302464765	1	1
27	35	FALSE	NV	v	['E', 'K', 'Z', 'G', 'Y', 'P', 'U', 'M', 'S', 'C', 'X', 'B', 'A', 'N', 'R', 'T']	[904, 1122, 2911, 944, 2670, 1456, 2059, 1224, 1731, 829, 4000, 760, 697, 1335, 1587, 1888]	11	Present	NA	NA	PRESENT	0.07636213302612305	207.954078912735	209.95583701133728	210.88946509361267	211.23942804336548	214.0603380203247	4.104501008987427	[207.9614770412445, 208.0783669948578, 209.062814950943, 209.22970700263977, 209.98032307624817, 210.09725403785706, 210.21381211280823, 210.33075404167175, 210.44761204719543, 210.56435203552246, 210.6809470653534, 210.79791808128357, 210.91459393501282, 211.0314450263977, 211.14831495285034, 211.26512694358826, 211.3817059993744, 211.49856114387512, 211.61537098884583, 211.73222303390503, 211.832181930542, 212.0603370666504]	[207.9564688124343, 208.07313547910098, 209.056135479101, 209.22283547910098, 209.97283547910098, 210.08950214576765, 210.20616881243433, 210.322835479101, 210.43950214576768, 210.55616881243435, 210.67283547910102, 210.7895021457677, 210.90616881243437, 211.02283547910105, 211.13950214576772, 211.2561688124344, 211.37283547910107, 211.48950214576774, 211.60616881243442, 211.7228354791011, 211.83950214576777, 212.0728354791011]	2021_Feb_06_1313	59.88167302464765	1	1
27	36	FALSE	NA	v	['C', 'B', 'E', 'J', 'P', 'T', 'R', 'X', 'Y', 'V', 'K', 'W', 'U', 'N', 'H', 'A']	[829, 760, 904, 1029, 1456, 1888, 1587, 4000, 2670, 2245, 1122, 2448, 2059, 1335, 986, 697]	8	Present	NA	NA	PRESENT	0.11267805099487305	214.06097292900083	216.07215404510495	216.65587306022644	217.00597405433655	220.176705121994	4.104551076889038	[214.06837105751038, 214.1848340034485, 215.16906213760376, 215.33614301681519, 216.10350012779236, 216.20340514183044, 216.32041597366333, 216.43723511695862, 216.5540599822998, 216.6706199645996, 216.78745007514954, 216.90419602394104, 217.02116799354553, 217.1379189491272, 217.2551350593567, 217.37158393859863, 217.4883530139923, 217.6051049232483, 217.72170495986938, 217.83869194984436, 217.95545291900635, 218.17670392990112]	[214.0728354791011, 214.18950214576776, 215.17250214576777, 215.33920214576776, 216.08920214576776, 216.20586881243443, 216.3225354791011, 216.43920214576778, 216.55586881243445, 216.67253547910113, 216.7892021457678, 216.90586881243448, 217.02253547910115, 217.13920214576783, 217.2558688124345, 217.37253547910117, 217.48920214576785, 217.60586881243452, 217.7225354791012, 217.83920214576787, 217.95586881243455, 218.18920214576787]	2021_Feb_06_1313	59.88167302464765	1	1
27	37	FALSE	NV	v	['Y', 'M', 'R', 'V', 'H', 'W', 'T', 'J', 'C', 'E', 'X', 'B', 'A', 'K', 'S', 'U']	[2670, 1224, 1587, 2245, 986, 2448, 1888, 1029, 829, 904, 4000, 760, 697, 1122, 1731, 2059]	11	Present	NA	NA	PRESENT	0.06929302215576172	220.18403005599976	222.18846893310547	223.12212800979617	223.47243094444275	226.29307007789612	4.104601144790649	[220.19142699241638, 220.30786895751953, 221.29236006736755, 221.45926213264465, 222.20991396903992, 222.32679510116577, 222.44339513778687, 222.56032013893127, 222.67721915245056, 222.79396605491638, 222.910551071167, 223.02757215499878, 223.14425706863403, 223.26097202301025, 223.37776398658752, 223.49476194381714, 223.61143803596497, 223.7283899784088, 223.8450219631195, 223.96209692955017, 224.07861495018005, 224.29307007789612]	[220.18920214576787, 220.30586881243454, 221.28886881243454, 221.45556881243454, 222.20556881243454, 222.3222354791012, 222.43890214576788, 222.55556881243456, 222.67223547910123, 222.7889021457679, 222.90556881243458, 223.02223547910125, 223.13890214576793, 223.2555688124346, 223.37223547910128, 223.48890214576795, 223.60556881243463, 223.7222354791013, 223.83890214576797, 223.95556881243465, 224.07223547910132, 224.30556881243464]	2021_Feb_06_1313	59.88167302464765	1	1
27	38	FALSE	VA	v	['W', 'Z', 'S', 'J', 'G', 'H', 'R', 'P', 'A', 'K', 'surprise', 'U', 'T', 'X', 'M', 'N']	[2448, 2911, 1731, 1029, 944, 986, 1587, 1456, 697, 1122, 'stimAuditory/all_stimAuditory/111.wav', 2059, 1888, 4000, 1224, 1335]	14	Present	NA	stimVisual/all_stimVisual/107.jpg	PRESENT	0.06657195091247559	226.30698800086975	228.30484700202945	229.5886309146881	229.93910908699036	232.40943694114685	4.104589939117432	[226.31438612937927, 226.43116402626038, 227.39884209632874, 227.565505027771, 228.33298110961914, 228.43312907218933, 228.56683111190796, 228.68344402313232, 228.783429145813, 228.9002640247345, 229.01708912849426, 229.13376212120056, 229.25063109397888, 229.36749696731567, 229.50115394592285, 229.60107803344727, 229.71787405014038, 229.83458995819092, 229.95145106315613, 230.06818008422852, 230.1849820613861, 230.40943694114685]	[226.30556881243464, 226.42223547910132, 227.40523547910132, 227.5719354791013, 228.3219354791013, 228.438602145768, 228.55526881243466, 228.67193547910134, 228.788602145768, 228.90526881243468, 229.02193547910136, 229.13860214576803, 229.2552688124347, 229.37193547910138, 229.48860214576806, 229.60526881243473, 229.7219354791014, 229.83860214576808, 229.95526881243475, 230.07193547910143, 230.1886021457681, 230.42193547910142]	2021_Feb_06_1313	59.88167302464765	1	1
27	39	FALSE	NV	v	['H', 'A', 'V', 'B', 'C', 'J', 'M', 'Z', 'T', 'W', 'N', 'S', 'U', 'X', 'P', 'K']	[986, 697, 2245, 760, 829, 1029, 1224, 2911, 1888, 2448, 1335, 1731, 2059, 4000, 1456, 1122]	14	Present	NA	NA	PRESENT	0.14319896697998047	232.41340112686157	234.42119908332825	235.70484399795532	236.05505299568176	238.52580404281616	4.104604959487915	[232.4207980632782, 232.53749895095825, 233.52201294898987, 233.6890070438385, 234.4400119781494, 234.55646514892578, 234.67325592041016, 234.790030002594, 234.9067029953003, 235.02354907989502, 235.14028692245483, 235.25726008415222, 235.37391114234924, 235.49093103408813, 235.60763311386108, 235.72453498840332, 235.84107995033264, 235.95797109603882, 236.07458996772766, 236.19145512580872, 236.30819296836853, 236.52581214904785]	[232.42193547910142, 232.5386021457681, 233.5216021457681, 233.6883021457681, 234.4383021457681, 234.55496881243477, 234.67163547910144, 234.7883021457681, 234.9049688124348, 235.02163547910146, 235.13830214576814, 235.2549688124348, 235.37163547910149, 235.48830214576816, 235.60496881243483, 235.7216354791015, 235.83830214576818, 235.95496881243486, 236.07163547910153, 236.1883021457682, 236.30496881243488, 236.5383021457682]	2021_Feb_06_1313	59.88167302464765	1	1
27	40	FALSE	NV	v	['H', 'V', 'K', 'U', 'B', 'C', 'Y', 'J', 'R', 'A', 'X', 'T', 'E', 'Z', 'P', 'M']	[986, 2245, 1122, 2059, 760, 829, 2670, 1029, 1587, 697, 4000, 1888, 904, 2911, 1456, 1224]	11	Present	NA	NA	PRESENT	0.05247306823730469	238.53668689727783	240.53779697418213	241.47132897377017	241.821093082428	244.64216995239255	4.104372978210449	[238.54408407211304, 238.66072607040405, 239.64504408836365, 239.81226706504822, 240.5627019405365, 240.67968702316284, 240.79622602462769, 240.913183927536, 241.02992010116577, 241.14687514305115, 241.26349210739136, 241.3802421092987, 241.4971730709076, 241.61397910118103, 241.73089003562927, 241.8473551273346, 241.96435594558716, 242.08124899864197, 242.19802808761597, 242.3147280216217, 242.41457295417786, 242.64217114448547]	[238.5383021457682, 238.65496881243487, 239.63796881243488, 239.80466881243487, 240.55466881243487, 240.67133547910154, 240.78800214576822, 240.9046688124349, 241.02133547910157, 241.13800214576824, 241.25466881243491, 241.3713354791016, 241.48800214576826, 241.60466881243494, 241.7213354791016, 241.8380021457683, 241.95466881243496, 242.07133547910163, 242.1880021457683, 242.30466881243498, 242.42133547910166, 242.65466881243498]	2021_Feb_06_1313	59.88167302464765	1	1
27	41	FALSE	NV	v	['U', 'W', 'S', 'Z', 'M', 'V', 'G', 'C', 'P', 'A', 'X', 'J', 'H', 'N', 'B', 'Y']	[2059, 2448, 1731, 2911, 1224, 2245, 944, 829, 1456, 697, 4000, 1029, 986, 1335, 760, 2670]	11	Present	NA	NA	PRESENT	0.08893513679504395	244.6434519290924	246.6540009975433	247.5874700546265	247.93751192092896	250.7585380077362	4.104537010192871	[244.65085005760193, 244.7670600414276, 245.7515890598297, 245.91859912872314, 246.66902208328247, 246.78599405288696, 246.90275692939758, 247.0195460319519, 247.13649201393127, 247.25320410728455, 247.37015509605408, 247.4867799282074, 247.60344314575195, 247.72050595283508, 247.8370440006256, 247.95397901535034, 248.07067012786865, 248.18763399124146, 248.30421710014343, 248.4211950302124, 248.53791403770447, 248.7585380077362]	[244.65466881243498, 244.77133547910165, 245.75433547910166, 245.92103547910165, 246.67103547910165, 246.78770214576832, 246.904368812435, 247.02103547910167, 247.13770214576834, 247.25436881243502, 247.3710354791017, 247.48770214576837, 247.60436881243504, 247.72103547910172, 247.8377021457684, 247.95436881243506, 248.07103547910174, 248.1877021457684, 248.3043688124351, 248.42103547910176, 248.53770214576844, 248.77103547910176]	2021_Feb_06_1313	59.88167302464765	1	1
27	42	FALSE	AN	v	['K', 'G', 'A', 'Y', 'H', 'R', 'surprise', 'M', 'N', 'J', 'E', 'P', 'W', 'V', 'C', 'Z']	[1122, 944, 697, 2670, 986, 1587, 'stimAuditory/all_stimAuditory/219.wav', 1224, 1335, 1029, 904, 1456, 2448, 2245, 829, 2911]	10	Absent	stimAuditory/all_stimAuditory/103.wav	stimVisual/all_stimVisual/120.jpg	ABSENT	0.157667875289917	250.76631093025208	252.77042198181152	253.587336063385	253.93777799606323	256.8749051094055	4.104483127593994	[250.77370810508728, 250.89027500152588, 251.8747639656067, 252.04170393943787, 252.79230499267578, 252.9092469215393, 253.02602410316467, 253.14285898208618, 253.25965309143066, 253.3764591217041, 253.49313807487488, 253.6100389957428, 253.72690796852112, 253.8436770439148, 253.96086311340332, 254.0772590637207, 254.19395399093628, 254.31080508232117, 254.42766499519348, 254.54421305656433, 254.66118097305298, 254.87490510940552]	[250.77103547910176, 250.88770214576843, 251.87070214576843, 252.03740214576843, 252.78740214576843, 252.9040688124351, 253.02073547910177, 253.13740214576845, 253.25406881243512, 253.3707354791018, 253.48740214576847, 253.60406881243514, 253.72073547910182, 253.8374021457685, 253.95406881243517, 254.07073547910184, 254.18740214576852, 254.3040688124352, 254.42073547910186, 254.53740214576854, 254.6540688124352, 254.88740214576853]	2021_Feb_06_1313	59.88167302464765	1	1
27	43	FALSE	NN	v	['T', 'V', 'P', 'Z', 'Y', 'E', 'U', 'K', 'C', 'B', 'S', 'N', 'G', 'H', 'M', 'A']	[1888, 2245, 1456, 2911, 2670, 904, 2059, 1122, 829, 760, 1731, 1335, 944, 986, 1224, 697]	12	Absent	NA	NA	ABSENT	0.3388509750366211	256.88949489593506	258.8866460323334	259.93742990493774	260.2869961261749	262.99127101898193	4.10462498664856	[256.89689207077026, 256.99673795700073, 257.9811270236969, 258.1482241153717, 258.9154601097107, 259.0323009490967, 259.1323130130768, 259.2490990161896, 259.36590814590454, 259.499675989151, 259.5995349884033, 259.71629214286804, 259.8331160545349, 259.949923992157, 260.0667099952698, 260.1836271286011, 260.3003101348877, 260.41724014282227, 260.534038066864, 260.65094804763794, 260.7675919532776, 260.9912700653076]	[256.88740214576853, 257.0040688124352, 257.9870688124352, 258.1537688124352, 258.9037688124352, 259.0204354791019, 259.13710214576855, 259.2537688124352, 259.3704354791019, 259.4871021457686, 259.60376881243525, 259.7204354791019, 259.8371021457686, 259.95376881243527, 260.07043547910195, 260.1871021457686, 260.3037688124353, 260.42043547910197, 260.53710214576864, 260.6537688124353, 260.770435479102, 261.00376881243534]	2021_Feb_06_1313	59.88167302464765	1	1
27	44	FALSE	NV	v	['J', 'K', 'C', 'A', 'N', 'U', 'R', 'E', 'W', 'V', 'X', 'B', 'G', 'H', 'Z', 'P']	[1029, 1122, 829, 697, 1335, 2059, 1587, 904, 2448, 2245, 4000, 760, 944, 986, 2911, 1456]	11	Present	NA	NA	PRESENT	0.0792241096496582	262.99609208106995	265.00316405296326	265.93647599220276	266.28684091567993	269.10763812065125	4.104474067687988	[263.0034899711609, 263.12001514434814, 264.1048309803009, 264.27134895324707, 265.0222051143646, 265.1389219760895, 265.255686044693, 265.37256813049316, 265.4892361164093, 265.6061029434204, 265.7230010032654, 265.83971309661865, 265.95634412765503, 266.0732469558716, 266.1899130344391, 266.30680894851685, 266.423691034317, 266.54045701026917, 266.65717911720276, 266.7740840911865, 266.8908619880676, 267.10763692855835]	[263.00376881243534, 263.120435479102, 264.103435479102, 264.270135479102, 265.020135479102, 265.1368021457687, 265.25346881243536, 265.37013547910203, 265.4868021457687, 265.6034688124354, 265.72013547910205, 265.83680214576873, 265.9534688124354, 266.0701354791021, 266.18680214576875, 266.3034688124354, 266.4201354791021, 266.5368021457688, 266.65346881243545, 266.7701354791021, 266.8868021457688, 267.12013547910215]	2021_Feb_06_1313	59.88167302464765	1	1
27	45	FALSE	NN	v	['R', 'C', 'Y', 'A', 'E', 'P', 'Z', 'B', 'M', 'N', 'J', 'H', 'U', 'G', 'V', 'S']	[1587, 829, 2670, 697, 904, 1456, 2911, 760, 1224, 1335, 1029, 986, 2059, 944, 2245, 1731]	10	Absent	NA	NA	ABSENT	0.18056082725524905	269.1191620826721	271.1193459033966	271.93631410598755	272.2863690853119	275.224004983902	4.104659080505371	[269.12655901908875, 269.2432961463928, 270.22775292396545, 270.3945231437683, 271.14524602890015, 271.26196098327637, 271.3789370059967, 271.49560594558716, 271.61234998703003, 271.7292981147766, 271.8461649417877, 271.9628450870514, 272.0795171260834, 272.19634914398193, 272.3130760192871, 272.4299211502075, 272.54687309265137, 272.6635150909424, 272.78047013282776, 272.897274017334, 272.9973261356354, 273.224004983902]	[269.12013547910215, 269.2368021457688, 270.2198021457688, 270.3865021457688, 271.1365021457688, 271.2531688124355, 271.36983547910216, 271.48650214576884, 271.6031688124355, 271.7198354791022, 271.83650214576886, 271.95316881243554, 272.0698354791022, 272.1865021457689, 272.30316881243556, 272.41983547910223, 272.5365021457689, 272.6531688124356, 272.76983547910226, 272.88650214576893, 273.0031688124356, 273.23650214576895]	2021_Feb_06_1313	59.88167302464765	1	1
27	46	FALSE	NA	v	['H', 'C', 'G', 'T', 'A', 'P', 'N', 'U', 'K', 'B', 'M', 'X', 'E', 'Z', 'S', 'R']	[986, 829, 944, 1888, 697, 1456, 1335, 2059, 1122, 760, 1224, 4000, 904, 2911, 1731, 1587]	12	Present	NA	NA	PRESENT	0.05742907524108887	275.22588300704956	277.2360279560089	278.28596210479736	278.6359269618988	281.3403699398041	4.104341983795166	[275.2332811355591, 275.3497700691223, 276.33410811424255, 276.50090312957764, 277.25158309936523, 277.36858010292053, 277.4852499961853, 277.6020770072937, 277.7189610004425, 277.83566212654114, 277.9523799419403, 278.06938004493713, 278.18593311309814, 278.30288910865784, 278.41973900794983, 278.53660893440247, 278.65328311920166, 278.7699921131134, 278.8869490623474, 279.0037000179291, 279.12047505378723, 279.3403699398041]	[275.23650214576895, 275.3531688124356, 276.33616881243563, 276.5028688124356, 277.2528688124356, 277.3695354791023, 277.48620214576897, 277.60286881243564, 277.7195354791023, 277.836202145769, 277.95286881243567, 278.06953547910234, 278.186202145769, 278.3028688124357, 278.41953547910236, 278.53620214576904, 278.6528688124357, 278.7695354791024, 278.88620214576906, 279.00286881243574, 279.1195354791024, 279.35286881243576]	2021_Feb_06_1313	59.88167302464765	1	1
27	47	FALSE	NA	v	['T', 'Y', 'S', 'B', 'J', 'U', 'N', 'W', 'X', 'H', 'E', 'A', 'R', 'G', 'V', 'P']	[1888, 2670, 1731, 760, 1029, 2059, 1335, 2448, 4000, 986, 904, 697, 1587, 944, 2245, 1456]	9	Present	NA	NA	PRESENT	0.31755590438842773	281.3488941192627	283.352334022522	284.0525839328766	284.40295004844666	287.4567379951477	4.104403972625732	[281.3562910556793, 281.47297406196594, 282.4573440551758, 282.6242890357971, 283.37480902671814, 283.491858959198, 283.6086621284485, 283.7251470088959, 283.8421609401703, 283.95886397361755, 284.0756390094757, 284.1923770904541, 284.3092420101166, 284.4261450767517, 284.54291796684265, 284.6595151424408, 284.7764849662781, 284.89354515075684, 285.01025009155273, 285.1269419193268, 285.2434289455414, 285.456738948822]	[281.35286881243576, 281.46953547910243, 282.45253547910244, 282.61923547910243, 283.36923547910243, 283.4859021457691, 283.6025688124358, 283.71923547910245, 283.8359021457691, 283.9525688124358, 284.0692354791025, 284.18590214576915, 284.3025688124358, 284.4192354791025, 284.53590214576917, 284.65256881243585, 284.7692354791025, 284.8859021457692, 285.00256881243587, 285.11923547910254, 285.2359021457692, 285.46923547910257]	2021_Feb_06_1313	59.88167302464765	1	1
27	48	FALSE	NA	v	['T', 'P', 'J', 'H', 'G', 'R', 'S', 'B', 'E', 'C', 'X', 'W', 'A', 'Z', 'Y', 'V']	[1888, 1456, 1029, 986, 944, 1587, 1731, 760, 904, 829, 4000, 2448, 697, 2911, 2670, 2245]	11	Present	NA	NA	PRESENT	0.23514580726623535	287.4551250934601	289.4686601161957	290.40200209617615	290.7526559829712	293.573105096817	4.104444980621338	[287.4625220298767, 287.5792591571808, 288.5637710094452, 288.73071098327637, 289.4981210231781, 289.5981431007385, 289.71489906311035, 289.8317060470581, 289.948450088501, 290.0652141571045, 290.1819911003113, 290.2987689971924, 290.41580510139465, 290.5324010848999, 290.6492249965668, 290.76623606681824, 290.8828010559082, 290.99982714653015, 291.1165781021118, 291.23333406448364, 291.35000014305115, 291.57310605049133]	[287.46923547910257, 287.58590214576924, 288.56890214576924, 288.73560214576923, 289.48560214576923, 289.6022688124359, 289.7189354791026, 289.83560214576926, 289.95226881243593, 290.0689354791026, 290.1856021457693, 290.30226881243595, 290.41893547910263, 290.5356021457693, 290.652268812436, 290.76893547910265, 290.8856021457693, 291.002268812436, 291.1189354791027, 291.23560214576935, 291.352268812436, 291.58560214576937]	2021_Feb_06_1313	59.88167302464765	1	1
27	49	FALSE	NN	v	['Y', 'Z', 'M', 'G', 'V', 'K', 'T', 'U', 'P', 'B', 'J', 'W', 'S', 'R', 'A', 'C']	[2670, 2911, 1224, 944, 2245, 1122, 1888, 2059, 1456, 760, 1029, 2448, 1731, 1587, 697, 829]	14	Absent	NA	NA	ABSENT	0.16762709617614746	293.5784270763397	295.5848650932312	296.8685040473938	297.2185139656067	299.6894700527191	4.104604959487915	[293.58582401275635, 293.7025170326233, 294.687077999115, 294.85387206077576, 295.6048860549927, 295.72158002853394, 295.83807611465454, 295.9550099372864, 296.07167506217957, 296.1885471343994, 296.30517506599426, 296.42216396331787, 296.53900694847107, 296.6558589935303, 296.7724509239197, 296.8891930580139, 297.0061640739441, 297.12301898002625, 297.23978996276855, 297.3566081523895, 297.4733099937439, 297.68947100639343]	[293.58560214576937, 293.70226881243605, 294.68526881243605, 294.85196881243604, 295.60196881243604, 295.7186354791027, 295.8353021457694, 295.95196881243606, 296.06863547910274, 296.1853021457694, 296.3019688124361, 296.41863547910276, 296.53530214576944, 296.6519688124361, 296.7686354791028, 296.88530214576946, 297.00196881243613, 297.1186354791028, 297.2353021457695, 297.35196881243616, 297.46863547910283, 297.7019688124362]	2021_Feb_06_1313	59.88167302464765	1	1
27	50	FALSE	NN	v	['T', 'W', 'P', 'H', 'M', 'U', 'G', 'J', 'A', 'R', 'S', 'Z', 'N', 'Y', 'B', 'V']	[1888, 2448, 1456, 986, 1224, 2059, 944, 1029, 697, 1587, 1731, 2911, 1335, 2670, 760, 2245]	14	Absent	NA	NA	ABSENT	0.12497711181640624	299.70147705078125	301.7013289928436	302.98515796661377	303.33488297462463	305.8058371543884	4.1045081615448	[299.7088739871979, 299.8259129524231, 300.8100709915161, 300.97707509994507, 301.72784209251404, 301.84467601776123, 301.9616050720215, 302.0782871246338, 302.19506001472473, 302.31160402297974, 302.4285259246826, 302.54531502723694, 302.6621479988098, 302.7788939476013, 302.89578008651733, 303.0123529434204, 303.12938714027405, 303.2460880279541, 303.36280512809753, 303.47956895828247, 303.57986307144165, 303.80583810806274]	[299.7019688124362, 299.81863547910285, 300.80163547910286, 300.96833547910285, 301.71833547910285, 301.8350021457695, 301.9516688124362, 302.06833547910287, 302.18500214576954, 302.3016688124362, 302.4183354791029, 302.53500214576957, 302.65166881243624, 302.7683354791029, 302.8850021457696, 303.00166881243626, 303.11833547910294, 303.2350021457696, 303.3516688124363, 303.46833547910296, 303.58500214576964, 303.818335479103]	2021_Feb_06_1313	59.88167302464765	1	1
27	51	FALSE	NV	v	['K', 'B', 'A', 'C', 'Y', 'N', 'U', 'T', 'S', 'G', 'X', 'H', 'Z', 'R', 'E', 'W']	[1122, 760, 697, 829, 2670, 1335, 2059, 1888, 1731, 944, 4000, 986, 2911, 1587, 904, 2448]	11	Present	NA	NA	PRESENT	0.11349201202392578	305.8084659576416	307.81764698028564	308.7516419887543	309.1013090610504	311.9222049713135	4.104557991027832	[305.8158640861511, 305.932168006897, 306.916531085968, 307.0835950374603, 307.8341290950775, 307.95095109939575, 308.0679099559784, 308.1847641468048, 308.30140709877014, 308.4183909893036, 308.5349111557007, 308.65191197395325, 308.76848912239075, 308.8854229450226, 309.0021300315857, 309.1190640926361, 309.23571515083313, 309.3526511192322, 309.46922492980957, 309.58612394332886, 309.7029130458832, 309.9222049713135]	[305.818335479103, 305.93500214576966, 306.91800214576966, 307.08470214576965, 307.83470214576965, 307.95136881243633, 308.068035479103, 308.1847021457697, 308.30136881243635, 308.418035479103, 308.5347021457697, 308.6513688124364, 308.76803547910305, 308.8847021457697, 309.0013688124364, 309.11803547910307, 309.23470214576975, 309.3513688124364, 309.4680354791031, 309.58470214576977, 309.70136881243644, 309.9347021457698]	2021_Feb_06_1313	59.88167302464765	1	1
27	52	FALSE	NA	v	['H', 'J', 'V', 'S', 'A', 'C', 'P', 'Z', 'R', 'X', 'B', 'W', 'T', 'E', 'M', 'K']	[986, 1029, 2245, 1731, 697, 829, 1456, 2911, 1587, 4000, 760, 2448, 1888, 904, 1224, 1122]	10	Present	NA	NA	PRESENT	0.15007686614990234	311.9310209751129	313.9340651035309	314.7508580684662	315.1012330055237	318.0385711193085	4.104506015777588	[311.93841910362244, 312.0555181503296, 313.03989911079407, 313.2065601348877, 313.9573640823364, 314.07430815696716, 314.191064119339, 314.3076641559601, 314.4247601032257, 314.5413520336151, 314.6582109928131, 314.7748739719391, 314.892058134079, 315.0084779262543, 315.12542510032654, 315.2419400215149, 315.35895705223083, 315.47598910331726, 315.5924379825592, 315.7093999385834, 315.82622599601746, 316.0385720729828]	[311.9347021457698, 312.05136881243646, 313.03436881243647, 313.20106881243646, 313.95106881243646, 314.06773547910313, 314.1844021457698, 314.3010688124365, 314.41773547910316, 314.53440214576983, 314.6510688124365, 314.7677354791032, 314.88440214576985, 315.00106881243653, 315.1177354791032, 315.2344021457699, 315.35106881243655, 315.4677354791032, 315.5844021457699, 315.7010688124366, 315.81773547910325, 316.0510688124366]	2021_Feb_06_1313	59.88167302464765	1	1
27	53	FALSE	AV	v	['G', 'M', 'B', 'Z', 'U', 'A', 'N', 'E', 'surprise', 'K', 'S', 'X', 'C', 'J', 'V', 'R']	[944, 1224, 760, 2911, 2059, 697, 1335, 904, 'stimAuditory/all_stimAuditory/119.wav', 1122, 1731, 4000, 829, 1029, 2245, 1587]	12	Present	stimAuditory/all_stimAuditory/208.wav	stimVisual/all_stimVisual/206.jpg	PRESENT	0.10742807388305664	318.03755712509155	320.05047702789307	321.10078406333923	321.4508430957794	324.1549379825592	4.104460954666138	[318.0449540615082, 318.16180515289307, 319.14614605903625, 319.3132450580597, 320.0807020664215, 320.18063712120056, 320.29739809036255, 320.4142339229584, 320.5310380458832, 320.6480281352997, 320.7646300792694, 320.8815231323242, 321.01483511924744, 321.1148319244385, 321.23186898231506, 321.34862303733826, 321.4652490615845, 321.582288980484, 321.6990089416504, 321.8158960342407, 321.9325249195099, 322.1549389362335]	[318.0510688124366, 318.16773547910327, 319.1507354791033, 319.31743547910327, 320.06743547910327, 320.18410214576994, 320.3007688124366, 320.4174354791033, 320.53410214576996, 320.65076881243664, 320.7674354791033, 320.88410214577, 321.00076881243666, 321.11743547910334, 321.23410214577, 321.3507688124367, 321.46743547910336, 321.58410214577003, 321.7007688124367, 321.8174354791034, 321.93410214577005, 322.1674354791034]	2021_Feb_06_1313	59.88167302464765	1	1
27	54	FALSE	NV	v	['V', 'Z', 'C', 'S', 'U', 'N', 'H', 'K', 'X', 'A', 'Y', 'G', 'T', 'W', 'J', 'B']	[2245, 2911, 829, 1731, 2059, 1335, 986, 1122, 4000, 697, 2670, 944, 1888, 2448, 1029, 760]	9	Present	NA	NA	PRESENT	0.18396711349487305	324.1609630584717	326.166855096817	326.86742901802063	327.2170190811157	330.2713050842285	4.104449987411499	[324.16836404800415, 324.28501415252686, 325.26992893218994, 325.4362061023712, 326.1869900226593, 326.3039140701294, 326.420697927475, 326.5373649597168, 326.65423107147217, 326.771115064621, 326.8879029750824, 327.00468015670776, 327.1214849948883, 327.2382581233978, 327.35502314567566, 327.47157406806946, 327.5887041091919, 327.70527601242065, 327.82228112220764, 327.9390981197357, 328.05575299263, 328.2713041305542]	[324.1674354791034, 324.2841021457701, 325.2671021457701, 325.4338021457701, 326.1838021457701, 326.30046881243675, 326.4171354791034, 326.5338021457701, 326.65046881243677, 326.76713547910344, 326.8838021457701, 327.0004688124368, 327.11713547910347, 327.23380214577014, 327.3504688124368, 327.4671354791035, 327.58380214577016, 327.70046881243684, 327.8171354791035, 327.9338021457702, 328.05046881243686, 328.2838021457702]	2021_Feb_06_1313	59.88167302464765	1	1
27	55	FALSE	NN	v	['J', 'T', 'M', 'U', 'P', 'S', 'K', 'Y', 'V', 'E', 'A', 'B', 'N', 'R', 'G', 'C']	[1029, 1888, 1224, 2059, 1456, 1731, 1122, 2670, 2245, 904, 697, 760, 1335, 1587, 944, 829]	13	Absent	NA	NA	PRESENT	0.18926310539245603	330.2840430736542	332.2830250263214	333.4502000808716	333.8000910282135	336.38767099380493	4.1046459674835205	[330.2914400100708, 330.4084720611572, 331.3757679462433, 331.54267406463623, 332.3102481365204, 332.42718601226807, 332.5438849925995, 332.6607930660248, 332.7776370048523, 332.8943750858307, 333.01116704940796, 333.12769508361816, 333.24469804763794, 333.36122703552246, 333.47812509536743, 333.5947711467743, 333.711786031723, 333.82854294776917, 333.92854714393616, 334.04535007476807, 334.16210412979126, 334.3876700401306]	[330.2838021457702, 330.4004688124369, 331.3834688124369, 331.5501688124369, 332.3001688124369, 332.41683547910355, 332.5335021457702, 332.6501688124369, 332.7668354791036, 332.88350214577025, 333.0001688124369, 333.1168354791036, 333.2335021457703, 333.35016881243695, 333.4668354791036, 333.5835021457703, 333.70016881243697, 333.81683547910364, 333.9335021457703, 334.050168812437, 334.16683547910367, 334.400168812437]	2021_Feb_06_1313	59.88167302464765	1	1
27	56	FALSE	VV	v	['U', 'K', 'Y', 'Z', 'surprise', 'M', 'T', 'X', 'B', 'A', 'G', 'V', 'J', 'N', 'P', 'S']	[2059, 1122, 2670, 2911, 'stimAuditory/all_stimAuditory/212.wav', 1224, 1888, 4000, 760, 697, 944, 2245, 1029, 1335, 1456, 1731]	8	Present	NA	stimVisual/all_stimVisual/50.jpg	PRESENT	0.12182188034057616	336.39096903800964	338.39944100379944	338.98322796821594	339.3330240249634	342.50403809547424	4.104597091674805	[336.3983669281006, 336.514652967453, 337.49913811683655, 337.66576194763184, 338.4165859222412, 338.5336570739746, 338.6502161026001, 338.7669849395752, 338.9004559516907, 339.00086998939514, 339.1174900531769, 339.23424005508423, 339.35107493400574, 339.467787027359, 339.58452105522156, 339.70142102241516, 339.8182361125946, 339.93504905700684, 340.05181312561035, 340.1686179637909, 340.2854599952698, 340.50403904914856]	[336.400168812437, 336.5168354791037, 337.4998354791037, 337.6665354791037, 338.4165354791037, 338.53320214577036, 338.64986881243703, 338.7665354791037, 338.8832021457704, 338.99986881243706, 339.11653547910373, 339.2332021457704, 339.3498688124371, 339.46653547910375, 339.58320214577043, 339.6998688124371, 339.8165354791038, 339.93320214577045, 340.0498688124371, 340.1665354791038, 340.2832021457705, 340.5165354791038]	2021_Feb_06_1313	59.88167302464765	1	1
27	57	FALSE	NA	v	['C', 'T', 'P', 'E', 'W', 'G', 'S', 'Z', 'X', 'U', 'M', 'A', 'B', 'H', 'V', 'K']	[829, 1888, 1456, 904, 2448, 944, 1731, 2911, 4000, 2059, 1224, 697, 760, 986, 2245, 1122]	9	Present	NA	NA	PRESENT	0.2391068935394287	342.51353311538696	344.5158760547638	345.21603298187256	345.56595396995544	348.620404958725	4.104528903961182	[342.5209290981293, 342.63795709609985, 343.6223609447479, 343.78897309303284, 344.53988814353943, 344.65682196617126, 344.7733631134033, 344.8901381492615, 345.00724601745605, 345.12399101257324, 345.24066400527954, 345.35751008987427, 345.47424507141113, 345.5911340713501, 345.70794701576233, 345.8246901035309, 345.94186902046204, 346.0583109855652, 346.1750719547272, 346.2916171550751, 346.39168310165405, 346.620404958725]	[342.5165354791038, 342.6332021457705, 343.6162021457705, 343.7829021457705, 344.5329021457705, 344.64956881243717, 344.76623547910384, 344.8829021457705, 344.9995688124372, 345.11623547910386, 345.23290214577054, 345.3495688124372, 345.4662354791039, 345.58290214577056, 345.69956881243724, 345.8162354791039, 345.9329021457706, 346.04956881243726, 346.16623547910393, 346.2829021457706, 346.3995688124373, 346.63290214577063]	2021_Feb_06_1313	59.88167302464765	1	1
27	58	FALSE	NV	v	['T', 'G', 'Y', 'V', 'S', 'A', 'J', 'W', 'U', 'N', 'M', 'Z', 'H', 'X', 'R', 'K']	[1888, 944, 2670, 2245, 1731, 697, 1029, 2448, 2059, 1335, 1224, 2911, 986, 4000, 1587, 1122]	14	Present	NA	NA	PRESENT	0.17957186698913574	348.62037992477417	350.63235092163086	351.9158809185028	352.26582312583923	354.73677110671997	4.104420185089111	[348.6277780532837, 348.74433493614197, 349.7289071083069, 349.8955600261688, 350.66332507133484, 350.76320004463196, 350.88001894950867, 350.9969129562378, 351.11367201805115, 351.23042392730713, 351.3472681045532, 351.46403193473816, 351.5807681083679, 351.69742703437805, 351.8142900466919, 351.9309539794922, 352.0479140281677, 352.16474294662476, 352.28143095970154, 352.3981239795685, 352.5151319503784, 352.73677015304565]	[348.63290214577063, 348.7495688124373, 349.7325688124373, 349.8992688124373, 350.6492688124373, 350.765935479104, 350.88260214577065, 350.9992688124373, 351.115935479104, 351.23260214577067, 351.34926881243734, 351.465935479104, 351.5826021457707, 351.69926881243737, 351.81593547910404, 351.9326021457707, 352.0492688124374, 352.16593547910406, 352.28260214577074, 352.3992688124374, 352.5159354791041, 352.74926881243744]	2021_Feb_06_1313	59.88167302464765	1	1
27	59	FALSE	NN	v	['A', 'P', 'K', 'Y', 'M', 'W', 'S', 'Z', 'H', 'C', 'R', 'V', 'E', 'U', 'N', 'T']	[697, 1456, 1122, 2670, 1224, 2448, 1731, 2911, 986, 829, 1587, 2245, 904, 2059, 1335, 1888]	14	Absent	NA	NA	ABSENT	0.151993989944458	354.74341011047363	356.7485680580139	358.03237104415894	358.38214206695557	360.8531379699707	4.104569911956787	[354.7508080005646, 354.8676600456238, 355.8519539833069, 356.0190680027008, 356.76947712898254, 356.88640999794006, 357.00326108932495, 357.1198971271515, 357.2367539405823, 357.35347509384155, 357.47038412094116, 357.5872850418091, 357.704008102417, 357.8208611011505, 357.9375801086426, 358.0544009208679, 358.1711599826813, 358.2878270149231, 358.40448093414307, 358.5213871002197, 358.63822197914124, 358.8531370162964]	[354.74926881243744, 354.8659354791041, 355.8489354791041, 356.0156354791041, 356.7656354791041, 356.8823021457708, 356.99896881243745, 357.1156354791041, 357.2323021457708, 357.3489688124375, 357.46563547910415, 357.5823021457708, 357.6989688124375, 357.8156354791042, 357.93230214577085, 358.0489688124375, 358.1656354791042, 358.28230214577087, 358.39896881243754, 358.5156354791042, 358.6323021457709, 358.86563547910424]	2021_Feb_06_1313	59.88167302464765	1	1
27	60	FALSE	NN	v	['U', 'P', 'Z', 'G', 'R', 'S', 'C', 'E', 'H', 'V', 'J', 'A', 'K', 'B', 'Y', 'M']	[2059, 1456, 2911, 944, 1587, 1731, 829, 904, 986, 2245, 1029, 697, 1122, 760, 2670, 1224]	12	Absent	NA	NA	ABSENT	0.2453751564025879	360.86662006378174	362.865119934082	363.91519689559937	364.26502990722656	366.9695041179657	4.104384183883667	[360.8740179538727, 360.9907491207123, 361.9583430290222, 362.125226020813, 362.89274311065674, 363.00943207740784, 363.1263909339905, 363.2429790496826, 363.3599741458893, 363.4765589237213, 363.59356904029846, 363.6935179233551, 363.8103349208832, 363.92711305618286, 364.06080293655396, 364.1606421470642, 364.2773849964142, 364.394189119339, 364.5109329223633, 364.6277220249176, 364.7446229457855, 364.96950507164]	[360.86563547910424, 360.9823021457709, 361.9653021457709, 362.1320021457709, 362.8820021457709, 362.9986688124376, 363.11533547910426, 363.23200214577093, 363.3486688124376, 363.4653354791043, 363.58200214577096, 363.69866881243763, 363.8153354791043, 363.932002145771, 364.04866881243765, 364.16533547910433, 364.282002145771, 364.3986688124377, 364.51533547910435, 364.632002145771, 364.7486688124377, 364.98200214577105]	2021_Feb_06_1313	59.88167302464765	1	1
27	61	FALSE	NA	v	['B', 'J', 'Y', 'T', 'U', 'M', 'A', 'R', 'S', 'N', 'W', 'H', 'X', 'P', 'K', 'V']	[760, 1029, 2670, 1888, 2059, 1224, 697, 1587, 1731, 1335, 2448, 986, 4000, 1456, 1122, 2245]	13	Present	NA	NA	PRESENT	0.11400318145751952	366.97340512275696	368.9813230037689	370.14819407463074	370.4983520507813	373.0858709812164	4.10454797744751	[366.9808039665222, 367.09728813171387, 368.081670999527, 368.2484369277954, 368.99906611442566, 369.1161289215088, 369.2328591346741, 369.3497121334076, 369.46630597114563, 369.58331513404846, 369.69991302490234, 369.8168640136719, 369.9335949420929, 370.05049109458923, 370.16721296310425, 370.28391098976135, 370.4007959365845, 370.5176329612732, 370.63441705703735, 370.75103306770325, 370.86786794662476, 371.08587098121643]	[366.98200214577105, 367.0986688124377, 368.0816688124377, 368.2483688124377, 368.9983688124377, 369.1150354791044, 369.23170214577107, 369.34836881243774, 369.4650354791044, 369.5817021457711, 369.69836881243776, 369.81503547910444, 369.9317021457711, 370.0483688124378, 370.16503547910446, 370.28170214577113, 370.3983688124378, 370.5150354791045, 370.63170214577116, 370.74836881243783, 370.8650354791045, 371.09836881243785]	2021_Feb_06_1313	59.88167302464765	1	1
27	62	FALSE	NV	v	['S', 'R', 'G', 'U', 'J', 'P', 'T', 'A', 'E', 'W', 'X', 'Z', 'B', 'M', 'C', 'V']	[1731, 1587, 944, 2059, 1029, 1456, 1888, 697, 904, 2448, 4000, 2911, 760, 1224, 829, 2245]	11	Present	NA	NA	PRESENT	0.1515500545501709	373.0962119102478	375.0977609157562	376.03137493133545	376.38125109672546	379.20223808288574	4.104477167129517	[373.103609085083, 373.2202661037445, 374.2049460411072, 374.3716650009155, 375.1223270893097, 375.2392740249634, 375.3560371398926, 375.472815990448, 375.5896780490875, 375.70640897750854, 375.82323813438416, 375.93983697891235, 376.0566580295563, 376.1736710071564, 376.29047298431396, 376.4072620868683, 376.5240111351013, 376.6406080722809, 376.7573890686035, 376.8747019767761, 376.9742040634155, 377.20223808288574]	[373.09836881243785, 373.21503547910453, 374.19803547910453, 374.3647354791045, 375.1147354791045, 375.2314021457712, 375.3480688124379, 375.46473547910455, 375.5814021457712, 375.6980688124379, 375.81473547910457, 375.93140214577124, 376.0480688124379, 376.1647354791046, 376.28140214577127, 376.39806881243794, 376.5147354791046, 376.6314021457713, 376.74806881243796, 376.86473547910464, 376.9814021457713, 377.21473547910466]	2021_Feb_06_1313	59.88167302464765	1	1
27	63	FALSE	NN	v	['E', 'K', 'N', 'C', 'J', 'M', 'W', 'Y', 'G', 'A', 'S', 'U', 'H', 'T', 'V', 'B']	[904, 1122, 1335, 829, 1029, 1224, 2448, 2670, 944, 697, 1731, 2059, 986, 1888, 2245, 760]	10	Absent	NA	NA	PRESENT	1.3638079166412354	379.2025511264801	381.2139410972595	382.0315549373626	382.3810911178589	385.3186049461365	4.104663848876953	[379.20994901657104, 379.3268940448761, 380.3112781047821, 380.4782381057739, 381.2287609577179, 381.3457701206207, 381.46236515045166, 381.5793559551239, 381.69593715667725, 381.812931060791, 381.9295690059662, 382.0463149547577, 382.1632900238037, 382.28013610839844, 382.39687299728394, 382.5135540962219, 382.6304910182953, 382.7473130226135, 382.8639841079712, 382.98091197013855, 383.09749603271484, 383.31860399246216]	[379.21473547910466, 379.33140214577134, 380.31440214577134, 380.48110214577133, 381.23110214577133, 381.347768812438, 381.4644354791047, 381.58110214577135, 381.697768812438, 381.8144354791047, 381.9311021457714, 382.04776881243805, 382.1644354791047, 382.2811021457714, 382.3977688124381, 382.51443547910475, 382.6311021457714, 382.7477688124381, 382.86443547910477, 382.98110214577144, 383.0977688124381, 383.33110214577147]	2021_Feb_06_1313	59.88167302464765	1	1
27	64	FALSE	NA	v	['A', 'G', 'H', 'Y', 'W', 'V', 'N', 'S', 'B', 'K', 'X', 'Z', 'J', 'T', 'C', 'P']	[697, 944, 986, 2670, 2448, 2245, 1335, 1731, 760, 1122, 4000, 2911, 1029, 1888, 829, 1456]	11	Present	NA	NA	PRESENT	0.20836997032165527	385.3259038925171	387.33052110672	388.2639179229736	388.61397910118103	391.4349710941314	4.104449987411499	[385.3333020210266, 385.45006012916565, 386.434534072876, 386.60125207901, 387.3523819446564, 387.4688401222229, 387.58550000190735, 387.702476978302, 387.8193380832672, 387.93610310554504, 388.0529761314392, 388.16946506500244, 388.28640604019165, 388.4030981063843, 388.52006793022156, 388.63682794570923, 388.7536129951477, 388.8704180717468, 388.9871461391449, 389.10383200645447, 389.22082710266113, 389.43497014045715]	[385.33110214577147, 385.44776881243814, 386.43076881243815, 386.59746881243814, 387.34746881243814, 387.4641354791048, 387.5808021457715, 387.69746881243816, 387.81413547910483, 387.9308021457715, 388.0474688124382, 388.16413547910486, 388.28080214577153, 388.3974688124382, 388.5141354791049, 388.63080214577155, 388.7474688124382, 388.8641354791049, 388.9808021457716, 389.09746881243825, 389.2141354791049, 389.4474688124383]	2021_Feb_06_1313	59.88167302464765	1	1
27	65	FALSE	NV	v	['N', 'R', 'T', 'M', 'W', 'A', 'B', 'K', 'C', 'G', 'V', 'X', 'J', 'Z', 'S', 'H']	[1335, 1587, 1888, 1224, 2448, 697, 760, 1122, 829, 944, 2245, 4000, 1029, 2911, 1731, 986]	12	Present	NA	NA	PRESENT	0.2776510715484619	391.4490261077881	393.446897983551	394.49719190597534	394.84700989723206	397.5513379573822	4.104439973831177	[391.4564230442047, 391.55641913414, 392.5408549308777, 392.70792508125305, 393.4751720428467, 393.5751791000366, 393.70883798599243, 393.8087420463562, 393.92549204826355, 394.0423309803009, 394.15910601615906, 394.27597403526306, 394.39275193214417, 394.50954413414, 394.6263151168823, 394.7430970668793, 394.85990810394287, 394.97668504714966, 395.09363198280334, 395.21030497550964, 395.3272249698639, 395.5513379573822]	[391.4474688124383, 391.56413547910495, 392.54713547910495, 392.71383547910494, 393.46383547910494, 393.5805021457716, 393.6971688124383, 393.81383547910497, 393.93050214577164, 394.0471688124383, 394.163835479105, 394.28050214577166, 394.39716881243834, 394.513835479105, 394.6305021457717, 394.74716881243836, 394.86383547910503, 394.9805021457717, 395.0971688124384, 395.21383547910506, 395.33050214577173, 395.5638354791051]	2021_Feb_06_1313	59.88167302464765	1	1
27	66	FALSE	NA	v	['Y', 'B', 'W', 'M', 'E', 'H', 'P', 'N', 'A', 'X', 'S', 'R', 'G', 'K', 'V', 'T']	[2670, 760, 2448, 1224, 904, 986, 1456, 1335, 697, 4000, 1731, 1587, 944, 1122, 2245, 1888]	10	Present	NA	NA	PRESENT	0.21817493438720703	397.5557689666748	399.5633990764618	400.3799850940704	400.7300419807434	403.6677050590515	4.104305982589722	[397.56316804885864, 397.6796679496765, 398.66403913497925, 398.83088994026184, 399.58155512809753, 399.69863295555115, 399.8153040409088, 399.9319541454315, 400.0488440990448, 400.16554498672485, 400.28253197669983, 400.39926314353943, 400.5162260532379, 400.63279604911804, 400.74980306625366, 400.86658906936646, 400.9833490848541, 401.1001739501953, 401.2169830799103, 401.3335371017456, 401.4503450393677, 401.6677041053772]	[397.5638354791051, 397.68050214577175, 398.66350214577176, 398.83020214577175, 399.58020214577175, 399.6968688124384, 399.8135354791051, 399.9302021457718, 400.04686881243845, 400.1635354791051, 400.2802021457718, 400.39686881243847, 400.51353547910514, 400.6302021457718, 400.7468688124385, 400.86353547910517, 400.98020214577184, 401.0968688124385, 401.2135354791052, 401.33020214577186, 401.44686881243854, 401.6802021457719]	2021_Feb_06_1313	59.88167302464765	1	1
27	67	FALSE	VN	v	['Y', 'W', 'P', 'B', 'H', 'V', 'M', 'E', 'Z', 'surprise', 'C', 'R', 'S', 'G', 'J', 'A']	[2670, 2448, 1456, 760, 986, 2245, 1224, 904, 2911, 'stimAuditory/all_stimAuditory/220.wav', 829, 1587, 1731, 944, 1029, 697]	13	Absent	NA	stimVisual/all_stimVisual/217.jpg	ABSENT	0.111616849899292	403.6787829399109	405.6794650554657	406.84630703926086	407.19641304016113	409.78407096862793	4.1046059131622314	[403.6861801147461, 403.8027789592743, 404.7871530056, 404.9540801048279, 405.7048349380493, 405.82156014442444, 405.93903493881226, 406.0552749633789, 406.17197608947754, 406.28877210617065, 406.4057631492615, 406.52261304855347, 406.63939595222473, 406.75605607032776, 406.87323212623596, 406.98967814445496, 407.1063549518585, 407.22344303131104, 407.3400650024414, 407.4567930698395, 407.55683493614197, 407.78407096862793]	[403.6802021457719, 403.79686881243856, 404.77986881243856, 404.94656881243856, 405.69656881243856, 405.81323547910523, 405.9299021457719, 406.0465688124386, 406.16323547910525, 406.2799021457719, 406.3965688124386, 406.5132354791053, 406.62990214577195, 406.7465688124386, 406.8632354791053, 406.979902145772, 407.09656881243865, 407.2132354791053, 407.329902145772, 407.44656881243867, 407.56323547910534, 407.7965688124387]	2021_Feb_06_1313	59.88167302464765	1	1
27	68	FALSE	NA	v	['E', 'R', 'Y', 'C', 'P', 'A', 'T', 'W', 'M', 'Z', 'N', 'B', 'H', 'X', 'S', 'K']	[904, 1587, 2670, 829, 1456, 697, 1888, 2448, 1224, 2911, 1335, 760, 986, 4000, 1731, 1122]	14	Present	NA	NA	PRESENT	0.1319901943206787	409.78523111343384	411.7959671020508	413.07957005500793	413.4294579029083	415.9004380702973	4.10447096824646	[409.79262804985046, 409.9094159603119, 410.8938019275665, 411.0606780052185, 411.81116008758545, 411.9281871318817, 412.04487109184265, 412.1617670059204, 412.27853202819824, 412.3954129219055, 412.5121591091156, 412.62889409065247, 412.7458231449127, 412.862340927124, 412.97938108444214, 413.09599900245667, 413.21288108825684, 413.3295810222626, 413.44658303260803, 413.5631630420685, 413.68020606040955, 413.9004371166229]	[409.7965688124387, 409.91323547910537, 410.89623547910537, 411.06293547910536, 411.81293547910536, 411.92960214577204, 412.0462688124387, 412.1629354791054, 412.27960214577206, 412.39626881243873, 412.5129354791054, 412.6296021457721, 412.74626881243876, 412.86293547910543, 412.9796021457721, 413.0962688124388, 413.21293547910545, 413.3296021457721, 413.4462688124388, 413.5629354791055, 413.67960214577215, 413.9129354791055]	2021_Feb_06_1313	59.88167302464765	1	1
27	69	FALSE	NV	v	['Y', 'T', 'M', 'K', 'A', 'N', 'S', 'Z', 'P', 'X', 'G', 'C', 'W', 'U', 'V', 'J']	[2670, 1888, 1224, 1122, 697, 1335, 1731, 2911, 1456, 4000, 944, 829, 2448, 2059, 2245, 1029]	10	Present	NA	NA	PRESENT	0.1367039680480957	415.90832710266113	417.9121980667114	418.72903990745544	419.0793409347534	422.016804933548	4.104606866836548	[415.91572403907776, 416.0326449871063, 417.0173690319061, 417.1840190887451, 417.9345531463623, 418.0514371395111, 418.1681299209595, 418.2847731113434, 418.40191102027893, 418.5185339450836, 418.6353030204773, 418.75216698646545, 418.8689329624176, 418.9856300354004, 419.1025290489197, 419.21924901008606, 419.33601212501526, 419.45288705825806, 419.569482088089, 419.6865451335907, 419.803307056427, 420.016804933548]	[415.9129354791055, 416.0296021457722, 417.0126021457722, 417.17930214577217, 417.92930214577217, 418.04596881243884, 418.1626354791055, 418.2793021457722, 418.39596881243887, 418.51263547910554, 418.6293021457722, 418.7459688124389, 418.86263547910556, 418.97930214577224, 419.0959688124389, 419.2126354791056, 419.32930214577226, 419.44596881243893, 419.5626354791056, 419.6793021457723, 419.79596881243896, 420.0293021457723]	2021_Feb_06_1313	59.88167302464765	1	1
27	70	FALSE	NN	v	['M', 'T', 'U', 'S', 'V', 'R', 'C', 'N', 'Y', 'H', 'W', 'Z', 'A', 'G', 'E', 'B']	[1224, 1888, 2059, 1731, 2245, 1587, 829, 1335, 2670, 986, 2448, 2911, 697, 944, 904, 760]	14	Absent	NA	NA	ABSENT	0.16568493843078613	422.01477694511414	424.02852606773376	425.3120729923248	425.66246604919434	428.13317012786865	4.104644060134888	[422.0221951007843, 422.13886308670044, 423.12354612350464, 423.2902569770813, 424.05766701698303, 424.15771198272705, 424.2745180130005, 424.3912980556488, 424.5080680847168, 424.62481904029846, 424.7417371273041, 424.858430147171, 424.97518706321716, 425.09200501441956, 425.20893001556396, 425.32567596435547, 425.44247102737427, 425.5592701435089, 425.67621207237244, 425.79300808906555, 425.90982604026794, 426.1331720352173]	[422.0293021457723, 422.145968812439, 423.128968812439, 423.295668812439, 424.045668812439, 424.16233547910565, 424.2790021457723, 424.395668812439, 424.5123354791057, 424.62900214577235, 424.745668812439, 424.8623354791057, 424.97900214577237, 425.09566881243904, 425.2123354791057, 425.3290021457724, 425.44566881243907, 425.56233547910574, 425.6790021457724, 425.7956688124391, 425.91233547910576, 426.1456688124391]	2021_Feb_06_1313	59.88167302464765	1	1
27	71	FALSE	VA	v	['H', 'P', 'Y', 'V', 'U', 'K', 'M', 'A', 'T', 'surprise', 'N', 'G', 'X', 'Z', 'B', 'C']	[986, 1456, 2670, 2245, 2059, 1122, 1224, 697, 1888, 'stimAuditory/all_stimAuditory/114.wav', 1335, 944, 4000, 2911, 760, 829]	13	Present	NA	stimVisual/all_stimVisual/220.jpg	PRESENT	0.08274722099304199	428.138396024704	430.1450319290161	431.3119959831238	431.6619629859924	434.2495379447937	4.104506015777588	[428.1457941532135, 428.26202607154846, 429.2466230392456, 429.4133770465851, 430.16412591934204, 430.28106808662415, 430.3978669643402, 430.5145881175995, 430.63132405281067, 430.748095035553, 430.8649320602417, 430.9816451072693, 431.0986590385437, 431.23213505744934, 431.3322229385376, 431.4488379955292, 431.5657160282135, 431.68262100219727, 431.79927015304565, 431.916118144989, 432.0329201221466, 432.2495379447937]	[428.1456688124391, 428.2623354791058, 429.2453354791058, 429.4120354791058, 430.1620354791058, 430.27870214577246, 430.39536881243913, 430.5120354791058, 430.6287021457725, 430.74536881243915, 430.8620354791058, 430.9787021457725, 431.0953688124392, 431.21203547910585, 431.3287021457725, 431.4453688124392, 431.5620354791059, 431.67870214577255, 431.7953688124392, 431.9120354791059, 432.02870214577257, 432.2620354791059]	2021_Feb_06_1313	59.88167302464765	1	1
27	72	FALSE	NN	v	['R', 'H', 'S', 'Z', 'G', 'B', 'Y', 'J', 'M', 'W', 'U', 'A', 'V', 'E', 'K', 'T']	[1587, 986, 1731, 2911, 944, 760, 2670, 1029, 1224, 2448, 2059, 697, 2245, 904, 1122, 1888]	12	Absent	NA	NA	ABSENT	0.11969399452209473	434.26133704185486	436.2614059448242	437.31205892562866	437.6616199016571	440.365905046463	4.104499101638794	[434.2687339782715, 434.38555002212524, 435.3697190284729, 435.53659296035767, 436.287477016449, 436.40418100357056, 436.5208070278168, 436.63763308525085, 436.75467896461487, 436.8712501525879, 436.9880590438843, 437.1050660610199, 437.22174406051636, 437.3384311199188, 437.45549392700195, 437.5723400115967, 437.6889491081238, 437.8057219982147, 437.9227271080017, 438.03932213783264, 438.139475107193, 438.365905046463]	[434.2620354791059, 434.3787021457726, 435.3617021457726, 435.5284021457726, 436.2784021457726, 436.39506881243926, 436.51173547910594, 436.6284021457726, 436.7450688124393, 436.86173547910596, 436.97840214577263, 437.0950688124393, 437.211735479106, 437.32840214577266, 437.44506881243933, 437.561735479106, 437.6784021457727, 437.79506881243935, 437.911735479106, 438.0284021457727, 438.1450688124394, 438.3784021457727]	2021_Feb_06_1313	59.88167302464765	1	1
27	73	FALSE	NA	v	['J', 'E', 'S', 'Y', 'U', 'K', 'M', 'H', 'R', 'Z', 'T', 'X', 'W', 'A', 'B', 'C']	[1029, 904, 1731, 2670, 2059, 1122, 1224, 986, 1587, 2911, 1888, 4000, 2448, 697, 760, 829]	12	Present	NA	NA	PRESENT	0.11627602577209473	440.3678610324859	442.377641916275	443.42794704437256	443.7779700756073	446.48227095603943	4.104629039764404	[440.3752579689026, 440.49203300476074, 441.47625708580017, 441.6429889202118, 442.3938100337982, 442.51085805892944, 442.6274690628052, 442.74405908584595, 442.8609941005707, 442.9776711463928, 443.09461998939514, 443.2113699913025, 443.32820200920105, 443.4448981285095, 443.56194496154785, 443.67862200737, 443.7955391407013, 443.9121479988098, 444.0290970802307, 444.14572405815125, 444.2624650001526, 444.48227095603943]	[440.3784021457727, 440.4950688124394, 441.4780688124394, 441.6447688124394, 442.3947688124394, 442.51143547910607, 442.62810214577274, 442.7447688124394, 442.8614354791061, 442.97810214577277, 443.09476881243944, 443.2114354791061, 443.3281021457728, 443.44476881243946, 443.56143547910614, 443.6781021457728, 443.7947688124395, 443.91143547910616, 444.02810214577283, 444.1447688124395, 444.2614354791062, 444.49476881243953]	2021_Feb_06_1313	59.88167302464765	1	1
27	74	FALSE	NV	v	['M', 'J', 'K', 'N', 'H', 'R', 'S', 'V', 'P', 'U', 'A', 'X', 'W', 'B', 'Z', 'G']	[1224, 1029, 1122, 1335, 986, 1587, 1731, 2245, 1456, 2059, 697, 4000, 2448, 760, 2911, 944]	12	Present	NA	NA	PRESENT	0.09698820114135742	446.4908499717712	448.49395298957825	449.5444860458374	449.8943240642547	452.5986371040344	4.104684114456177	[446.49824595451355, 446.61513900756836, 447.5994191169739, 447.7662880420685, 448.5173411369324, 448.6339180469513, 448.75075912475586, 448.8674409389496, 448.9842550754547, 449.1009011268616, 449.21782207489014, 449.33463406562805, 449.451406955719, 449.56817603111267, 449.6850600242615, 449.80173206329346, 449.9185781478882, 450.0353810787201, 450.1522719860077, 450.2688879966736, 450.38575196266174, 450.59863805770874]	[446.49476881243953, 446.6114354791062, 447.5944354791062, 447.7611354791062, 448.5111354791062, 448.6278021457729, 448.74446881243955, 448.8611354791062, 448.9778021457729, 449.0944688124396, 449.21113547910625, 449.3278021457729, 449.4444688124396, 449.56113547910627, 449.67780214577294, 449.7944688124396, 449.9111354791063, 450.02780214577297, 450.14446881243964, 450.2611354791063, 450.377802145773, 450.61113547910634]	2021_Feb_06_1313	59.88167302464765	1	1
27	75	FALSE	NV	v	['S', 'J', 'M', 'P', 'N', 'W', 'U', 'X', 'K', 'C', 'V', 'Z', 'G', 'T', 'B', 'H']	[1731, 1029, 1224, 1456, 1335, 2448, 2059, 4000, 1122, 829, 2245, 2911, 944, 1888, 760, 986]	8	Present	NA	NA	PRESENT	0.17425107955932617	452.5972259044647	454.6104559898377	455.194051027298	455.5442340373993	458.7150039672851	4.10454797744751	[452.6046230792999, 452.72161293029785, 453.7059209346771, 453.87264800071716, 454.6401901245117, 454.74023604393005, 454.8571090698242, 454.97383093833923, 455.09078001976013, 455.207337141037, 455.32416892051697, 455.44098806381226, 455.5578200817108, 455.67476511001587, 455.7915549278259, 455.9081320762634, 456.0252001285553, 456.1417760848999, 456.2586200237274, 456.37528896331787, 456.49231815338135, 456.71500396728516]	[452.61113547910634, 452.727802145773, 453.710802145773, 453.877502145773, 454.627502145773, 454.7441688124397, 454.86083547910636, 454.97750214577303, 455.0941688124397, 455.2108354791064, 455.32750214577305, 455.4441688124397, 455.5608354791064, 455.6775021457731, 455.79416881243975, 455.9108354791064, 456.0275021457731, 456.1441688124398, 456.26083547910645, 456.3775021457731, 456.4941688124398, 456.72750214577314]	2021_Feb_06_1313	59.88167302464765	1	1
27	76	FALSE	NA	v	['G', 'H', 'W', 'N', 'V', 'A', 'K', 'S', 'J', 'C', 'R', 'X', 'P', 'E', 'B', 'U']	[944, 986, 2448, 1335, 2245, 697, 1122, 1731, 1029, 829, 1587, 4000, 1456, 904, 760, 2059]	12	Present	NA	NA	PRESENT	0.10684704780578612	458.72080993652344	460.7266969680786	461.77711296081543	462.12724900245667	464.83137106895447	4.1046741008758545	[458.7282090187073, 458.8448050022125, 459.8292450904846, 459.99589014053345, 460.7467601299286, 460.86352610588074, 460.98036193847656, 461.09709215164185, 461.21403408050537, 461.3306050300598, 461.4474711418152, 461.5641951560974, 461.6810231208801, 461.7978219985962, 461.9145350456238, 462.03151202201843, 462.1480360031128, 462.2649841308594, 462.3818860054016, 462.49851298332214, 462.6155209541321, 462.83137106895447]	[458.72750214577314, 458.8441688124398, 459.8271688124398, 459.9938688124398, 460.7438688124398, 460.8605354791065, 460.97720214577316, 461.09386881243984, 461.2105354791065, 461.3272021457732, 461.44386881243986, 461.56053547910653, 461.6772021457732, 461.7938688124399, 461.91053547910656, 462.02720214577323, 462.1438688124399, 462.2605354791066, 462.37720214577325, 462.4938688124399, 462.6105354791066, 462.84386881243995]	2021_Feb_06_1313	59.88167302464765	1	1
27	77	FALSE	NV	v	['C', 'R', 'K', 'M', 'V', 'T', 'Y', 'H', 'B', 'S', 'A', 'U', 'X', 'P', 'N', 'G']	[829, 1587, 1122, 1224, 2245, 1888, 2670, 986, 760, 1731, 697, 2059, 4000, 1456, 1335, 944]	13	Present	NA	NA	PRESENT	0.1359691619873047	464.843847990036	466.8432309627533	468.0106420516968	468.36013889312744	470.9477369785309	4.104506015777588	[464.85124611854553, 464.9678461551666, 465.9522910118103, 466.119243144989, 466.86999797821045, 466.986603975296, 467.1036219596863, 467.2201590538025, 467.3369491100311, 467.4541199207306, 467.570631980896, 467.68747115135193, 467.8042080402374, 467.9214611053467, 468.03793597221375, 468.15469312667847, 468.27134799957275, 468.388062953949, 468.50491213798523, 468.62186098098755, 468.7218749523163, 468.9477379322052]	[464.84386881243995, 464.9605354791066, 465.94353547910663, 466.1102354791066, 466.8602354791066, 466.9769021457733, 467.09356881243997, 467.21023547910664, 467.3269021457733, 467.44356881244, 467.56023547910667, 467.67690214577334, 467.79356881244, 467.9102354791067, 468.02690214577336, 468.14356881244004, 468.2602354791067, 468.3769021457734, 468.49356881244006, 468.61023547910673, 468.7269021457734, 468.96023547910676]	2021_Feb_06_1313	59.88167302464765	1	1
27	78	FALSE	VA	v	['B', 'Y', 'W', 'G', 'K', 'N', 'Z', 'surprise', 'R', 'P', 'X', 'A', 'S', 'M', 'T', 'E']	[760, 2670, 2448, 944, 1122, 1335, 2911, 'stimAuditory/all_stimAuditory/115.wav', 1587, 1456, 4000, 697, 1731, 1224, 1888, 904]	11	Present	NA	stimVisual/all_stimVisual/205.jpg	PRESENT	0.0767068862915039	470.9500279426574	472.9596230983734	473.8932011127472	474.2430341243744	477.0641050338745	4.104481935501099	[470.9574251174927, 471.074285030365, 472.05892610549927, 472.22559094429016, 472.9763629436493, 473.0932459831238, 473.21000695228577, 473.32676005363464, 473.44363498687744, 473.56040501594543, 473.6772429943085, 473.8106880187988, 473.91075897216797, 474.0273790359497, 474.14440298080444, 474.2609360218048, 474.3780109882355, 474.4946451187134, 474.6116120815277, 474.72828698158264, 474.8450860977173, 475.0641050338745]	[470.96023547910676, 471.07690214577343, 472.05990214577344, 472.2266021457734, 472.9766021457734, 473.0932688124401, 473.2099354791068, 473.32660214577345, 473.4432688124401, 473.5599354791068, 473.6766021457735, 473.79326881244015, 473.9099354791068, 474.0266021457735, 474.14326881244017, 474.25993547910684, 474.3766021457735, 474.4932688124402, 474.60993547910687, 474.72660214577354, 474.8432688124402, 475.07660214577356]	2021_Feb_06_1313	59.88167302464765	1	1
27	79	FALSE	NV	v	['Y', 'E', 'P', 'R', 'G', 'K', 'B', 'X', 'S', 'J', 'N', 'T', 'A', 'V', 'U', 'M']	[2670, 904, 1456, 1587, 944, 1122, 760, 4000, 1731, 1029, 1335, 1888, 697, 2245, 2059, 1224]	8	Present	NA	NA	PRESENT	0.1141519546508789	477.07351207733154	479.0758900642395	479.6597089767456	480.0096390247345	483.1804709434509	4.104580879211426	[477.0809099674225, 477.1976640224457, 478.18232107162476, 478.34888195991516, 479.09949111938477, 479.21650314331055, 479.33327198028564, 479.4499261379242, 479.5666170120239, 479.68357515335083, 479.8004491329193, 479.9171550273895, 480.03394198417664, 480.1506390571594, 480.2675621509552, 480.38425493240356, 480.50111508369446, 480.61768102645874, 480.73450994491577, 480.85156893730164, 480.9682641029358, 481.1804699897766]	[477.07660214577356, 477.19326881244024, 478.17626881244024, 478.34296881244023, 479.09296881244023, 479.2096354791069, 479.3263021457736, 479.44296881244026, 479.55963547910693, 479.6763021457736, 479.7929688124403, 479.90963547910695, 480.0263021457736, 480.1429688124403, 480.259635479107, 480.37630214577365, 480.4929688124403, 480.609635479107, 480.7263021457737, 480.84296881244035, 480.959635479107, 481.19296881244037]	2021_Feb_06_1313	59.88167302464765	1	1
