participant	trial_num	practice	task	condition	RSVP	RAP	probePos	probe_presence	surprise_sound	surprise_img	probe_response	probe_resp_time	first_fixation_time	trial_start_time	surprise_start_time	probe_start_time	trial_end_time	trial_duration	actualEventTimes	plannedEventTimes	date	framerate	marker_vol	RAP_vol
25	1	FALSE	NV	a	['Y', 'W', 'B', 'G', 'A', 'U', 'K', 'Z', 'M', 'V', 'X', 'R', 'E', 'C', 'P', 'N']	[2670, 2448, 760, 944, 697, 2059, 1122, 2911, 1224, 2245, 4000, 1587, 904, 829, 1456, 1335]	11	Present	NA	NA	PRESENT	0.05124592781066894	1.9073486328125e-6	1.9907350540161133	2.9240781624578567	3.274080308205068	6.1038689613342285	4.113133907318115	[0.019276142120361328, 0.11950802803039551, 1.0871880054473877, 1.2705111503601074, 2.021602153778076, 2.1381421089172363, 2.255078077316284, 2.3717849254608154, 2.488798141479492, 2.6052980422973633, 2.722407102584839, 2.839000940322876, 2.9557371139526367, 3.072580099105835, 3.189399003982544, 3.3061599731445312, 3.4229769706726074, 3.539731979370117, 3.6563260555267334, 3.7732880115509033, 3.89001202583313, 4.103868007659912]	[9.5367431640625e-07, 0.11666762033431641, 1.0996676203343163, 1.2663676203343164, 2.016367620334316, 2.133034286994316, 2.249700953654316, 2.3663676203143162, 2.4830342869743163, 2.5997009536343163, 2.7163676202943163, 2.8330342869543164, 2.9497009536143164, 3.0663676202743164, 3.1830342869343164, 3.2997009535943165, 3.4163676202543165, 3.5330342869143165, 3.6497009535743166, 3.7663676202343166, 3.8830342868943166, 4.11636762022765]	2021_Feb_05_1123	60.00349065106365	1	0.375
25	2	FALSE	NN	a	['P', 'G', 'A', 'U', 'T', 'B', 'S', 'Y', 'V', 'C', 'N', 'K', 'J', 'H', 'R', 'W']	[1456, 944, 697, 2059, 1888, 760, 1731, 2670, 2245, 829, 1335, 1122, 1029, 986, 1587, 2448]	8	Absent	NA	NA	ABSENT	0.19229483604431152	6.106981039047241	8.103723049163818	8.68706425027693	9.03706639602414	12.22023606300354	4.116513013839722	[6.126255989074707, 6.225732088088989, 7.203557014465332, 7.377090930938721, 8.12771201133728, 8.244734048843384, 8.361382007598877, 8.478393077850342, 8.594963073730469, 8.711863040924072, 8.82878303527832, 8.945456981658936, 9.06217098236084, 9.179117918014526, 9.295725107192993, 9.412611961364746, 9.529387950897217, 9.64622712135315, 9.762882947921753, 9.87979006767273, 9.996644020080566, 10.220237016677856]	[6.11636762022765, 6.23303428688765, 7.216034286887649, 7.382734286887649, 8.132734286887649, 8.24940095354765, 8.36606762020765, 8.48273428686765, 8.59940095352765, 8.716067620187651, 8.832734286847652, 8.949400953507652, 9.066067620167653, 9.182734286827653, 9.299400953487654, 9.416067620147654, 9.532734286807655, 9.649400953467655, 9.766067620127656, 9.882734286787656, 9.999400953447656, 10.232734286780989]	2021_Feb_05_1123	60.00349065106365	1	0.375
25	3	FALSE	NV	a	['N', 'S', 'E', 'U', 'B', 'P', 'R', 'Z', 'X', 'H', 'Y', 'C', 'T', 'A', 'M', 'K']	[1335, 1731, 904, 2059, 760, 1456, 1587, 2911, 4000, 986, 2670, 829, 1888, 697, 1224, 1122]	9	Present	NA	NA	PRESENT	0.28493499755859375	12.213100910186768	14.220155000686646	14.920162868459755	15.270165967881285	18.336601972579956	4.1164469718933105	[12.232375144958496, 12.3491370677948, 13.31992506980896, 13.50045108795166, 14.251107931137085, 14.367967128753662, 14.484679937362671, 14.601539134979248, 14.718285083770752, 14.835020065307617, 14.95176911354065, 15.068694114685059, 15.185467958450317, 15.302367925643921, 15.41918396949768, 15.535944938659668, 15.652801990509033, 15.769257068634033, 15.88658595085144, 16.00289011001587, 16.11983895301819, 16.336602926254272]	[12.232734286780989, 12.34940095344099, 13.33240095344099, 13.49910095344099, 14.24910095344099, 14.365767620100991, 14.482434286760991, 14.599100953420992, 14.715767620080992, 14.832434286740993, 14.949100953400993, 15.065767620060994, 15.182434286720994, 15.299100953380995, 15.415767620040995, 15.532434286700996, 15.649100953360996, 15.765767620020997, 15.882434286680997, 15.999100953340998, 16.115767620000998, 16.349100953334332]	2021_Feb_05_1123	60.00349065106365	1	0.375
25	4	FALSE	NA	a	['R', 'U', 'P', 'A', 'S', 'G', 'K', 'E', 'X', 'M', 'H', 'Y', 'V', 'B', 'W', 'Z']	[1587, 2059, 1456, 697, 1731, 944, 1122, 904, 4000, 1224, 986, 2670, 2245, 760, 2448, 2911]	9	Present	NA	NA	PRESENT	0.0741889476776123	18.33616805076599	20.336261987686157	21.036269855459267	21.38627200120648	24.452969074249268	4.11670708656311	[18.35544204711914, 18.47234797477722, 19.436291933059692, 19.623575925827026, 20.374475955963135, 20.47428607940674, 20.59113097190857, 20.70783495903015, 20.824662923812866, 20.94143795967102, 21.05829906463623, 21.1750431060791, 21.29185914993286, 21.40867304801941, 21.525504112243652, 21.64230513572693, 21.759148120880127, 21.87589406967163, 21.9925320148468, 22.109333038330078, 22.22624397277832, 22.452969074249268]	[18.349100953334332, 18.46576761999433, 19.44876761999433, 19.61546761999433, 20.36546761999433, 20.48213428665433, 20.598800953314328, 20.715467619974326, 20.832134286634325, 20.948800953294324, 21.065467619954322, 21.18213428661432, 21.29880095327432, 21.41546761993432, 21.532134286594317, 21.648800953254316, 21.765467619914315, 21.882134286574313, 21.998800953234312, 22.11546761989431, 22.23213428655431, 22.465467619887644]	2021_Feb_05_1123	60.00349065106365	1	0.375
25	5	FALSE	VA	a	['C', 'Y', 'V', 'Z', 'N', 'K', 'S', 'P', 'R', 'W', 'surprise', 'E', 'A', 'X', 'T', 'B']	[829, 2670, 2245, 2911, 1335, 1122, 1731, 1456, 1587, 2448, 'stimAuditory/all_stimAuditory/207.wav', 904, 697, 4000, 1888, 760]	14	Present	NA	NA	PRESENT	0.1988070011138916	24.442795991897583	26.45279002189636	27.736130269295156	28.08613217662379	30.5693359375	4.116545915603638	[24.462069034576416, 24.57881498336792, 25.552658081054688, 25.73014998435974, 26.481073141098022, 26.597620010375977, 26.714375019073486, 26.83100700378418, 26.94793200492859, 27.064640045166016, 27.18153715133667, 27.298267126083374, 27.41500997543335, 27.531813144683838, 27.648625135421753, 27.765573978424072, 27.882236003875732, 27.99919295310974, 28.115890979766846, 28.232720136642456, 28.34949803352356, 28.569337129592896]	[24.465467619887644, 24.582134286547642, 25.565134286547643, 25.73183428654764, 26.48183428654764, 26.59850095320764, 26.71516761986764, 26.831834286527638, 26.948500953187636, 27.065167619847635, 27.181834286507634, 27.298500953167633, 27.41516761982763, 27.53183428648763, 27.64850095314763, 27.765167619807627, 27.881834286467626, 27.998500953127625, 28.115167619787623, 28.231834286447622, 28.34850095310762, 28.581834286440955]	2021_Feb_05_1123	60.00349065106365	1	0.375
25	6	FALSE	NV	a	['N', 'R', 'S', 'G', 'W', 'B', 'M', 'Y', 'U', 'T', 'V', 'C', 'X', 'E', 'J', 'K']	[1335, 1587, 1731, 944, 2448, 760, 1224, 2670, 2059, 1888, 2245, 829, 4000, 904, 1029, 1122]	13	Present	NA	NA	PRESENT	0.21921086311340332	30.56591796875	32.56902599334717	33.735701719853175	34.08570362718181	36.685702085494995	4.116676092147827	[30.585192918777466, 30.701868057250977, 31.669023990631104, 31.85313105583191, 32.60394906997681, 32.720701932907104, 32.837554931640625, 32.95453596115112, 33.07131314277649, 33.18790912628174, 33.304636001586914, 33.42143797874451, 33.538419008255005, 33.65505504608154, 33.77210998535156, 33.888612031936646, 34.00561809539795, 34.12234306335449, 34.23935794830322, 34.35580492019653, 34.47254204750061, 34.685702085494995]	[30.581834286440955, 30.698500953100954, 31.681500953100954, 31.848200953100953, 32.59820095310096, 32.71486761976096, 32.83153428642096, 32.94820095308096, 33.064867619740966, 33.18153428640097, 33.29820095306097, 33.41486761972097, 33.531534286380975, 33.64820095304098, 33.76486761970098, 33.88153428636098, 33.998200953020984, 34.114867619680986, 34.23153428634099, 34.34820095300099, 34.46486761966099, 34.69820095299433]	2021_Feb_05_1123	60.00349065106365	1	0.375
25	7	FALSE	NN	a	['V', 'N', 'H', 'P', 'Z', 'C', 'K', 'B', 'A', 'U', 'M', 'R', 'S', 'G', 'Y', 'J']	[2245, 1335, 986, 1456, 2911, 829, 1122, 760, 697, 2059, 1224, 1587, 1731, 944, 2670, 1029]	9	Absent	NA	NA	ABSENT	0.03251194953918457	36.6725709438324	38.68561005592346	39.38563389774137	39.73563485139569	42.80207014083862	4.116460084915161	[36.69184494018555, 36.80841898918152, 37.785393953323364, 37.95978498458862, 38.71040201187134, 38.82715201377869, 38.94408392906189, 39.06078100204468, 39.17765402793884, 39.294646978378296, 39.411160945892334, 39.52795696258545, 39.6450879573822, 39.76170301437378, 39.87850904464722, 39.99514412879944, 40.11200714111328, 40.22878694534302, 40.34558606147766, 40.46227693557739, 40.579241037368774, 40.80209398269653]	[36.69820095299433, 36.81486761965433, 37.797867619654326, 37.964567619654325, 38.714567619654325, 38.83123428631433, 38.94790095297433, 39.06456761963433, 39.181234286294334, 39.297900952954336, 39.41456761961434, 39.53123428627434, 39.64790095293434, 39.764567619594345, 39.88123428625435, 39.99790095291435, 40.11456761957435, 40.231234286234354, 40.347900952894356, 40.46456761955436, 40.58123428621436, 40.814567619547695]	2021_Feb_05_1123	60.00349065106365	1	0.375
25	8	FALSE	NA	a	['S', 'W', 'Y', 'H', 'E', 'V', 'P', 'K', 'Z', 'B', 'J', 'X', 'A', 'T', 'G', 'R']	[1731, 2448, 2670, 986, 904, 2245, 1456, 1122, 2911, 760, 1029, 4000, 697, 1888, 944, 1587]	12	Present	NA	NA	PRESENT	0.02927494049072265	42.79543495178223	44.80195593833923	45.85196404451092	46.20196690551387	48.918437004089355	4.116481065750122	[42.814708948135376, 42.93178701400757, 43.90176200866699, 44.083106994628906, 44.833683013916016, 44.95039200782776, 45.06741905212402, 45.184245109558105, 45.30104994773865, 45.417596101760864, 45.53457498550415, 45.65116906166077, 45.76828598976135, 45.88524508476257, 46.00178503990173, 46.118595123291016, 46.23537611961365, 46.351962089538574, 46.46878910064697, 46.5858211517334, 46.702439069747925, 46.918437004089355]	[42.814567619547695, 42.9312342862077, 43.914234286207694, 44.08093428620769, 44.83093428620769, 44.947600952867695, 45.0642676195277, 45.1809342861877, 45.2976009528477, 45.414267619507704, 45.53093428616771, 45.64760095282771, 45.76426761948771, 45.88093428614771, 45.997600952807716, 46.11426761946772, 46.23093428612772, 46.34760095278772, 46.464267619447725, 46.58093428610773, 46.69760095276773, 46.93093428610106]	2021_Feb_05_1123	60.00349065106365	1	0.375
25	9	FALSE	NV	a	['T', 'W', 'N', 'C', 'J', 'G', 'S', 'X', 'H', 'R', 'E', 'U', 'K', 'P', 'A', 'V']	[1888, 2448, 1335, 829, 1029, 944, 1731, 4000, 986, 1587, 904, 2059, 1122, 1456, 697, 2245]	8	Present	NA	NA	PRESENT	0.01084399223327636	48.918951988220215	50.91833686828613	51.501679261492136	51.85168116882077	55.03480315208435	4.116466283798218	[48.938225984573364, 49.0549840927124, 50.01812410354614, 50.206058979034424, 50.95697999000549, 51.056883096694946, 51.17367506027222, 51.29048800468445, 51.40735697746277, 51.52410912513733, 51.64089393615723, 51.757941007614136, 51.87447905540466, 51.9911949634552, 52.10816812515259, 52.22502303123474, 52.34172797203064, 52.458614110946655, 52.575276136398315, 52.692238092422485, 52.80897402763367, 53.03480315208435]	[48.93093428610106, 49.047600952761066, 50.03060095276106, 50.19730095276106, 50.94730095276106, 51.063967619421064, 51.180634286081066, 51.29730095274107, 51.41396761940107, 51.53063428606107, 51.647300952721075, 51.76396761938108, 51.88063428604108, 51.99730095270108, 52.113967619361084, 52.230634286021086, 52.34730095268109, 52.46396761934109, 52.58063428600109, 52.697300952661095, 52.8139676193211, 53.04730095265443]	2021_Feb_05_1123	60.00349065106365	1	0.375
25	10	FALSE	NA	a	['J', 'A', 'V', 'N', 'W', 'E', 'P', 'T', 'R', 'C', 'H', 'S', 'X', 'K', 'M', 'U']	[1029, 697, 2245, 1335, 2448, 904, 1456, 1888, 1587, 829, 986, 1731, 4000, 1122, 1224, 2059]	13	Present	NA	NA	PRESENT	1.5031077861785889	55.02543091773987	57.034294843673706	58.20097057017971	58.550972715926925	61.15116906166077	4.1168742179870605	[55.0447051525116, 55.16159415245056, 56.13449192047119, 56.31299710273743, 57.063353061676025, 57.180318117141724, 57.29704308509827, 57.413954973220825, 57.530646085739136, 57.64746403694153, 57.764238119125366, 57.8810670375824, 57.99774503707886, 58.11447811126709, 58.231449127197266, 58.348089933395386, 58.46508598327637, 58.581671953201294, 58.698725938797, 58.81536412239075, 58.93226194381714, 59.15117001533508]	[55.04730095265443, 55.163967619314434, 56.14696761931443, 56.31366761931443, 57.06366761931443, 57.18033428597443, 57.297000952634434, 57.413667619294436, 57.53033428595444, 57.64700095261444, 57.76366761927444, 57.880334285934445, 57.99700095259445, 58.11366761925445, 58.23033428591445, 58.347000952574454, 58.46366761923446, 58.58033428589446, 58.69700095255446, 58.81366761921446, 58.930334285874466, 59.1636676192078]	2021_Feb_05_1123	60.00349065106365	1	0.375
25	11	FALSE	NA	a	['T', 'C', 'S', 'A', 'M', 'V', 'Y', 'R', 'U', 'K', 'Z', 'X', 'N', 'H', 'J', 'W']	[1888, 829, 1731, 697, 1224, 2245, 2670, 1587, 2059, 1122, 2911, 4000, 1335, 986, 1029, 2448]	12	Present	NA	NA	PRESENT	0.2117249965667725	61.148486852645874	63.15105891227722	64.20106797212323	64.55107083312618	67.2675359249115	4.116477012634277	[61.1677610874176, 61.28462815284729, 62.25086212158203, 62.43587398529053, 63.18663501739502, 63.303290128707886, 63.42024803161621, 63.53693604469299, 63.6537561416626, 63.77050805091858, 63.887333154678345, 64.00418210029602, 64.12090611457825, 64.23800706863403, 64.35446214675903, 64.47125506401062, 64.58827710151672, 64.70487594604492, 64.82166910171509, 64.93857097625732, 65.05544114112854, 65.2675371170044]	[61.1636676192078, 61.2803342858678, 62.2633342858678, 62.4300342858678, 63.1800342858678, 63.2967009525278, 63.4133676191878, 63.530034285847805, 63.64670095250781, 63.76336761916781, 63.88003428582781, 63.996700952487814, 64.11336761914781, 64.2300342858078, 64.3467009524678, 64.4633676191278, 64.58003428578779, 64.69670095244778, 64.81336761910778, 64.93003428576777, 65.04670095242777, 65.2800342857611]	2021_Feb_05_1123	60.00349065106365	1	0.375
25	12	FALSE	NN	a	['Y', 'Z', 'S', 'T', 'R', 'G', 'P', 'A', 'V', 'N', 'C', 'B', 'W', 'J', 'K', 'U']	[2670, 2911, 1731, 1888, 1587, 944, 1456, 697, 2245, 1335, 829, 760, 2448, 1029, 1122, 2059]	11	Absent	NA	NA	ABSENT	0.4729430675506592	67.2552740573883	69.26735496520996	70.20069616630308	70.55069831205029	73.38390302658081	4.11654806137085	[67.27454805374146, 67.39101314544678, 68.36722493171692, 68.54248905181885, 69.29313707351685, 69.4100410938263, 69.52684712409973, 69.64357399940491, 69.76019310951233, 69.8771619796753, 69.99385714530945, 70.1108889579773, 70.2274661064148, 70.34444212913513, 70.46124601364136, 70.57779812812805, 70.6947729587555, 70.811448097229, 70.92833995819092, 71.04492807388306, 71.16205501556396, 71.38390302658081]	[67.2800342857611, 67.3967009524211, 68.3797009524211, 68.54640095242111, 69.29640095242111, 69.4130676190811, 69.5297342857411, 69.6464009524011, 69.76306761906109, 69.87973428572109, 69.99640095238108, 70.11306761904108, 70.22973428570107, 70.34640095236107, 70.46306761902106, 70.57973428568106, 70.69640095234105, 70.81306761900105, 70.92973428566104, 71.04640095232104, 71.16306761898103, 71.39640095231437]	2021_Feb_05_1123	60.00349065106365	1	0.375
25	13	FALSE	NN	a	['E', 'P', 'A', 'N', 'S', 'T', 'W', 'K', 'B', 'J', 'U', 'V', 'Y', 'R', 'C', 'Z']	[904, 1456, 697, 1335, 1731, 1888, 2448, 1122, 760, 1029, 2059, 2245, 2670, 1587, 829, 2911]	12	Absent	NA	NA	ABSENT	0.18925714492797852	73.37820506095886	75.3835768699646	76.43358497613629	76.78358688346492	79.50027012825012	4.1166932582855225	[73.39747905731201, 73.51442694664001, 74.48359107971191, 74.66548299789429, 75.4164469242096, 75.53327202796936, 75.64985013008118, 75.76685500144958, 75.88361692428589, 76.0002110004425, 76.11698412895203, 76.23398113250732, 76.35096597671509, 76.46756505966187, 76.58441400527954, 76.7010281085968, 76.81775403022766, 76.9350790977478, 77.05145406723022, 77.16817092895508, 77.28501796722412, 77.50027012825012]	[73.39640095231437, 73.51306761897436, 74.49606761897437, 74.66276761897437, 75.41276761897437, 75.52943428563437, 75.64610095229436, 75.76276761895436, 75.87943428561435, 75.99610095227435, 76.11276761893434, 76.22943428559434, 76.34610095225433, 76.46276761891433, 76.57943428557432, 76.69610095223432, 76.81276761889431, 76.92943428555431, 77.0461009522143, 77.1627676188743, 77.2794342855343, 77.51276761886763]	2021_Feb_05_1123	60.00349065106365	1	0.375
25	14	FALSE	NV	a	['M', 'T', 'B', 'E', 'J', 'K', 'N', 'W', 'G', 'H', 'C', 'P', 'X', 'V', 'S', 'Y']	[1224, 1888, 760, 904, 1029, 1122, 1335, 2448, 944, 986, 829, 1456, 4000, 2245, 1731, 2670]	13	Present	NA	NA	PRESENT	0.07486677169799805	79.50159192085266	81.4998688697815	82.6665445962875	83.01654650361613	85.61663699150085	4.11676812171936	[79.52086591720581, 79.63766098022461, 80.59996104240417, 80.77205204963684, 81.53970003128052, 81.63966107368469, 81.75638794898987, 81.87310314178467, 81.98994994163513, 82.106938123703, 82.22355699539185, 82.34036207199097, 82.45723509788513, 82.5741560459137, 82.69085812568665, 82.80749106407166, 82.92430400848389, 83.04124307632446, 83.15804696083069, 83.27470898628235, 83.39164113998413, 83.61663699150085]	[79.51276761886763, 79.62943428552762, 80.61243428552763, 80.77913428552763, 81.52913428552763, 81.64580095218763, 81.76246761884762, 81.87913428550762, 81.99580095216761, 82.11246761882761, 82.2291342854876, 82.3458009521476, 82.4624676188076, 82.57913428546759, 82.69580095212758, 82.81246761878758, 82.92913428544757, 83.04580095210757, 83.16246761876756, 83.27913428542756, 83.39580095208755, 83.62913428542089]	2021_Feb_05_1123	60.00349065106365	1	0.375
25	15	FALSE	AA	a	['U', 'A', 'B', 'W', 'J', 'R', 'N', 'T', 'Y', 'K', 'surprise', 'G', 'H', 'X', 'C', 'M']	[2059, 697, 760, 2448, 1029, 1587, 1335, 1888, 2670, 1122, 'stimAuditory/all_stimAuditory/121.wav', 944, 986, 4000, 829, 1224]	14	Present	stimAuditory/all_stimAuditory/207.wav	NA	PRESENT	0.47130393981933594	85.60790491104126	87.61640191078186	88.89974430394787	89.2497462112765	91.73300194740295	4.116600036621094	[85.62717914581299, 85.74425792694092, 86.71632409095764, 86.89555501937866, 87.64607810974121, 87.76279211044312, 87.87976098060608, 87.99632096290588, 88.11323809623718, 88.23010802268982, 88.3469500541687, 88.46357703208923, 88.58042001724243, 88.69728899002075, 88.81408095359802, 88.93072199821472, 89.04773211479187, 89.16425704956055, 89.28123211860657, 89.39796304702759, 89.51501607894897, 89.73300194740295]	[85.62913428542089, 85.74580095208088, 86.72880095208089, 86.8955009520809, 87.6455009520809, 87.76216761874089, 87.87883428540088, 87.99550095206088, 88.11216761872087, 88.22883428538087, 88.34550095204087, 88.46216761870086, 88.57883428536086, 88.69550095202085, 88.81216761868085, 88.92883428534084, 89.04550095200084, 89.16216761866083, 89.27883428532083, 89.39550095198082, 89.51216761864082, 89.74550095197415]	2021_Feb_05_1123	60.00349065106365	1	0.375
25	16	FALSE	NA	a	['M', 'W', 'V', 'E', 'H', 'G', 'A', 'K', 'N', 'P', 'T', 'X', 'S', 'C', 'B', 'R']	[1224, 2448, 2245, 904, 986, 944, 697, 1122, 1335, 1456, 1888, 4000, 1731, 829, 760, 1587]	12	Present	NA	NA	PRESENT	0.04464888572692871	91.73129200935364	93.73290085792542	94.78290991777142	95.13291206351865	97.84937000274658	4.116469144821167	[91.7505669593811, 91.86749505996704, 92.8326940536499, 93.01860499382019, 93.76929712295532, 93.88615608215332, 94.003103017807, 94.11966609954834, 94.23648405075073, 94.35335397720337, 94.47000312805176, 94.58689308166504, 94.70349097251892, 94.82039093971252, 94.93740010261536, 95.03723311424255, 95.15403199195862, 95.27079510688782, 95.38756513595581, 95.50435900688171, 95.62120509147644, 95.84937000274658]	[91.74550095197415, 91.86216761863415, 92.84516761863415, 93.01186761863416, 93.76186761863416, 93.87853428529415, 93.99520095195415, 94.11186761861414, 94.22853428527414, 94.34520095193413, 94.46186761859413, 94.57853428525412, 94.69520095191412, 94.81186761857411, 94.92853428523411, 95.0452009518941, 95.1618676185541, 95.27853428521409, 95.39520095187409, 95.51186761853408, 95.62853428519408, 95.86186761852741]	2021_Feb_05_1123	60.00349065106365	1	0.375
25	17	FALSE	NA	a	['Y', 'B', 'J', 'C', 'E', 'W', 'H', 'X', 'N', 'K', 'Z', 'P', 'S', 'A', 'T', 'M']	[2670, 760, 1029, 829, 904, 2448, 986, 4000, 1335, 1122, 2911, 1456, 1731, 697, 1888, 1224]	8	Present	NA	NA	PRESENT	0.2170960903167725	97.83793997764587	99.8489899635315	100.4323311646446	100.78233426406614	103.96573615074158	4.116746187210083	[97.85721397399902, 97.97392392158508, 98.94906115531921, 99.12504696846008, 99.8757791519165, 99.99272298812866, 100.10951209068298, 100.22636604309082, 100.34302306175232, 100.4596631526947, 100.57669496536255, 100.69331502914429, 100.81032204627991, 100.92683696746826, 101.04366993904114, 101.16070008277893, 101.27733612060547, 101.39401912689209, 101.51099705696106, 101.62759900093079, 101.74447298049927, 101.96573615074158]	[97.86186761852741, 97.97853428518741, 98.96153428518741, 99.12823428518742, 99.87823428518742, 99.99490095184741, 100.11156761850741, 100.2282342851674, 100.3449009518274, 100.4615676184874, 100.57823428514739, 100.69490095180738, 100.81156761846738, 100.92823428512737, 101.04490095178737, 101.16156761844736, 101.27823428510736, 101.39490095176735, 101.51156761842735, 101.62823428508734, 101.74490095174734, 101.97823428508067]	2021_Feb_05_1123	60.00349065106365	1	0.375
25	18	FALSE	NV	a	['G', 'Z', 'T', 'R', 'W', 'J', 'K', 'M', 'X', 'E', 'H', 'N', 'U', 'C', 'P', 'Y']	[944, 2911, 1888, 1587, 2448, 1029, 1122, 1224, 4000, 904, 986, 1335, 2059, 829, 1456, 2670]	9	Present	NA	NA	PRESENT	0.06167197227478027	103.96100091934204	105.96553492546082	106.6655418395596	107.01554398530682	110.08210301399232	4.116568088531494	[103.98028707504272, 104.09696412086487, 105.06542706489563, 105.24826312065125, 105.99907898902893, 106.11580896377563, 106.23278093338013, 106.34940314292908, 106.46631097793579, 106.58291697502136, 106.69981002807617, 106.8164291381836, 106.93345594406128, 107.0502700805664, 107.16699004173279, 107.28355503082275, 107.40059208869934, 107.51740312576294, 107.63423609733582, 107.75089192390442, 107.86804795265198, 108.082102060318]	[103.97823428508067, 104.09490095174067, 105.07790095174067, 105.24460095174068, 105.99460095174068, 106.11126761840067, 106.22793428506067, 106.34460095172066, 106.46126761838066, 106.57793428504066, 106.69460095170065, 106.81126761836065, 106.92793428502064, 107.04460095168064, 107.16126761834063, 107.27793428500063, 107.39460095166062, 107.51126761832062, 107.62793428498061, 107.7446009516406, 107.8612676183006, 108.09460095163394]	2021_Feb_05_1123	60.00349065106365	1	0.375
25	19	FALSE	NA	a	['K', 'N', 'P', 'B', 'G', 'V', 'M', 'S', 'X', 'E', 'A', 'U', 'T', 'J', 'C', 'R']	[1122, 1335, 1456, 760, 944, 2245, 1224, 1731, 4000, 904, 697, 2059, 1888, 1029, 829, 1587]	9	Present	NA	NA	PRESENT	0.04287481307983398	110.08424806594849	112.08171606063844	112.78172392841154	113.13172583574016	116.19846892356873	4.116752862930298	[110.10352206230164, 110.2034170627594, 111.18179392814636, 111.35462594032288, 112.10544514656067, 112.22245907783508, 112.33922100067139, 112.45581293106079, 112.57281804084778, 112.68954300880432, 112.80627393722534, 112.92311596870422, 113.03983402252197, 113.15674710273743, 113.27336406707764, 113.39015197753906, 113.50708198547363, 113.6237940788269, 113.74072003364563, 113.85739612579346, 113.97438192367554, 114.19846892356873]	[110.09460095163394, 110.21126761829393, 111.19426761829394, 111.36096761829394, 112.11096761829394, 112.22763428495394, 112.34430095161393, 112.46096761827393, 112.57763428493392, 112.69430095159392, 112.81096761825391, 112.9276342849139, 113.0443009515739, 113.1609676182339, 113.27763428489389, 113.39430095155389, 113.51096761821388, 113.62763428487388, 113.74430095153387, 113.86096761819387, 113.97763428485386, 114.2109676181872]	2021_Feb_05_1123	60.00349065106365	1	0.375
25	20	FALSE	NA	a	['K', 'T', 'C', 'B', 'H', 'U', 'W', 'A', 'E', 'X', 'J', 'N', 'S', 'P', 'M', 'G']	[1122, 1888, 829, 760, 986, 2059, 2448, 697, 904, 4000, 1029, 1335, 1731, 1456, 1224, 944]	10	Present	NA	NA	PRESENT	0.04752206802368164	116.19077396392822	118.1983859539032	119.015059534662	119.3650616804092	122.31483602523804	4.116450071334839	[116.21004796028137, 116.32661700248718, 117.2981641292572, 117.4779839515686, 118.22903800010681, 118.34559202194214, 118.46239995956421, 118.57918810844421, 118.6958601474762, 118.81285905838013, 118.92958092689514, 119.04615712165833, 119.16314792633057, 119.28001809120178, 119.39676403999329, 119.51348304748535, 119.6303129196167, 119.74693703651428, 119.8639030456543, 119.980642080307, 120.09749007225037, 120.31483602523804]	[116.2109676181872, 116.32763428484719, 117.3106342848472, 117.4773342848472, 118.2273342848472, 118.3440009515072, 118.4606676181672, 118.57733428482719, 118.69400095148718, 118.81066761814718, 118.92733428480717, 119.04400095146717, 119.16066761812716, 119.27733428478716, 119.39400095144715, 119.51066761810715, 119.62733428476714, 119.74400095142714, 119.86066761808713, 119.97733428474713, 120.09400095140712, 120.32733428474046]	2021_Feb_05_1123	60.00349065106365	1	0.375
25	21	FALSE	NA	a	['A', 'Y', 'K', 'V', 'S', 'M', 'G', 'C', 'T', 'J', 'N', 'X', 'W', 'E', 'U', 'H']	[697, 2670, 1122, 2245, 1731, 1224, 944, 829, 1888, 1029, 1335, 4000, 2448, 904, 2059, 986]	12	Present	NA	NA	PRESENT	0.06081104278564453	122.31399393081664	124.31467700004578	125.36468605989178	125.7146879672204	128.43120312690735	4.116526126861572	[122.3332679271698, 122.45009708404541, 123.41452813148499, 123.60102891921997, 124.35202598571777, 124.46865200996399, 124.58549904823303, 124.70225501060486, 124.81930208206177, 124.91920304298401, 125.0359001159668, 125.15271496772766, 125.26950192451477, 125.38626408576965, 125.50308299064636, 125.6198980808258, 125.7366840839386, 125.85350108146667, 125.97028803825378, 126.0870909690857, 126.20394706726074, 126.43120193481445]	[122.32733428474046, 122.44400095140045, 123.42700095140046, 123.59370095140046, 124.34370095140046, 124.46036761806046, 124.57703428472045, 124.69370095138045, 124.81036761804044, 124.92703428470044, 125.04370095136044, 125.16036761802043, 125.27703428468043, 125.39370095134042, 125.51036761800042, 125.62703428466041, 125.7437009513204, 125.8603676179804, 125.9770342846404, 126.09370095130039, 126.21036761796039, 126.44370095129372]	2021_Feb_05_1123	60.00349065106365	1	0.375
25	22	FALSE	NN	a	['M', 'K', 'R', 'P', 'U', 'T', 'Y', 'S', 'G', 'Z', 'W', 'J', 'A', 'V', 'C', 'E']	[1224, 1122, 1587, 1456, 2059, 1888, 2670, 1731, 944, 2911, 2448, 1029, 697, 2245, 829, 904]	11	Absent	NA	NA	ABSENT	0.5853979587554932	128.42075896263125	130.43107795715332	131.364419396665	131.71442130399365	134.54756903648376	4.116491079330444	[128.44003295898438, 128.55644011497498, 129.5308940410614, 129.70763993263245, 130.45844912528992, 130.57543015480042, 130.69208812713623, 130.80876898765564, 130.92570114135742, 131.04258608818054, 131.15936493873596, 131.2760910987854, 131.39288902282715, 131.50952005386353, 131.6264669895172, 131.74312496185303, 131.860032081604, 131.97689294815063, 132.0935800075531, 132.2103099822998, 132.3270299434662, 132.54756903648376]	[128.44370095129372, 128.56036761795372, 129.54336761795372, 129.7100676179537, 130.4600676179537, 130.5767342846137, 130.6934009512737, 130.8100676179337, 130.9267342845937, 131.0434009512537, 131.16006761791368, 131.27673428457368, 131.39340095123367, 131.51006761789367, 131.62673428455366, 131.74340095121366, 131.86006761787365, 131.97673428453365, 132.09340095119364, 132.21006761785364, 132.32673428451363, 132.56006761784695]	2021_Feb_05_1123	60.00349065106365	1	0.375
25	23	FALSE	NV	a	['S', 'Y', 'A', 'U', 'C', 'B', 'R', 'K', 'E', 'X', 'P', 'Z', 'J', 'W', 'G', 'T']	[1731, 2670, 697, 2059, 829, 760, 1587, 1122, 904, 4000, 1456, 2911, 1029, 2448, 944, 1888]	10	Present	NA	NA	PRESENT	0.17409992218017578	134.5436189174652	136.54736304283142	137.36403757726453	137.71403972301175	140.66393613815308	4.116573095321655	[134.56289196014404, 134.67952799797058, 135.6472611427307, 135.83096504211426, 136.58176112174988, 136.69860792160034, 136.81550312042236, 136.9321539402008, 137.04907608032227, 137.16583609580994, 137.28230595588684, 137.39915704727173, 137.5160620212555, 137.6329071521759, 137.74962902069092, 137.86670112609863, 137.98312091827393, 138.09992694854736, 138.2169029712677, 138.33348608016968, 138.45032691955566, 138.66393613815308]	[134.56006761784695, 134.67673428450695, 135.65973428450695, 135.82643428450695, 136.57643428450695, 136.69310095116694, 136.80976761782694, 136.92643428448693, 137.04310095114693, 137.15976761780692, 137.27643428446692, 137.3931009511269, 137.5097676177869, 137.6264342844469, 137.7431009511069, 137.8597676177669, 137.9764342844269, 138.09310095108688, 138.20976761774688, 138.32643428440687, 138.44310095106687, 138.6764342844002]	2021_Feb_05_1123	60.00349065106365	1	0.375
25	24	FALSE	NA	a	['K', 'S', 'P', 'N', 'Y', 'T', 'M', 'W', 'G', 'Z', 'J', 'R', 'U', 'X', 'H', 'V']	[1122, 1731, 1456, 1335, 2670, 1888, 1224, 2448, 944, 2911, 1029, 1587, 2059, 4000, 986, 2245]	14	Present	NA	NA	PRESENT	0.21117591857910156	140.66694283485413	142.6634979248047	143.94683817220348	144.296841271625	146.7803030014038	4.116805076599121	[140.68621706962585, 140.7860450744629, 141.76362800598145, 141.93735909461975, 142.6881411075592, 142.8051609992981, 142.92178893089294, 143.03848600387573, 143.1554400920868, 143.27204704284668, 143.3891360759735, 143.50561809539795, 143.62274813652039, 143.73926496505737, 143.8561999797821, 143.97299909591675, 144.08980298042297, 144.2066240310669, 144.3234031200409, 144.4400179386139, 144.55691504478455, 144.7803030014038]	[140.6764342844002, 140.79310095106018, 141.7761009510602, 141.94280095106018, 142.69280095106018, 142.80946761772017, 142.92613428438017, 143.04280095104016, 143.15946761770016, 143.27613428436015, 143.39280095102015, 143.50946761768014, 143.62613428434014, 143.74280095100013, 143.85946761766013, 143.97613428432012, 144.09280095098012, 144.20946761764012, 144.3261342843001, 144.4428009509601, 144.5594676176201, 144.79280095095342]	2021_Feb_05_1123	60.00349065106365	1	0.375
25	25	FALSE	NV	a	['M', 'U', 'Z', 'R', 'E', 'K', 'P', 'S', 'A', 'Y', 'G', 'X', 'B', 'J', 'H', 'C']	[1224, 2059, 2911, 1587, 904, 1122, 1456, 1731, 697, 2670, 944, 4000, 760, 1029, 986, 829]	12	Present	NA	NA	PRESENT	0.2716968059539795	146.77325892448425	148.78008484840393	149.83009295457563	150.18009486190425	152.8966691493988	4.116584300994873	[146.7925329208374, 146.90925097465515, 147.87999510765076, 148.06096196174622, 148.81140303611755, 148.92830395698547, 149.04516100883484, 149.1617259979248, 149.27879095077515, 149.39537811279297, 149.5122880935669, 149.62893414497375, 149.74589204788208, 149.862487077713, 149.97934007644653, 150.09596800804138, 150.2127730846405, 150.32959294319153, 150.44634699821472, 150.5633029937744, 150.68014097213745, 150.89667105674744]	[146.79280095095342, 146.90946761761342, 147.89246761761342, 148.0591676176134, 148.8091676176134, 148.9258342842734, 149.0425009509334, 149.1591676175934, 149.2758342842534, 149.3925009509134, 149.50916761757338, 149.62583428423338, 149.74250095089337, 149.85916761755337, 149.97583428421336, 150.09250095087336, 150.20916761753335, 150.32583428419335, 150.44250095085334, 150.55916761751334, 150.67583428417333, 150.90916761750665]	2021_Feb_05_1123	60.00349065106365	1	0.375
25	26	FALSE	NN	a	['P', 'J', 'U', 'V', 'S', 'K', 'G', 'R', 'W', 'E', 'B', 'H', 'A', 'Z', 'N', 'Y']	[1456, 1029, 2059, 2245, 1731, 1122, 944, 1587, 2448, 904, 760, 986, 697, 2911, 1335, 2670]	12	Absent	NA	NA	ABSENT	0.6529538631439209	152.89664602279663	154.89631390571594	155.94632296556196	156.29632391921626	159.01303601264954	4.116722106933594	[152.91592001914978, 153.03249311447144, 153.9963619709015, 154.18372297286987, 154.93459010124207, 155.03464007377625, 155.15143394470215, 155.26820993423462, 155.38501501083374, 155.5018229484558, 155.61853098869324, 155.73540115356445, 155.852441072464, 155.9689700603485, 156.0858600139618, 156.20248699188232, 156.31942200660706, 156.43612504005432, 156.55305409431458, 156.6696560382843, 156.7866449356079, 157.01303601264954]	[152.90916761750665, 153.02583428416665, 154.00883428416665, 154.17553428416664, 154.92553428416664, 155.04220095082664, 155.15886761748664, 155.27553428414663, 155.39220095080663, 155.50886761746662, 155.62553428412662, 155.7422009507866, 155.8588676174466, 155.9755342841066, 156.0922009507666, 156.2088676174266, 156.3255342840866, 156.44220095074658, 156.55886761740658, 156.67553428406657, 156.79220095072657, 157.0255342840599]	2021_Feb_05_1123	60.00349065106365	1	0.375
25	27	FALSE	NA	a	['T', 'J', 'M', 'C', 'R', 'G', 'K', 'E', 'P', 'X', 'V', 'U', 'Y', 'A', 'S', 'H']	[1888, 1029, 1224, 829, 1587, 944, 1122, 904, 1456, 4000, 2245, 2059, 2670, 697, 1731, 986]	10	Present	NA	NA	PRESENT	0.15375304222106934	159.00330996513367	161.0126678943634	161.8293426672151	162.17934457454373	165.12940311431885	4.116735219955444	[159.02258396148682, 159.13922095298767, 160.11272811889648, 160.29031705856323, 161.04106903076172, 161.15783500671387, 161.27490997314453, 161.39142394065857, 161.50838613510132, 161.62503099441528, 161.74182796478271, 161.8588171005249, 161.9755561351776, 162.09231901168823, 162.20916414260864, 162.32577204704285, 162.44270014762878, 162.55940914154053, 162.6763210296631, 162.79307913780212, 162.90987992286682, 163.12940192222595]	[159.0255342840599, 159.14220095071988, 160.1252009507199, 160.29190095071988, 161.04190095071988, 161.15856761737987, 161.27523428403987, 161.39190095069986, 161.50856761735986, 161.62523428401985, 161.74190095067985, 161.85856761733984, 161.97523428399984, 162.09190095065983, 162.20856761731983, 162.32523428397982, 162.44190095063982, 162.55856761729981, 162.6752342839598, 162.7919009506198, 162.9085676172798, 163.14190095061312]	2021_Feb_05_1123	60.00349065106365	1	0.375
25	28	FALSE	NA	a	['T', 'G', 'V', 'H', 'P', 'M', 'S', 'X', 'A', 'Z', 'K', 'N', 'U', 'W', 'C', 'Y']	[1888, 944, 2245, 986, 1456, 1224, 1731, 4000, 697, 2911, 1122, 1335, 2059, 2448, 829, 2670]	8	Present	NA	NA	PRESENT	0.2142939567565918	165.12626791000366	167.12914085388184	167.71248229341353	168.06248420074215	171.24576997756958	4.116629123687744	[165.1455421447754, 165.26233792304993, 166.22909212112427, 166.4136140346527, 167.16433215141296, 167.28126406669617, 167.3978090286255, 167.51475405693054, 167.63164114952087, 167.74825501441956, 167.8652801513672, 167.98198103904724, 168.0985770225525, 168.2155499458313, 168.3324019908905, 168.44916105270386, 168.5658619403839, 168.682687997818, 168.79962801933289, 168.91631507873535, 169.0330901145935, 169.24576997756958]	[165.14190095061312, 165.25856761727312, 166.24156761727312, 166.4082676172731, 167.1582676172731, 167.2749342839331, 167.3916009505931, 167.5082676172531, 167.6249342839131, 167.7416009505731, 167.85826761723308, 167.97493428389308, 168.09160095055307, 168.20826761721307, 168.32493428387306, 168.44160095053306, 168.55826761719305, 168.67493428385305, 168.79160095051304, 168.90826761717304, 169.02493428383303, 169.25826761716635]	2021_Feb_05_1123	60.00349065106365	1	0.375
25	29	FALSE	NN	a	['W', 'Z', 'V', 'Y', 'H', 'C', 'J', 'M', 'A', 'G', 'P', 'E', 'S', 'U', 'B', 'T']	[2448, 2911, 2245, 2670, 986, 829, 1029, 1224, 697, 944, 1456, 904, 1731, 2059, 760, 1888]	13	Absent	NA	NA	PRESENT	0.291471004486084	171.23264002799988	173.24560594558716	174.41228167209317	174.7622835794218	177.3621370792389	4.116531133651733	[171.2519130706787, 171.36868810653687, 172.3454611301422, 172.520015001297, 173.2707109451294, 173.38769698143005, 173.50445103645325, 173.62112498283386, 173.7379491329193, 173.85477995872498, 173.97169995307922, 174.08830404281616, 174.20535612106323, 174.32210898399353, 174.43897199630737, 174.55558609962463, 174.67248797416687, 174.78904700279236, 174.9059989452362, 175.0226390361786, 175.13943195343018, 175.36213612556458]	[171.25826761716635, 171.37493428382635, 172.35793428382635, 172.52463428382634, 173.27463428382634, 173.39130095048634, 173.50796761714633, 173.62463428380633, 173.74130095046633, 173.85796761712632, 173.97463428378632, 174.0913009504463, 174.2079676171063, 174.3246342837663, 174.4413009504263, 174.5579676170863, 174.6746342837463, 174.79130095040628, 174.90796761706628, 175.02463428372627, 175.14130095038627, 175.3746342837196]	2021_Feb_05_1123	60.00349065106365	1	0.375
25	30	FALSE	VV	a	['R', 'T', 'H', 'K', 'V', 'B', 'A', 'C', 'surprise', 'W', 'G', 'X', 'Z', 'E', 'J', 'Y']	[1587, 1888, 986, 1122, 2245, 760, 697, 829, 'stimAuditory/all_stimAuditory/212.wav', 2448, 944, 4000, 2911, 904, 1029, 2670]	12	Present	NA	NA	ABSENT	0.5760540962219238	177.35604596138	179.3618519306183	180.41186003679	180.7618619441186	183.4785029888153	4.1166510581970215	[177.37531995773315, 177.49197912216187, 178.46182703971863, 178.64331698417664, 179.39444494247437, 179.51080894470215, 179.6277630329132, 179.74475193023682, 179.86139106750488, 179.9780809879303, 180.09493708610535, 180.21175503730774, 180.3284969329834, 180.44522309303284, 180.5618770122528, 180.6788899898529, 180.79548406600952, 180.91234707832336, 181.02903509140015, 181.14590692520142, 181.26305508613586, 181.478502035141]	[177.3746342837196, 177.49130095037958, 178.4743009503796, 178.64100095037958, 179.39100095037958, 179.50766761703957, 179.62433428369957, 179.74100095035956, 179.85766761701956, 179.97433428367955, 180.09100095033955, 180.20766761699954, 180.32433428365954, 180.44100095031953, 180.55766761697953, 180.67433428363952, 180.79100095029952, 180.90766761695951, 181.0243342836195, 181.1410009502795, 181.2576676169395, 181.49100095027282]	2021_Feb_05_1123	60.00349065106365	1	0.375
25	31	FALSE	NV	a	['U', 'M', 'Z', 'B', 'H', 'Y', 'C', 'A', 'G', 'T', 'S', 'J', 'W', 'X', 'V', 'N']	[2059, 1224, 2911, 760, 986, 2670, 829, 697, 944, 1888, 1731, 1029, 2448, 4000, 2245, 1335]	14	Present	NA	NA	PRESENT	0.4533681869506836	183.47923493385315	185.47826099395752	186.76160219503063	187.11160434077783	189.59487009048465	4.1166090965271	[183.4985089302063, 183.61531400680542, 184.57819199562073, 184.74966311454773, 185.51716303825378, 185.61728310585022, 185.734148979187, 185.85083198547363, 185.9676160812378, 186.08468294143677, 186.20122599601746, 186.3182611465454, 186.43506407737732, 186.55156207084656, 186.66864705085754, 186.78536415100098, 186.90216898918152, 187.01872992515564, 187.1356840133667, 187.25230193138123, 187.36930298805237, 187.5948691368103]	[183.49100095027282, 183.60766761693282, 184.59066761693282, 184.7573676169328, 185.5073676169328, 185.6240342835928, 185.7407009502528, 185.8573676169128, 185.9740342835728, 186.0907009502328, 186.20736761689278, 186.32403428355278, 186.44070095021277, 186.55736761687277, 186.67403428353276, 186.79070095019276, 186.90736761685275, 187.02403428351275, 187.14070095017274, 187.25736761683274, 187.37403428349273, 187.60736761682605]	2021_Feb_05_1123	60.00349065106365	1	0.375
25	32	FALSE	NN	a	['N', 'R', 'H', 'Y', 'S', 'U', 'B', 'E', 'P', 'M', 'T', 'V', 'K', 'C', 'Z', 'A']	[1335, 1587, 986, 2670, 1731, 2059, 760, 904, 1456, 1224, 1888, 2245, 1122, 829, 2911, 697]	10	Absent	NA	NA	PRESENT	0.8898770809173584	189.58591890335083	191.594624042511	192.4112985769441	192.76130072269132	195.71123600006104	4.116611957550049	[189.60519409179688, 189.72160696983337, 190.69456005096436, 190.87309193611145, 191.62374901771545, 191.7406530380249, 191.85742211341858, 191.9740560054779, 192.09103512763977, 192.2076539993286, 192.32468008995056, 192.4414620399475, 192.558030128479, 192.67498207092285, 192.79163312911987, 192.90848112106323, 193.02522492408752, 193.14212799072266, 193.25892305374146, 193.37554693222046, 193.4923219680786, 193.71123600006104]	[189.60736761682605, 189.72403428348605, 190.70703428348605, 190.87373428348604, 191.62373428348604, 191.74040095014604, 191.85706761680603, 191.97373428346603, 192.09040095012602, 192.20706761678602, 192.32373428344602, 192.440400950106, 192.557067616766, 192.673734283426, 192.790400950086, 192.907067616746, 193.023734283406, 193.14040095006598, 193.25706761672598, 193.37373428338597, 193.49040095004597, 193.7237342833793]	2021_Feb_05_1123	60.00349065106365	1	0.375
25	33	FALSE	AV	a	['J', 'N', 'W', 'V', 'G', 'C', 'T', 'B', 'surprise', 'Y', 'H', 'X', 'E', 'U', 'Z', 'A']	[1029, 1335, 2448, 2245, 944, 829, 1888, 760, 'stimAuditory/all_stimAuditory/216.wav', 2670, 986, 4000, 904, 2059, 2911, 697]	12	Present	stimAuditory/all_stimAuditory/121.wav	NA	PRESENT	0.647454023361206	195.70903086662292	197.7110860347748	198.76109485620225	199.11109700194945	201.82760214805603	4.11651611328125	[195.72830510139465, 195.84506797790527, 196.81092810630798, 196.99625611305237, 197.74695801734924, 197.86367297172546, 197.98064494132996, 198.0974440574646, 198.21422004699707, 198.33102798461914, 198.44780206680298, 198.5646369457245, 198.68125009536743, 198.79804396629333, 198.9151599407196, 199.0317931175232, 199.14860606193542, 199.26535391807556, 199.3819489479065, 199.49895095825195, 199.59881210327148, 199.82760310173035]	[195.7237342833793, 195.84040095003928, 196.8234009500393, 196.99010095003928, 197.74010095003928, 197.85676761669927, 197.97343428335927, 198.09010095001926, 198.20676761667926, 198.32343428333925, 198.44010094999925, 198.55676761665924, 198.67343428331924, 198.79010094997923, 198.90676761663923, 199.02343428329922, 199.14010094995922, 199.25676761661921, 199.3734342832792, 199.4901009499392, 199.6067676165992, 199.84010094993252]	2021_Feb_05_1123	60.00349065106365	1	0.375
25	34	FALSE	NV	a	['C', 'Y', 'K', 'V', 'M', 'J', 'T', 'X', 'Z', 'N', 'S', 'W', 'H', 'U', 'B', 'P']	[829, 2670, 1122, 2245, 1224, 1029, 1888, 4000, 2911, 1335, 1731, 2448, 986, 2059, 760, 1456]	8	Present	NA	NA	ABSENT	0.8596529960632324	201.81526398658752	203.82727193832395	204.41061433153	204.7606162388586	207.94396901130676	4.116697072982788	[201.834538936615, 201.95162105560303, 202.92729306221008, 203.1028470993042, 203.85350394248962, 203.9702000617981, 204.0872359275818, 204.2037501335144, 204.32082104682922, 204.4373619556427, 204.5543670654297, 204.6710560321808, 204.78789806365967, 204.9045569896698, 205.02138996124268, 205.13824200630188, 205.25511813163757, 205.37173295021057, 205.48844194412231, 205.60531306266785, 205.72214102745056, 205.94396901130676]	[201.84010094993252, 201.95676761659251, 202.93976761659252, 203.1064676165925, 203.8564676165925, 203.9731342832525, 204.0898009499125, 204.2064676165725, 204.3231342832325, 204.4398009498925, 204.55646761655248, 204.67313428321248, 204.78980094987247, 204.90646761653247, 205.02313428319246, 205.13980094985246, 205.25646761651245, 205.37313428317245, 205.48980094983244, 205.60646761649244, 205.72313428315243, 205.95646761648575]	2021_Feb_05_1123	60.00349065106365	1	0.375
25	35	FALSE	NA	a	['P', 'K', 'U', 'N', 'B', 'H', 'S', 'W', 'E', 'X', 'R', 'A', 'M', 'V', 'C', 'T']	[1456, 1122, 2059, 1335, 760, 986, 1731, 2448, 904, 4000, 1587, 697, 1224, 2245, 829, 1888]	10	Present	NA	NA	ABSENT	0.6002390384674072	207.93846702575684	209.94383096694943	210.76050550138257	211.1105076471298	214.06033611297607	4.116505146026611	[207.95774102210999, 208.07464814186096, 209.0436611175537, 209.22620511054993, 209.97672295570374, 210.09334802627563, 210.21023392677307, 210.3271999359131, 210.44373512268066, 210.56084513664246, 210.67736291885376, 210.79428005218506, 210.91115808486938, 211.02787113189697, 211.14451003074646, 211.2614939212799, 211.37817192077637, 211.49514198303223, 211.6119041442871, 211.7287220954895, 211.84535813331604, 212.0603370666504]	[207.95646761648575, 208.07313428314575, 209.05613428314575, 209.22283428314574, 209.97283428314574, 210.08950094980574, 210.20616761646573, 210.32283428312573, 210.43950094978572, 210.55616761644572, 210.67283428310571, 210.7895009497657, 210.9061676164257, 211.0228342830857, 211.1395009497457, 211.2561676164057, 211.37283428306569, 211.48950094972568, 211.60616761638568, 211.72283428304567, 211.83950094970567, 212.072834283039]	2021_Feb_05_1123	60.00349065106365	1	0.375
25	36	FALSE	NA	a	['T', 'E', 'M', 'Y', 'P', 'G', 'V', 'J', 'A', 'R', 'C', 'H', 'S', 'X', 'U', 'W']	[1888, 904, 1224, 2670, 1456, 944, 2245, 1029, 697, 1587, 829, 986, 1731, 4000, 2059, 2448]	14	Present	NA	NA	PRESENT	0.18152785301208496	214.0619440078735	216.05995082855225	217.34329322171823	217.69329536746545	220.1767029762268	4.1167521476745605	[214.08121705055237, 214.19800209999084, 215.1600260734558, 215.33230304718018, 216.09993696212769, 216.1999340057373, 216.3168499469757, 216.43350315093994, 216.55044507980347, 216.66707301139832, 216.78406810760498, 216.9006950855255, 217.0174310207367, 217.1342489719391, 217.25117993354797, 217.36785292625427, 217.48486495018005, 217.60144805908203, 217.71840500831604, 217.83512210845947, 217.9520001411438, 218.1767020225525]	[214.072834283039, 214.18950094969898, 215.17250094969899, 215.33920094969898, 216.08920094969898, 216.20586761635897, 216.32253428301897, 216.43920094967896, 216.55586761633896, 216.67253428299895, 216.78920094965895, 216.90586761631894, 217.02253428297894, 217.13920094963893, 217.25586761629893, 217.37253428295892, 217.48920094961892, 217.6058676162789, 217.7225342829389, 217.8392009495989, 217.9558676162589, 218.18920094959222]	2021_Feb_05_1123	60.00349065106365	1	0.375
25	37	FALSE	NV	a	['N', 'C', 'B', 'E', 'P', 'J', 'H', 'X', 'V', 'R', 'Y', 'M', 'W', 'A', 'Z', 'K']	[1335, 829, 760, 904, 1456, 1029, 986, 4000, 2245, 1587, 2670, 1224, 2448, 697, 2911, 1122]	8	Present	NA	NA	PRESENT	0.08201789855957031	220.16863894462583	222.17636704444885	222.75970824556197	223.10971039130916	226.29307007789612	4.116703033447266	[220.187912940979, 220.3042299747467, 221.27639603614807, 221.4557421207428, 222.2064471244812, 222.32329201698303, 222.43996596336365, 222.55672812461853, 222.673504114151, 222.79036211967468, 222.90732192993164, 223.02396607398987, 223.14060592651367, 223.25754594802856, 223.37428498268127, 223.49119901657104, 223.60783505439758, 223.72486400604248, 223.8415060043335, 223.95843195915222, 224.07521295547485, 224.29307007789612]	[220.18920094959222, 220.30586761625221, 221.28886761625222, 221.4555676162522, 222.2055676162522, 222.3222342829122, 222.4389009495722, 222.5555676162322, 222.6722342828922, 222.7889009495522, 222.90556761621218, 223.02223428287218, 223.13890094953217, 223.25556761619217, 223.37223428285216, 223.48890094951216, 223.60556761617215, 223.72223428283215, 223.83890094949214, 223.95556761615214, 224.07223428281213, 224.30556761614545]	2021_Feb_05_1123	60.00349065106365	1	0.375
25	38	FALSE	NA	a	['W', 'G', 'H', 'S', 'B', 'Z', 'J', 'T', 'N', 'Y', 'U', 'A', 'C', 'X', 'V', 'P']	[2448, 944, 986, 1731, 760, 2911, 1029, 1888, 1335, 2670, 2059, 697, 829, 4000, 2245, 1456]	14	Present	NA	NA	PRESENT	0.23974299430847168	226.29168605804443	228.29283094406128	229.57617238355297	229.9261742908816	232.40943694114685	4.116605997085571	[226.31095910072327, 226.4276840686798, 227.39276099205017, 227.57886505126953, 228.32959914207458, 228.4464430809021, 228.5630509853363, 228.6798369884491, 228.79675102233887, 228.9134919643402, 229.03020095825195, 229.1472430229187, 229.264014005661, 229.3639190196991, 229.48078393936157, 229.5975661277771, 229.71433305740356, 229.83138513565063, 229.9479739665985, 230.064679145813, 230.18156099319458, 230.40943694114685]	[226.30556761614545, 226.42223428280545, 227.40523428280545, 227.57193428280544, 228.32193428280544, 228.43860094946544, 228.55526761612543, 228.67193428278543, 228.78860094944542, 228.90526761610542, 229.02193428276541, 229.1386009494254, 229.2552676160854, 229.3719342827454, 229.4886009494054, 229.6052676160654, 229.72193428272539, 229.83860094938538, 229.95526761604538, 230.07193428270537, 230.18860094936537, 230.4219342826987]	2021_Feb_05_1123	60.00349065106365	1	0.375
25	39	FALSE	NV	a	['N', 'S', 'A', 'M', 'V', 'W', 'J', 'X', 'G', 'K', 'B', 'R', 'E', 'T', 'P', 'C']	[1335, 1731, 697, 1224, 2245, 2448, 1029, 4000, 944, 1122, 760, 1587, 904, 1888, 1456, 829]	8	Present	NA	NA	PRESENT	0.07600903511047363	232.39798998832703	234.40925693511963	234.99259718255843	235.3425993283056	238.52580404281616	4.116547107696533	[232.41726398468018, 232.5339720249176, 233.50912809371948, 233.68544006347656, 234.43624210357666, 234.55287408828735, 234.66973495483398, 234.78645205497742, 234.90335512161255, 235.0200710296631, 235.13690495491028, 235.25357294082642, 235.37054014205933, 235.48726105690002, 235.60410594940186, 235.7209529876709, 235.8377890586853, 235.95457410812378, 236.0711750984192, 236.18809008598328, 236.30471014976501, 236.52580308914185]	[232.4219342826987, 232.53860094935868, 233.52160094935869, 233.68830094935868, 234.43830094935868, 234.55496761601867, 234.67163428267867, 234.78830094933866, 234.90496761599866, 235.02163428265865, 235.13830094931865, 235.25496761597864, 235.37163428263864, 235.48830094929863, 235.60496761595863, 235.72163428261862, 235.83830094927862, 235.9549676159386, 236.0716342825986, 236.1883009492586, 236.3049676159186, 236.53830094925192]	2021_Feb_05_1123	60.00349065106365	1	0.375
25	40	FALSE	NV	a	['K', 'H', 'G', 'N', 'E', 'W', 'R', 'M', 'J', 'X', 'A', 'Y', 'P', 'Z', 'U', 'S']	[1122, 986, 944, 1335, 904, 2448, 1587, 1224, 1029, 4000, 697, 2670, 1456, 2911, 2059, 1731]	10	Present	NA	NA	PRESENT	0.2564718723297119	238.52136206626892	240.52565789222717	241.34233266507889	241.6923345724075	244.64216899871823	4.116511106491089	[238.54063606262207, 238.65718793869019, 239.62549304962158, 239.8087239265442, 240.55956292152405, 240.67607593536377, 240.7928011417389, 240.9096930027008, 241.02638602256775, 241.14331603050232, 241.25991106033325, 241.37681913375854, 241.49367094039917, 241.6103789806366, 241.72724604606628, 241.8441710472107, 241.96099305152893, 242.07772397994995, 242.194344997406, 242.3114471435547, 242.427992105484, 242.64216899871826]	[238.53830094925192, 238.65496761591191, 239.63796761591192, 239.8046676159119, 240.5546676159119, 240.6713342825719, 240.7880009492319, 240.9046676158919, 241.0213342825519, 241.1380009492119, 241.25466761587188, 241.37133428253188, 241.48800094919187, 241.60466761585187, 241.72133428251186, 241.83800094917186, 241.95466761583185, 242.07133428249185, 242.18800094915184, 242.30466761581184, 242.42133428247183, 242.65466761580515]	2021_Feb_05_1123	60.00349065106365	1	0.375
25	41	FALSE	AV	a	['N', 'M', 'B', 'R', 'P', 'T', 'surprise', 'G', 'J', 'X', 'E', 'V', 'A', 'Y', 'Z', 'W']	[1335, 1224, 760, 1587, 1456, 1888, 'stimAuditory/all_stimAuditory/119.wav', 944, 1029, 4000, 904, 2245, 697, 2670, 2911, 2448]	10	Present	stimAuditory/all_stimAuditory/212.wav	NA	PRESENT	0.5019209384918213	244.64454889297485	246.6418960094452	247.4585705438783	247.80857268962552	250.7585370540619	4.116641044616699	[244.66382312774658, 244.76373314857483, 245.7418611049652, 245.91517996788025, 246.6657199859619, 246.78258514404297, 246.89946293830872, 247.01625204086304, 247.1328661441803, 247.24972891807556, 247.366681098938, 247.48326897621155, 247.60027194023132, 247.7170169353485, 247.83371114730835, 247.95056414604187, 248.06746411323547, 248.18419313430786, 248.3008270263672, 248.41765904426575, 248.53458309173584, 248.7585380077362]	[244.65466761580515, 244.77133428246515, 245.75433428246515, 245.92103428246514, 246.67103428246514, 246.78770094912514, 246.90436761578513, 247.02103428244513, 247.13770094910512, 247.25436761576512, 247.37103428242511, 247.4877009490851, 247.6043676157451, 247.7210342824051, 247.8377009490651, 247.9543676157251, 248.07103428238509, 248.18770094904508, 248.30436761570508, 248.42103428236507, 248.53770094902507, 248.77103428235839]	2021_Feb_05_1123	60.00349065106365	1	0.375
25	42	FALSE	NV	a	['A', 'T', 'J', 'Z', 'K', 'W', 'U', 'Y', 'X', 'C', 'H', 'G', 'B', 'V', 'R', 'E']	[697, 1888, 1029, 2911, 1122, 2448, 2059, 2670, 4000, 829, 986, 944, 760, 2245, 1587, 904]	9	Present	NA	NA	ABSENT	0.6183679103851318	250.75136399269104	252.75803184509277	253.4580399512845	253.8080418586131	256.8749029636383	4.116871118545532	[250.7706389427185, 250.88712000846863, 251.8582260608673, 252.0383961200714, 252.78916811943054, 252.90592694282532, 253.02269911766052, 253.13953709602356, 253.256108045578, 253.37303805351257, 253.48977398872375, 253.60665893554688, 253.72336792945862, 253.84025502204895, 253.95683693885803, 254.07374906539917, 254.19063115119934, 254.30741596221924, 254.4241271018982, 254.5408570766449, 254.65777897834778, 254.8749029636383]	[250.77103428235839, 250.88770094901838, 251.87070094901839, 252.03740094901838, 252.78740094901838, 252.90406761567837, 253.02073428233837, 253.13740094899836, 253.25406761565836, 253.37073428231835, 253.48740094897835, 253.60406761563834, 253.72073428229834, 253.83740094895833, 253.95406761561833, 254.07073428227832, 254.18740094893832, 254.3040676155983, 254.4207342822583, 254.5374009489183, 254.6540676155783, 254.88740094891162]	2021_Feb_05_1123	60.00349065106365	1	0.375
25	43	FALSE	NV	a	['U', 'H', 'J', 'Z', 'B', 'S', 'T', 'W', 'N', 'C', 'Y', 'A', 'R', 'X', 'K', 'M']	[2059, 986, 1029, 2911, 760, 1731, 1888, 2448, 1335, 829, 2670, 697, 1587, 4000, 1122, 1224]	14	Present	NA	NA	PRESENT	0.087738037109375	256.87414288520813	258.874666929245	260.15800717664376	260.508009322391	262.9912691116333	4.116602182388306	[256.8934180736542, 257.01030802726746, 257.97459506988525, 258.16146898269653, 258.9122040271759, 259.0292501449585, 259.12907814979553, 259.2458701133728, 259.3626489639282, 259.47942209243774, 259.59619092941284, 259.71300196647644, 259.8300521373749, 259.94651913642883, 260.06332993507385, 260.18013310432434, 260.2971169948578, 260.4137210845947, 260.5307559967041, 260.64732909202576, 260.764151096344, 260.9912691116333]	[256.8874009489116, 257.0040676155716, 257.9870676155716, 258.1537676155716, 258.9037676155716, 259.02043428223163, 259.13710094889166, 259.2537676155517, 259.3704342822117, 259.4871009488717, 259.60376761553175, 259.7204342821918, 259.8371009488518, 259.9537676155118, 260.07043428217185, 260.18710094883187, 260.3037676154919, 260.4204342821519, 260.53710094881194, 260.65376761547196, 260.770434282132, 261.00376761546534]	2021_Feb_05_1123	60.00349065106365	1	0.375
25	44	FALSE	NA	a	['T', 'C', 'G', 'E', 'P', 'J', 'M', 'Y', 'S', 'A', 'N', 'X', 'U', 'K', 'Z', 'W']	[1888, 829, 944, 904, 1456, 1029, 1224, 2670, 1731, 697, 1335, 4000, 2059, 1122, 2911, 2448]	12	Present	NA	NA	PRESENT	1.0601959228515625	262.98076605796814	264.9908080101013	266.0408158778544	266.39081897727596	269.10763597488403	4.116827964782715	[263.0000400543213, 263.11679792404175, 264.09095907211304, 264.2680330276489, 265.0188090801239, 265.1357100009918, 265.2522621154785, 265.3691680431366, 265.4859390258789, 265.6027591228485, 265.7193970680237, 265.8364360332489, 265.95300793647766, 266.0698170661926, 266.1866331100464, 266.3035259246826, 266.4202370643616, 266.53718996047974, 266.6537871360779, 266.77075695991516, 266.88740491867065, 267.10763597488403]	[263.00376761546534, 263.12043428212536, 264.10343428212536, 264.27013428212535, 265.02013428212535, 265.1368009487854, 265.2534676154454, 265.3701342821054, 265.48680094876545, 265.6034676154255, 265.7201342820855, 265.8368009487455, 265.95346761540554, 266.07013428206557, 266.1868009487256, 266.3034676153856, 266.42013428204564, 266.53680094870566, 266.6534676153657, 266.7701342820257, 266.88680094868573, 267.1201342820191]	2021_Feb_05_1123	60.00349065106365	1	0.375
25	45	FALSE	NN	a	['C', 'R', 'E', 'K', 'W', 'Z', 'B', 'S', 'J', 'V', 'M', 'U', 'N', 'H', 'A', 'P']	[829, 1587, 904, 1122, 2448, 2911, 760, 1731, 1029, 2245, 1224, 2059, 1335, 986, 697, 1456]	9	Absent	NA	NA	PRESENT	0.3447098731994629	269.1040298938751	271.1075220108032	271.80752987857636	272.15753202432353	275.22400307655334	4.116481065750122	[269.1233160495758, 269.24000310897827, 270.20732593536377, 270.39161014556885, 271.1418631076813, 271.2587969303131, 271.37553811073303, 271.49244499206543, 271.60914301872253, 271.72595405578613, 271.842698097229, 271.9596230983734, 272.07646107673645, 272.1931140422821, 272.3097951412201, 272.4266059398651, 272.5436019897461, 272.6601359844208, 272.77707600593567, 272.89376997947693, 273.0106899738312, 273.22400307655334]	[269.1201342820191, 269.2368009486791, 270.2198009486791, 270.3865009486791, 271.1365009486791, 271.2531676153391, 271.36983428199915, 271.48650094865917, 271.6031676153192, 271.7198342819792, 271.83650094863924, 271.95316761529926, 272.0698342819593, 272.1865009486193, 272.30316761527934, 272.41983428193936, 272.5365009485994, 272.6531676152594, 272.76983428191943, 272.88650094857945, 273.0031676152395, 273.2365009485728]	2021_Feb_05_1123	60.00349065106365	1	0.375
25	46	FALSE	NA	a	['U', 'S', 'K', 'Y', 'R', 'G', 'T', 'A', 'E', 'W', 'H', 'M', 'X', 'P', 'C', 'V']	[2059, 1731, 1122, 2670, 1587, 944, 1888, 697, 904, 2448, 986, 1224, 4000, 1456, 829, 2245]	13	Present	NA	NA	PRESENT	0.06218194961547851	275.2103269100189	277.2239329814911	278.3906087079971	278.74061061532575	281.3403699398041	4.116436958312988	[275.22960114479065, 275.34637904167175, 276.3236949443817, 276.4978361129761, 277.2484290599823, 277.3652400970459, 277.482146024704, 277.59885597229004, 277.71565294265747, 277.8326361179352, 277.9491250514984, 278.0660049915314, 278.18299198150635, 278.2995719909668, 278.41654205322266, 278.5332500934601, 278.64988899230957, 278.76682901382446, 278.88346815109253, 279.0004379749298, 279.11711597442627, 279.340371131897]	[275.2365009485728, 275.35316761523285, 276.33616761523285, 276.50286761523284, 277.25286761523284, 277.36953428189287, 277.4862009485529, 277.6028676152129, 277.71953428187294, 277.83620094853296, 277.952867615193, 278.069534281853, 278.18620094851303, 278.30286761517306, 278.4195342818331, 278.5362009484931, 278.6528676151531, 278.76953428181315, 278.8862009484732, 279.0028676151332, 279.1195342817932, 279.35286761512657]	2021_Feb_05_1123	60.00349065106365	1	0.375
25	47	FALSE	NA	a	['H', 'C', 'T', 'G', 'A', 'S', 'V', 'B', 'R', 'P', 'Z', 'N', 'W', 'X', 'U', 'K']	[986, 829, 1888, 944, 697, 1731, 2245, 760, 1587, 1456, 2911, 1335, 2448, 4000, 2059, 1122]	14	Present	NA	NA	ABSENT	0.8826251029968262	281.3340039253235	283.3401119709015	284.6234531719746	284.9734553177218	287.4567360877991	4.116624116897583	[281.35327792167664, 281.46971106529236, 282.440062046051, 282.62095403671265, 283.3717770576477, 283.48848700523376, 283.6051869392395, 283.72214007377625, 283.83903408050537, 283.95574712753296, 284.07228899002075, 284.189316034317, 284.30587005615234, 284.42289113998413, 284.5396320819855, 284.6564700603485, 284.77310013771057, 284.89007115364075, 285.00674414634705, 285.1236870288849, 285.2407240867615, 285.4567360877991]	[281.35286761512657, 281.4695342817866, 282.4525342817866, 282.6192342817866, 283.3692342817866, 283.4859009484466, 283.60256761510664, 283.71923428176666, 283.8359009484267, 283.9525676150867, 284.06923428174673, 284.18590094840675, 284.3025676150668, 284.4192342817268, 284.5359009483868, 284.65256761504685, 284.7692342817069, 284.8859009483669, 285.0025676150269, 285.11923428168694, 285.23590094834697, 285.4692342816803]	2021_Feb_05_1123	60.00349065106365	1	0.375
25	48	FALSE	NN	a	['Y', 'V', 'S', 'Z', 'R', 'N', 'J', 'U', 'H', 'B', 'G', 'K', 'C', 'E', 'W', 'M']	[2670, 2245, 1731, 2911, 1587, 1335, 1029, 2059, 986, 760, 944, 1122, 829, 904, 2448, 1224]	12	Absent	NA	NA	ABSENT	0.19974207878112793	287.4569458961487	289.4566819667816	290.5066888808604	290.8566910266076	293.5731029510498	4.1164209842681885	[287.4762201309204, 287.59300112724304, 288.5564270019531, 288.7442591190338, 289.4951140880585, 289.59491205215454, 289.7117249965668, 289.82854104042053, 289.94530510902405, 290.06206798553467, 290.17889404296875, 290.29557514190674, 290.4124369621277, 290.5292100906372, 290.6461760997772, 290.76282000541687, 290.8800570964813, 290.99662613868713, 291.1132469177246, 291.2300429344177, 291.3467869758606, 291.5731019973755]	[287.4692342816803, 287.58590094834034, 288.56890094834034, 288.73560094834033, 289.48560094834033, 289.60226761500036, 289.7189342816604, 289.8356009483204, 289.9522676149804, 290.06893428164045, 290.1856009483005, 290.3022676149605, 290.4189342816205, 290.53560094828055, 290.65226761494057, 290.7689342816006, 290.8856009482606, 291.00226761492064, 291.11893428158066, 291.2356009482407, 291.3522676149007, 291.58560094823406]	2021_Feb_05_1123	60.00349065106365	1	0.375
25	49	FALSE	NN	a	['Y', 'S', 'U', 'B', 'K', 'R', 'J', 'T', 'V', 'A', 'G', 'C', 'M', 'H', 'E', 'Z']	[2670, 1731, 2059, 760, 1122, 1587, 1029, 1888, 2245, 697, 944, 829, 1224, 986, 904, 2911]	9	Absent	NA	NA	ABSENT	0.6286320686340332	293.5633969306946	295.5725739002228	296.2725829600888	296.6225848674174	299.6894690990448	4.1168951988220215	[293.58267092704773, 293.69953203201294, 294.67279410362244, 294.8507981300354, 295.60127210617065, 295.71827006340027, 295.8351559638977, 295.9518370628357, 296.06856298446655, 296.1855230331421, 296.3022880554199, 296.4191391468048, 296.5356650352478, 296.6525809764862, 296.7692949771881, 296.88622212409973, 297.0030200481415, 297.11977791786194, 297.23667311668396, 297.3533499240875, 297.4700870513916, 297.6894690990448]	[293.58560094823406, 293.7022676148941, 294.6852676148941, 294.8519676148941, 295.6019676148941, 295.7186342815541, 295.8353009482141, 295.95196761487415, 296.0686342815342, 296.1853009481942, 296.3019676148542, 296.41863428151424, 296.53530094817427, 296.6519676148343, 296.7686342814943, 296.88530094815434, 297.00196761481436, 297.1186342814744, 297.2353009481344, 297.35196761479443, 297.46863428145446, 297.7019676147878]	2021_Feb_05_1123	60.00349065106365	1	0.375
25	50	FALSE	AV	a	['P', 'H', 'G', 'N', 'surprise', 'Y', 'Z', 'X', 'M', 'V', 'K', 'T', 'R', 'B', 'W', 'C']	[1456, 986, 944, 1335, 'stimAuditory/all_stimAuditory/201.wav', 2670, 2911, 4000, 1224, 2245, 1122, 1888, 1587, 760, 2448, 829]	8	Present	stimAuditory/all_stimAuditory/216.wav	NA	ABSENT	0.09704303741455078	299.686429977417	301.68902683258057	302.2723692257866	302.6223713715338	305.8058371543884	4.116810321807861	[299.70570397377014, 299.82270193099976, 300.7891640663147, 300.9740569591522, 301.724573135376, 301.8416030406952, 301.9581871032715, 302.07509899139404, 302.1918251514435, 302.30849409103394, 302.42535305023193, 302.5421919822693, 302.658940076828, 302.7759311199188, 302.8924491405487, 303.009397983551, 303.12626814842224, 303.24315094947815, 303.35989713668823, 303.47642612457275, 303.5934569835663, 303.8058371543884]	[299.7019676147878, 299.8186342814478, 300.80163428144783, 300.9683342814478, 301.7183342814478, 301.83500094810785, 301.95166761476787, 302.0683342814279, 302.1850009480879, 302.30166761474794, 302.41833428140797, 302.535000948068, 302.651667614728, 302.76833428138804, 302.88500094804806, 303.0016676147081, 303.1183342813681, 303.23500094802813, 303.35166761468815, 303.4683342813482, 303.5850009480082, 303.81833428134155]	2021_Feb_05_1123	60.00349065106365	1	0.375
25	51	FALSE	NV	a	['J', 'S', 'C', 'Y', 'B', 'P', 'V', 'K', 'W', 'E', 'H', 'X', 'R', 'Z', 'A', 'M']	[1029, 1731, 829, 2670, 760, 1456, 2245, 1122, 2448, 904, 986, 4000, 1587, 2911, 697, 1224]	12	Present	NA	NA	PRESENT	0.1583719253540039	305.79299998283386	307.80541586875916	308.8554230212565	309.20542492858516	311.92220401763916	4.116788148880005	[305.8122730255127, 305.92908215522766, 306.9055280685425, 307.08055210113525, 307.83110094070435, 307.9479970932007, 308.0649080276489, 308.18160104751587, 308.2982609272003, 308.4151380062103, 308.531818151474, 308.64872694015503, 308.76541805267334, 308.88233399391174, 308.9989330768585, 309.11588406562805, 309.2325520515442, 309.3494701385498, 309.4661841392517, 309.58311700820923, 309.69972801208496, 309.92220401763916]	[305.81833428134155, 305.9350009480016, 306.9180009480016, 307.08470094800157, 307.83470094800157, 307.9513676146616, 308.0680342813216, 308.18470094798164, 308.30136761464166, 308.4180342813017, 308.5347009479617, 308.65136761462173, 308.76803428128176, 308.8847009479418, 309.0013676146018, 309.1180342812618, 309.23470094792185, 309.3513676145819, 309.4680342812419, 309.5847009479019, 309.70136761456195, 309.9347009478953]	2021_Feb_05_1123	60.00349065106365	1	0.375
25	52	FALSE	NV	a	['E', 'V', 'C', 'G', 'K', 'B', 'P', 'J', 'M', 'R', 'X', 'A', 'T', 'Y', 'W', 'Z']	[904, 2245, 829, 944, 1122, 760, 1456, 1029, 1224, 1587, 4000, 697, 1888, 2670, 2448, 2911]	11	Present	NA	NA	PRESENT	0.0668179988861084	311.9165110588074	313.9219470024109	314.855288203504	315.2052913029255	318.03856897354126	4.116621971130371	[311.93578600883484, 312.0522849559784, 313.02189111709595, 313.2036249637604, 313.9541709423065, 314.07124304771423, 314.1880419254303, 314.30485701560974, 314.42146611213684, 314.53819012641907, 314.6551160812378, 314.7719841003418, 314.8888490200043, 315.00537109375, 315.12221813201904, 315.2391719818115, 315.35581612586975, 315.4727210998535, 315.5894420146942, 315.7060880661011, 315.8231279850006, 316.03856801986694]	[311.9347009478953, 312.0513676145553, 313.0343676145553, 313.2010676145553, 313.9510676145553, 314.06773428121534, 314.18440094787536, 314.3010676145354, 314.4177342811954, 314.53440094785543, 314.65106761451545, 314.7677342811755, 314.8844009478355, 315.0010676144955, 315.11773428115555, 315.2344009478156, 315.3510676144756, 315.4677342811356, 315.58440094779564, 315.70106761445567, 315.8177342811157, 316.05106761444904]	2021_Feb_05_1123	60.00349065106365	1	0.375
25	53	FALSE	NV	a	['V', 'R', 'E', 'T', 'P', 'G', 'C', 'U', 'K', 'Z', 'X', 'H', 'M', 'N', 'A', 'J']	[2245, 1587, 904, 1888, 1456, 944, 829, 2059, 1122, 2911, 4000, 986, 1224, 1335, 697, 1029]	11	Present	NA	NA	PRESENT	0.40828800201416016	318.0394239425659	320.0383880138397	320.97172826125853	321.3217301685871	324.1549370288849	4.116549015045166	[318.05869793891907, 318.17555594444275, 319.1382601261139, 319.30987906455994, 320.0775511264801, 320.1776361465454, 320.29433703422546, 320.41121792793274, 320.52791810035706, 320.6446580886841, 320.76165413856506, 320.8785171508789, 320.995157957077, 321.112056016922, 321.22885298728943, 321.34562706947327, 321.46229004859924, 321.5792601108551, 321.69582509994507, 321.8127999305725, 321.9298300743103, 322.15493607521057]	[318.05106761444904, 318.16773428110906, 319.15073428110907, 319.31743428110906, 320.06743428110906, 320.1841009477691, 320.3007676144291, 320.41743428108913, 320.53410094774915, 320.6507676144092, 320.7674342810692, 320.8841009477292, 321.00076761438925, 321.11743428104927, 321.2341009477093, 321.3507676143693, 321.46743428102934, 321.58410094768936, 321.7007676143494, 321.8174342810094, 321.93410094766944, 322.1674342810028]	2021_Feb_05_1123	60.00349065106365	1	0.375
25	54	FALSE	NN	a	['T', 'K', 'E', 'B', 'P', 'Y', 'W', 'M', 'U', 'V', 'G', 'H', 'J', 'R', 'A', 'S']	[1888, 1122, 904, 760, 1456, 2670, 2448, 1224, 2059, 2245, 944, 986, 1029, 1587, 697, 1731]	14	Absent	NA	NA	ABSENT	0.3727090358734131	324.1459228992462	326.1545579433441	327.4379003365101	327.78790224383874	330.271301984787	4.116744041442871	[324.16519713401794, 324.28219294548035, 325.2546269893646, 325.43334102630615, 326.1841170787811, 326.3010630607605, 326.4177439212799, 326.5345380306244, 326.65131306648254, 326.76809310913086, 326.8847839832306, 327.0017421245575, 327.11831402778625, 327.235454082489, 327.35190510749817, 327.46882915496826, 327.58547711372375, 327.70218896865845, 327.81914710998535, 327.9359130859375, 328.0526850223541, 328.2713041305542]	[324.1674342810028, 324.2841009476628, 325.2671009476628, 325.4338009476628, 326.1838009476628, 326.3004676143228, 326.41713428098285, 326.5338009476429, 326.6504676143029, 326.7671342809629, 326.88380094762294, 327.00046761428297, 327.117134280943, 327.233800947603, 327.35046761426304, 327.46713428092306, 327.5838009475831, 327.7004676142431, 327.81713428090313, 327.93380094756316, 328.0504676142232, 328.28380094755653]	2021_Feb_05_1123	60.00349065106365	1	0.375
25	55	FALSE	VV	a	['R', 'Z', 'V', 'H', 'B', 'surprise', 'A', 'P', 'X', 'K', 'C', 'T', 'E', 'J', 'S', 'G']	[1587, 2911, 2245, 986, 760, 'stimAuditory/all_stimAuditory/107.wav', 697, 1456, 4000, 1122, 829, 1888, 904, 1029, 1731, 944]	9	Present	NA	NA	ABSENT	0.13811492919921875	330.26915097236633	332.27108693122864	332.97109503742035	333.32109694474894	336.3876700401306	4.1165831089019775	[330.2884259223938, 330.4052860736847, 331.37099409103394, 331.55634093284607, 332.3075249195099, 332.423947095871, 332.5407609939575, 332.6577489376068, 332.77450013160706, 332.8912761211395, 333.00799107551575, 333.124881029129, 333.2419550418854, 333.3585000038147, 333.47540307044983, 333.59198808670044, 333.7088689804077, 333.8256731033325, 333.9255471229553, 334.04232597351074, 334.15918803215027, 334.3876700401306]	[330.28380094755653, 330.40046761421655, 331.38346761421656, 331.55016761421655, 332.30016761421655, 332.41683428087657, 332.5335009475366, 332.6501676141966, 332.76683428085664, 332.88350094751667, 333.0001676141767, 333.1168342808367, 333.23350094749674, 333.35016761415676, 333.4668342808168, 333.5835009474768, 333.70016761413683, 333.81683428079685, 333.9335009474569, 334.0501676141169, 334.1668342807769, 334.4001676141103]	2021_Feb_05_1123	60.00349065106365	1	0.375
25	56	FALSE	NN	a	['W', 'K', 'S', 'Y', 'G', 'J', 'V', 'U', 'R', 'N', 'A', 'T', 'B', 'Z', 'C', 'E']	[2448, 1122, 1731, 2670, 944, 1029, 2245, 2059, 1587, 1335, 697, 1888, 760, 2911, 829, 904]	11	Absent	NA	NA	ABSENT	0.35877299308776855	336.3755929470062	338.38729906082153	339.320641215589	339.67064336133615	342.5040371417999	4.1167380809783936	[336.39486598968506, 336.51170206069946, 337.48736095428467, 337.6631510257721, 338.4137279987335, 338.5305860042572, 338.64752197265625, 338.76415395736694, 338.88102197647095, 338.99780011177063, 339.1146750450134, 339.23143315315247, 339.348051071167, 339.46510314941406, 339.5817129611969, 339.6986849308014, 339.8152120113373, 339.932186126709, 340.04884815216064, 340.16577196121216, 340.28246212005615, 340.50403594970703]	[336.4001676141103, 336.5168342807703, 337.4998342807703, 337.6665342807703, 338.4165342807703, 338.5332009474303, 338.64986761409034, 338.76653428075036, 338.8832009474104, 338.9998676140704, 339.11653428073043, 339.23320094739046, 339.3498676140505, 339.4665342807105, 339.5832009473705, 339.69986761403055, 339.8165342806906, 339.9332009473506, 340.0498676140106, 340.16653428067065, 340.28320094733067, 340.516534280664]	2021_Feb_05_1123	60.00349065106365	1	0.375
25	57	FALSE	NA	a	['R', 'G', 'B', 'W', 'U', 'A', 'T', 'Z', 'P', 'E', 'S', 'C', 'X', 'M', 'V', 'N']	[1587, 944, 760, 2448, 2059, 697, 1888, 2911, 1456, 904, 1731, 829, 4000, 1224, 2245, 1335]	13	Present	NA	NA	PRESENT	0.03512811660766601	342.499165058136	344.5036540031433	345.6703297296493	346.02033068330365	348.620402097702	4.116748094558716	[342.51843905448914, 342.6348159313202, 343.60372614860535, 343.7863130569458, 344.53699803352356, 344.65386509895325, 344.77063393592834, 344.88754510879517, 345.00412702560425, 345.1211111545563, 345.23798394203186, 345.354651927948, 345.4715030193329, 345.58806705474854, 345.7050049304962, 345.82169699668884, 345.9387159347534, 346.05540108680725, 346.17207312583923, 346.2889840602875, 346.4057309627533, 346.620402097702]	[342.516534280664, 342.63320094732404, 343.61620094732405, 343.78290094732404, 344.53290094732404, 344.64956761398406, 344.7662342806441, 344.8829009473041, 344.99956761396413, 345.11623428062416, 345.2329009472842, 345.3495676139442, 345.4662342806042, 345.58290094726425, 345.6995676139243, 345.8162342805843, 345.9329009472443, 346.04956761390434, 346.16623428056437, 346.2829009472244, 346.3995676138844, 346.63290094721776]	2021_Feb_05_1123	60.00349065106365	1	0.375
25	58	FALSE	NN	a	['P', 'U', 'C', 'G', 'S', 'A', 'J', 'V', 'N', 'W', 'Z', 'Y', 'R', 'B', 'E', 'M']	[1456, 2059, 829, 944, 1731, 697, 1029, 2245, 1335, 2448, 2911, 2670, 1587, 760, 904, 1224]	8	Absent	NA	NA	ABSENT	0.29657602310180664	348.6221148967743	350.6201238632202	351.2034662564262	351.55346816375487	354.73677015304565	4.1166462898254395	[348.641389131546, 348.7582731246948, 349.7200939655304, 349.89262413978577, 350.66021394729614, 350.7601389884949, 350.87697100639343, 350.99378514289856, 351.11056995391846, 351.2274241447449, 351.3444199562073, 351.4612159729004, 351.5778181552887, 351.69482803344727, 351.8114240169525, 351.92862010002136, 352.04495906829834, 352.161828994751, 352.27867102622986, 352.3953981399536, 352.5120460987091, 352.73677015304565]	[348.63290094721776, 348.7495676138778, 349.7325676138778, 349.8992676138778, 350.6492676138778, 350.7659342805378, 350.88260094719783, 350.99926761385785, 351.1159342805179, 351.2326009471779, 351.3492676138379, 351.46593428049795, 351.58260094715797, 351.699267613818, 351.815934280478, 351.93260094713804, 352.04926761379807, 352.1659342804581, 352.2826009471181, 352.39926761377814, 352.51593428043816, 352.7492676137715]	2021_Feb_05_1123	60.00349065106365	1	0.375
25	59	FALSE	NN	a	['N', 'B', 'R', 'E', 'V', 'Z', 'U', 'S', 'K', 'C', 'Y', 'J', 'A', 'P', 'H', 'G']	[1335, 760, 1587, 904, 2245, 2911, 2059, 1731, 1122, 829, 2670, 1029, 697, 1456, 986, 944]	11	Absent	NA	NA	ABSENT	0.8369951248168945	354.72869992256165	356.73659205436707	357.6699332554602	358.0199351627888	360.8531370162964	4.116544961929321	[354.7479739189148, 354.8646969795227, 355.8364601135254, 356.01596212387085, 356.76664900779724, 356.8836760520935, 357.000244140625, 357.11697602272034, 357.23434615135193, 357.3507869243622, 357.4675340652466, 357.58416295051575, 357.70108008384705, 357.8178520202637, 357.93462896347046, 358.0515570640564, 358.1683659553528, 358.2849221229553, 358.4017939567566, 358.5186939239502, 358.6354820728302, 358.8531370162964]	[354.7492676137715, 354.86593428043153, 355.84893428043154, 356.0156342804315, 356.7656342804315, 356.88230094709155, 356.9989676137516, 357.1156342804116, 357.2323009470716, 357.34896761373165, 357.46563428039167, 357.5823009470517, 357.6989676137117, 357.81563428037174, 357.93230094703176, 358.0489676136918, 358.1656342803518, 358.28230094701183, 358.39896761367186, 358.5156342803319, 358.6323009469919, 358.86563428032525]	2021_Feb_05_1123	60.00349065106365	1	0.375
25	60	FALSE	NN	a	['W', 'J', 'K', 'N', 'B', 'T', 'Z', 'R', 'H', 'A', 'E', 'M', 'V', 'Y', 'S', 'P']	[2448, 1029, 1122, 1335, 760, 1888, 2911, 1587, 986, 697, 904, 1224, 2245, 2670, 1731, 1456]	8	Absent	NA	NA	ABSENT	0.33039307594299316	360.8517138957978	362.8528900146485	363.4362312157615	363.7862321694159	366.9695019721985	4.116611957550049	[360.87098813056946, 360.98802304267883, 361.9528260231018, 362.13953495025635, 362.8900990486145, 363.0065619945526, 363.1235330104828, 363.2403039932251, 363.3572280406952, 363.4738290309906, 363.5907230377197, 363.69060611724854, 363.8243761062622, 363.92430114746094, 364.0410590171814, 364.1578531265259, 364.2746319770813, 364.3915090560913, 364.5082960128784, 364.62497901916504, 364.74176812171936, 364.9695019721985]	[360.86563428032525, 360.9823009469853, 361.9653009469853, 362.1320009469853, 362.8820009469853, 362.9986676136453, 363.1153342803053, 363.23200094696534, 363.34866761362537, 363.4653342802854, 363.5820009469454, 363.69866761360544, 363.81533428026546, 363.9320009469255, 364.0486676135855, 364.16533428024553, 364.28200094690555, 364.3986676135656, 364.5153342802256, 364.6320009468856, 364.74866761354565, 364.982000946879]	2021_Feb_05_1123	60.00349065106365	1	0.375
25	61	FALSE	VV	a	['C', 'W', 'R', 'J', 'T', 'Y', 'P', 'M', 'surprise', 'E', 'V', 'X', 'B', 'G', 'Z', 'H']	[829, 2448, 1587, 1029, 1888, 2670, 1456, 1224, 'stimAuditory/all_stimAuditory/217.wav', 904, 2245, 4000, 760, 944, 2911, 986]	12	Present	NA	NA	ABSENT	0.4788179397583008	366.9582068920135	368.9693429470062	370.0193520068522	370.36935391418086	373.0858690738678	4.116526126861572	[366.9774820804596, 367.09437799453735, 368.0691931247711, 368.24554800987244, 368.996297121048, 369.113322019577, 369.2300019264221, 369.34690499305725, 369.4637291431427, 369.58044695854187, 369.69713401794434, 369.8140969276428, 369.93077397346497, 370.0476679801941, 370.1643259525299, 370.28129601478577, 370.39794301986694, 370.5146999359131, 370.631560087204, 370.7481710910797, 370.8652379512787, 371.0858700275421]	[366.982000946879, 367.098667613539, 368.081667613539, 368.248367613539, 368.998367613539, 369.11503428019904, 369.23170094685906, 369.3483676135191, 369.4650342801791, 369.58170094683913, 369.69836761349916, 369.8150342801592, 369.9317009468192, 370.04836761347923, 370.16503428013925, 370.2817009467993, 370.3983676134593, 370.5150342801193, 370.63170094677935, 370.74836761343937, 370.8650342800994, 371.09836761343274]	2021_Feb_05_1123	60.00349065106365	1	0.375
25	62	FALSE	NN	a	['Y', 'P', 'G', 'H', 'N', 'K', 'U', 'Z', 'C', 'R', 'M', 'B', 'W', 'T', 'V', 'A']	[2670, 1456, 944, 986, 1335, 1122, 2059, 2911, 829, 1587, 1224, 760, 2448, 1888, 2245, 697]	12	Absent	NA	NA	ABSENT	0.61136794090271	373.0819458961487	375.08568501472473	376.1356928824778	376.48569502822505	379.2022359371186	4.116550922393799	[373.1012201309204, 373.21774411201477, 374.18555998802185, 374.36882996559143, 375.11977314949036, 375.2364430427551, 375.353374004364, 375.47008204460144, 375.58690309524536, 375.70349311828613, 375.8203921318054, 375.9371831417084, 376.0540380477905, 376.17077112197876, 376.2877531051636, 376.4043679237366, 376.5212879180908, 376.6379220485687, 376.7548429965973, 376.87154603004456, 376.9883711338043, 377.20223593711853]	[373.09836761343274, 373.21503428009277, 374.19803428009277, 374.36473428009276, 375.11473428009276, 375.2314009467528, 375.3480676134128, 375.46473428007283, 375.58140094673286, 375.6980676133929, 375.8147342800529, 375.9314009467129, 376.04806761337295, 376.164734280033, 376.281400946693, 376.398067613353, 376.51473428001304, 376.63140094667307, 376.7480676133331, 376.8647342799931, 376.98140094665314, 377.2147342799865]	2021_Feb_05_1123	60.00349065106365	1	0.375
25	63	FALSE	NN	a	['Z', 'U', 'E', 'T', 'M', 'J', 'G', 'R', 'K', 'P', 'N', 'C', 'V', 'W', 'Y', 'H']	[2911, 2059, 904, 1888, 1224, 1029, 944, 1587, 1122, 1456, 1335, 829, 2245, 2448, 2670, 986]	12	Absent	NA	NA	ABSENT	0.2807888984680176	379.2047560214996	381.2018859386444	382.2518940448161	382.60189595214473	385.3186020851135	4.116716146469116	[379.2240300178528, 379.32398200035095, 380.30192708969116, 380.475261926651, 381.2260000705719, 381.34299898147583, 381.4595630168915, 381.5765850543976, 381.69318294525146, 381.8102240562439, 381.927050113678, 382.04368114471436, 382.1605839729309, 382.27723002433777, 382.39412903785706, 382.51099610328674, 382.6275770664215, 382.7445869445801, 382.8615629673004, 382.9781539440155, 383.09491515159607, 383.31860303878784]	[379.2147342799865, 379.3314009466465, 380.3144009466465, 380.4811009466465, 381.2311009466465, 381.34776761330653, 381.46443427996655, 381.5811009466266, 381.6977676132866, 381.8144342799466, 381.93110094660665, 382.04776761326667, 382.1644342799267, 382.2811009465867, 382.39776761324674, 382.51443427990677, 382.6311009465668, 382.7477676132268, 382.86443427988684, 382.98110094654686, 383.0977676132069, 383.33110094654023]	2021_Feb_05_1123	60.00349065106365	1	0.375
25	64	FALSE	NA	a	['U', 'A', 'H', 'J', 'Z', 'N', 'S', 'E', 'V', 'Y', 'W', 'X', 'C', 'K', 'B', 'R']	[2059, 697, 986, 1029, 2911, 1335, 1731, 904, 2245, 2670, 2448, 4000, 829, 1122, 760, 1587]	12	Present	NA	NA	PRESENT	0.03730893135070801	385.3113269805908	387.3186068534851	388.3686149596568	388.7186168669854	391.4349701404571	4.116363286972046	[385.33060097694397, 385.4473340511322, 386.4182939529419, 386.59844493865967, 387.34928798675537, 387.4660789966583, 387.5828239917755, 387.6997220516205, 387.8165421485901, 387.93314504623413, 388.05008912086487, 388.1670060157776, 388.2836630344391, 388.4003870487213, 388.5173659324646, 388.6339840888977, 388.75097608566284, 388.8675401210785, 388.9845190048218, 389.10127210617065, 389.21802711486816, 389.43496894836426]	[385.33110094654023, 385.44776761320026, 386.43076761320026, 386.59746761320025, 387.34746761320025, 387.4641342798603, 387.5808009465203, 387.6974676131803, 387.81413427984035, 387.93080094650037, 388.0474676131604, 388.1641342798204, 388.28080094648044, 388.39746761314046, 388.5141342798005, 388.6308009464605, 388.74746761312053, 388.86413427978056, 388.9808009464406, 389.0974676131006, 389.21413427976063, 389.447467613094]	2021_Feb_05_1123	60.00349065106365	1	0.375
25	65	FALSE	AA	a	['R', 'C', 'M', 'V', 'A', 'J', 'P', 'surprise', 'Z', 'H', 'X', 'T', 'W', 'E', 'Y', 'N']	[1587, 829, 1224, 2245, 697, 1029, 1456, 'stimAuditory/all_stimAuditory/117.wav', 2911, 986, 4000, 1888, 2448, 904, 2670, 1335]	11	Present	stimAuditory/all_stimAuditory/119.wav	NA	ABSENT	0.3466620445251465	391.4344968795776	393.43465304374695	394.3679942448401	394.7179963905873	397.5513370037079	4.1166839599609375	[391.45377111434937, 391.5704710483551, 392.5346610546112, 392.7217469215393, 393.4728190898895, 393.5893909931183, 393.68918013572693, 393.8059940338135, 393.9228389263153, 394.0396649837494, 394.15639209747314, 394.27317905426025, 394.39008498191833, 394.5067789554596, 394.6236729621887, 394.7404520511627, 394.8571960926056, 394.9742441177368, 395.09086203575134, 395.2078380584717, 395.3244071006775, 395.55133605003357]	[391.447467613094, 391.564134279754, 392.547134279754, 392.713834279754, 393.463834279754, 393.580500946414, 393.69716761307404, 393.81383427973407, 393.9305009463941, 394.0471676130541, 394.16383427971414, 394.28050094637416, 394.3971676130342, 394.5138342796942, 394.63050094635423, 394.74716761301426, 394.8638342796743, 394.9805009463343, 395.0971676129943, 395.21383427965435, 395.3305009463144, 395.5638342796477]	2021_Feb_05_1123	60.00349065106365	1	0.375
25	66	FALSE	NV	a	['H', 'V', 'C', 'R', 'T', 'P', 'Z', 'M', 'G', 'N', 'E', 'X', 'A', 'W', 'K', 'S']	[986, 2245, 829, 1587, 1888, 1456, 2911, 1224, 944, 1335, 904, 4000, 697, 2448, 1122, 1731]	12	Present	NA	NA	PRESENT	0.07105183601379395	397.5410358905792	399.55081605911255	400.6008239268656	400.9508258341943	403.66770195961	4.1168859004974365	[397.56031012535095, 397.67683005332947, 398.651025056839, 398.8280689716339, 399.5789279937744, 399.6958861351013, 399.81247901916504, 399.9293329715729, 400.0460879802704, 400.16303610801697, 400.2797861099243, 400.3964030742645, 400.51325702667236, 400.6299879550934, 400.74693608283997, 400.86372804641724, 400.9805769920349, 401.09731912612915, 401.2141411304474, 401.33070707321167, 401.44768595695496, 401.66770195961]	[397.5638342796477, 397.68050094630775, 398.66350094630775, 398.83020094630774, 399.58020094630774, 399.69686761296776, 399.8135342796278, 399.9302009462878, 400.04686761294784, 400.16353427960786, 400.2802009462679, 400.3968676129279, 400.51353427958793, 400.63020094624795, 400.746867612908, 400.863534279568, 400.980200946228, 401.09686761288805, 401.21353427954807, 401.3302009462081, 401.4468676128681, 401.68020094620147]	2021_Feb_05_1123	60.00349065106365	1	0.375
25	67	FALSE	NV	a	['Z', 'E', 'W', 'C', 'G', 'B', 'R', 'X', 'T', 'U', 'H', 'K', 'S', 'M', 'V', 'J']	[2911, 904, 2448, 829, 944, 760, 1587, 4000, 1888, 2059, 986, 1122, 1731, 1224, 2245, 1029]	8	Present	NA	NA	PRESENT	0.05948996543884277	403.66430497169495	405.6674239635467	406.25076516465987	406.6007682640814	409.7840700149536	4.11664605140686	[403.6835799217224, 403.8001711368561, 404.7673919200897, 404.9515690803528, 405.7021999359131, 405.81906509399414, 405.93566703796387, 406.0523669719696, 406.16927695274353, 406.2861671447754, 406.4029541015625, 406.51968002319336, 406.6365740299225, 406.75322794914246, 406.86996698379517, 406.9867889881134, 407.1037321090698, 407.2204899787903, 407.33736515045166, 407.45392394065857, 407.5708980560303, 407.7840700149536]	[403.68020094620147, 403.7968676128615, 404.7798676128615, 404.9465676128615, 405.6965676128615, 405.8132342795215, 405.92990094618153, 406.04656761284156, 406.1632342795016, 406.2799009461616, 406.3965676128216, 406.51323427948165, 406.6299009461417, 406.7465676128017, 406.8632342794617, 406.97990094612175, 407.09656761278177, 407.2132342794418, 407.3299009461018, 407.44656761276184, 407.56323427942186, 407.7965676127552]	2021_Feb_05_1123	60.00349065106365	1	0.375
25	68	FALSE	AA	a	['M', 'E', 'P', 'Z', 'J', 'Y', 'K', 'H', 'C', 'B', 'surprise', 'U', 'N', 'X', 'G', 'S']	[1224, 904, 1456, 2911, 1029, 2670, 1122, 986, 829, 760, 'stimAuditory/all_stimAuditory/115.wav', 2059, 1335, 4000, 944, 1731]	14	Present	stimAuditory/all_stimAuditory/201.wav	NA	PRESENT	1.0728399753570557	409.77047300338745	411.7836658954621	413.0670073349537	413.41700924228235	415.90043592453	4.116770029067993	[409.7897469997406, 409.90656995773315, 410.88376092910767, 411.05779814720154, 411.80847692489624, 411.92554211616516, 412.04238200187683, 412.15900897979736, 412.27564311027527, 412.39259696006775, 412.5093071460724, 412.6262650489807, 412.7429270744324, 412.86002707481384, 412.9765770435333, 413.0932641029358, 413.2101459503174, 413.32705307006836, 413.4437210559845, 413.56043100357056, 413.6773419380188, 413.90043592453003]	[409.7965676127552, 409.91323427941524, 410.89623427941524, 411.06293427941523, 411.81293427941523, 411.92960094607525, 412.0462676127353, 412.1629342793953, 412.2796009460553, 412.39626761271535, 412.5129342793754, 412.6296009460354, 412.7462676126954, 412.86293427935544, 412.97960094601547, 413.0962676126755, 413.2129342793355, 413.32960094599554, 413.44626761265556, 413.5629342793156, 413.6796009459756, 413.91293427930896]	2021_Feb_05_1123	60.00349065106365	1	0.375
25	69	FALSE	NV	a	['Z', 'R', 'N', 'S', 'A', 'M', 'B', 'E', 'Y', 'X', 'V', 'U', 'C', 'K', 'H', 'W']	[2911, 1587, 1335, 1731, 697, 1224, 760, 904, 2670, 4000, 2245, 2059, 829, 1122, 986, 2448]	10	Present	NA	NA	PRESENT	1.229651927947998	415.8936460018158	417.9000630378723	418.7167366186311	419.06673852595975	422.016802072525	4.11673903465271	[415.91291999816895, 416.0299460887909, 417.000128030777, 417.18101692199707, 417.9318780899048, 418.04849195480347, 418.1653881072998, 418.2823259830475, 418.3990309238434, 418.5158100128174, 418.63264513015747, 418.7494180202484, 418.8662259578705, 418.9828860759735, 419.09966492652893, 419.21643114089966, 419.3334491252899, 419.4500379562378, 419.5669701099396, 419.6837799549103, 419.8005449771881, 420.016802072525]	[415.91293427930896, 416.029600945969, 417.012600945969, 417.179300945969, 417.929300945969, 418.045967612629, 418.162634279289, 418.27930094594905, 418.39596761260907, 418.5126342792691, 418.6293009459291, 418.74596761258914, 418.86263427924916, 418.9793009459092, 419.0959676125692, 419.21263427922923, 419.32930094588926, 419.4459676125493, 419.5626342792093, 419.67930094586933, 419.79596761252935, 420.0293009458627]	2021_Feb_05_1123	60.00349065106365	1	0.375
25	70	FALSE	NN	a	['T', 'E', 'G', 'S', 'Y', 'K', 'U', 'J', 'V', 'H', 'N', 'Z', 'R', 'C', 'M', 'W']	[1888, 904, 944, 1731, 2670, 1122, 2059, 1029, 2245, 986, 1335, 2911, 1587, 829, 1224, 2448]	10	Absent	NA	NA	ABSENT	0.05881905555725098	422.01709389686584	424.0167770385742	424.8334525266816	425.18345467242887	428.13317012786865	4.116393089294434	[422.0363800525665, 422.15313506126404, 423.1164939403534, 423.3047001361847, 424.0550560951233, 424.15499997138977, 424.27175211906433, 424.3886411190033, 424.5052869319916, 424.62233996391296, 424.73891401290894, 424.8558931350708, 424.9725239276886, 425.08950996398926, 425.20610213279724, 425.32306599617004, 425.4397370815277, 425.5566260814667, 425.67321395874023, 425.7900011539459, 425.90680503845215, 426.13316798210144]	[422.0293009458627, 422.1459676125227, 423.12896761252273, 423.2956676125227, 424.0456676125227, 424.16233427918274, 424.27900094584277, 424.3956676125028, 424.5123342791628, 424.62900094582284, 424.74566761248286, 424.8623342791429, 424.9790009458029, 425.09566761246293, 425.21233427912296, 425.329000945783, 425.445667612443, 425.562334279103, 425.67900094576305, 425.7956676124231, 425.9123342790831, 426.14566761241645]	2021_Feb_05_1123	60.00349065106365	1	0.375
25	71	FALSE	NN	a	['U', 'P', 'Z', 'A', 'K', 'M', 'W', 'B', 'V', 'Y', 'C', 'N', 'S', 'G', 'T', 'J']	[2059, 1456, 2911, 697, 1122, 1224, 2448, 760, 2245, 2670, 829, 1335, 1731, 944, 1888, 1029]	11	Absent	NA	NA	ABSENT	0.31140804290771484	428.1233370304108	430.1328220367432	431.0661632378363	431.41616538358346	434.24953603744507	4.116714000701904	[428.14262413978577, 428.2594950199127, 429.2328600883484, 429.4105820655823, 430.161376953125, 430.27844405174255, 430.3951060771942, 430.51199102401733, 430.62863397598267, 430.7453079223633, 430.86231303215027, 430.9788451194763, 431.0958731174469, 431.2126359939575, 431.32938599586487, 431.4462540149689, 431.5629560947418, 431.6796751022339, 431.79664492607117, 431.91319012641907, 432.0302629470825, 432.2495379447937]	[428.14566761241645, 428.26233427907647, 429.2453342790765, 429.41203427907647, 430.16203427907647, 430.2787009457365, 430.3953676123965, 430.51203427905654, 430.62870094571656, 430.7453676123766, 430.8620342790366, 430.97870094569663, 431.09536761235665, 431.2120342790167, 431.3287009456767, 431.4453676123367, 431.56203427899675, 431.6787009456568, 431.7953676123168, 431.9120342789768, 432.02870094563684, 432.2620342789702]	2021_Feb_05_1123	60.00349065106365	1	0.375
25	72	FALSE	NN	a	['V', 'W', 'K', 'U', 'C', 'M', 'E', 'T', 'Z', 'J', 'S', 'H', 'N', 'G', 'Y', 'B']	[2245, 2448, 1122, 2059, 829, 1224, 904, 1888, 2911, 1029, 1731, 986, 1335, 944, 2670, 760]	13	Absent	NA	NA	ABSENT	0.15596795082092285	434.2467908859253	436.2493598461151	437.4160346189468	437.76603652627546	440.3659031391144	4.116543292999268	[434.26606607437134, 434.3827950954437, 435.3492269515991, 435.5339210033417, 436.2847020626068, 436.40146803855896, 436.51844906806946, 436.6350049972534, 436.7520070075989, 436.868488073349, 436.98544907569885, 437.1021580696106, 437.2190110683441, 437.3357090950012, 437.4526410102844, 437.56920194625854, 437.685977935791, 437.8030869960785, 437.91976594924927, 438.0366449356079, 438.1532471179962, 438.3659031391144]	[434.2620342789702, 434.3787009456302, 435.3617009456302, 435.5284009456302, 436.2784009456302, 436.39506761229023, 436.51173427895026, 436.6284009456103, 436.7450676122703, 436.8617342789303, 436.97840094559035, 437.0950676122504, 437.2117342789104, 437.3284009455704, 437.44506761223045, 437.56173427889047, 437.6784009455505, 437.7950676122105, 437.91173427887054, 438.02840094553056, 438.1450676121906, 438.37840094552394]	2021_Feb_05_1123	60.00349065106365	1	0.375
25	73	FALSE	NV	a	['M', 'N', 'Z', 'S', 'W', 'E', 'C', 'U', 'B', 'A', 'X', 'G', 'R', 'K', 'T', 'V']	[1224, 1335, 2911, 1731, 2448, 904, 829, 2059, 760, 697, 4000, 944, 1587, 1122, 1888, 2245]	11	Present	NA	NA	PRESENT	0.22514081001281736	440.3529059886933	442.3656039237976	443.2989453633093	443.6489463169636	446.4822690486908	4.1166651248931885	[440.3721799850464, 440.4891691207886, 441.4655909538269, 441.6402180194855, 442.3909709453583, 442.50809597969055, 442.6246600151062, 442.74162912368774, 442.8582990169525, 442.9751720428467, 443.091833114624, 443.2086989879608, 443.3255009651184, 443.4423670768738, 443.55903005599976, 443.67593908309937, 443.7926170825958, 443.90964913368225, 444.0262520313263, 444.1428790092468, 444.25964403152466, 444.4822690486908]	[440.37840094552394, 440.49506761218396, 441.47806761218396, 441.64476761218395, 442.39476761218395, 442.511434278844, 442.628100945504, 442.744767612164, 442.86143427882405, 442.9781009454841, 443.0947676121441, 443.2114342788041, 443.32810094546414, 443.44476761212417, 443.5614342787842, 443.6781009454442, 443.79476761210424, 443.91143427876426, 444.0281009454243, 444.1447676120843, 444.26143427874433, 444.4947676120777]	2021_Feb_05_1123	60.00349065106365	1	0.375
25	74	FALSE	NV	a	['Y', 'K', 'W', 'R', 'S', 'Z', 'B', 'A', 'P', 'H', 'N', 'J', 'T', 'X', 'C', 'M']	[2670, 1122, 2448, 1587, 1731, 2911, 760, 697, 1456, 986, 1335, 1029, 1888, 4000, 829, 1224]	14	Present	NA	NA	PRESENT	0.32582616806030273	446.47615599632263	448.4821009635926	449.7654421646656	450.1154443104128	452.5986371040344	4.1165361404418945	[446.495432138443, 446.6124269962311, 447.58195900917053, 447.7634770870209, 448.51429200172424, 448.631227016449, 448.7480089664459, 448.86476492881775, 448.9815800189972, 449.0981390476227, 449.21507596969604, 449.33167815208435, 449.44866609573364, 449.56534814834595, 449.6820559501648, 449.79907608032227, 449.9158639907837, 450.0325360298157, 450.14938402175903, 450.26622104644775, 450.38305497169495, 450.5986361503601]	[446.4947676120777, 446.6114342787377, 447.5944342787377, 447.7611342787377, 448.5111342787377, 448.6278009453977, 448.74446761205775, 448.86113427871777, 448.9778009453778, 449.0944676120378, 449.21113427869784, 449.32780094535786, 449.4444676120179, 449.5611342786779, 449.67780094533794, 449.79446761199796, 449.911134278658, 450.027800945318, 450.14446761197803, 450.26113427863805, 450.3778009452981, 450.6111342786314]	2021_Feb_05_1123	60.00349065106365	1	0.375
25	75	FALSE	NA	a	['N', 'B', 'J', 'R', 'H', 'K', 'V', 'P', 'X', 'U', 'W', 'Y', 'S', 'T', 'Z', 'E']	[1335, 760, 1029, 1587, 986, 1122, 2245, 1456, 4000, 2059, 2448, 2670, 1731, 1888, 2911, 904]	9	Present	NA	NA	PRESENT	0.2589290142059326	452.59924602508545	454.5982148647308	455.29822392459687	455.64822583192546	458.7150020599365	4.1167871952056885	[452.6185200214386, 452.7356460094452, 453.69832396507263, 453.8700821399689, 454.6375370025635, 454.7374711036682, 454.8542399406433, 454.97123098373413, 455.0878469944, 455.2046449184418, 455.3215010166168, 455.43821907043457, 455.55497908592224, 455.6718580722809, 455.7887189388275, 455.9052951335907, 456.02221298217773, 456.1388509273529, 456.2558550834656, 456.3726260662079, 456.4894881248474, 456.7150020599365]	[452.6111342786314, 452.72780094529145, 453.71080094529145, 453.87750094529144, 454.62750094529144, 454.74416761195147, 454.8608342786115, 454.9775009452715, 455.09416761193154, 455.21083427859156, 455.3275009452516, 455.4441676119116, 455.56083427857163, 455.67750094523166, 455.7941676118917, 455.9108342785517, 456.0275009452117, 456.14416761187175, 456.2608342785318, 456.3775009451918, 456.4941676118518, 456.72750094518517]	2021_Feb_05_1123	60.00349065106365	1	0.375
25	76	FALSE	NN	a	['A', 'V', 'E', 'W', 'H', 'R', 'S', 'Z', 'C', 'J', 'P', 'M', 'B', 'N', 'T', 'K']	[697, 2245, 904, 2448, 986, 1587, 1731, 2911, 829, 1029, 1456, 1224, 760, 1335, 1888, 1122]	14	Absent	NA	NA	ABSENT	0.8557929992675781	458.70573687553406	460.7146110534668	461.9979522545399	462.3479541618686	464.83136892318726	4.116757869720459	[458.7250111103058, 458.8420181274414, 459.8147089481354, 459.9932310581207, 460.74390292167664, 460.86080408096313, 460.97738313674927, 461.0941879749298, 461.2110960483551, 461.32801604270935, 461.4447400569916, 461.5614049434662, 461.67833709716797, 461.79497599601746, 461.9116921424866, 462.0287039279938, 462.1454839706421, 462.26214814186096, 462.3791489601135, 462.4958550930023, 462.61271500587463, 462.83136892318726]	[458.72750094518517, 458.8441676118452, 459.8271676118452, 459.9938676118452, 460.7438676118452, 460.8605342785052, 460.97720094516524, 461.09386761182526, 461.2105342784853, 461.3272009451453, 461.44386761180533, 461.56053427846535, 461.6772009451254, 461.7938676117854, 461.9105342784454, 462.02720094510545, 462.1438676117655, 462.2605342784255, 462.3772009450855, 462.49386761174554, 462.61053427840557, 462.8438676117389]	2021_Feb_05_1123	60.00349065106365	1	0.375
25	77	FALSE	NA	a	['K', 'G', 'U', 'T', 'V', 'B', 'Z', 'N', 'X', 'P', 'C', 'M', 'H', 'E', 'W', 'J']	[1122, 944, 2059, 1888, 2245, 760, 2911, 1335, 4000, 1456, 829, 1224, 986, 904, 2448, 1029]	9	Present	NA	NA	PRESENT	0.341156005859375	464.829372882843	466.8311469554901	467.53115696903046	467.88115887635905	470.94773602485657	4.116589069366455	[464.8486490249634, 464.9650311470032, 465.9310600757599, 466.1163899898529, 466.8670630455017, 466.98384499549866, 467.100811958313, 467.2176070213318, 467.33442091941833, 467.45102310180664, 467.5680890083313, 467.68471002578735, 467.8015489578247, 467.918270111084, 468.0348811149597, 468.15181398391724, 468.2687740325928, 468.3854250907898, 468.50204396247864, 468.6190791130066, 468.7189929485321, 468.94773602485657]	[464.8438676117389, 464.96053427839894, 465.94353427839894, 466.11023427839893, 466.86023427839893, 466.97690094505896, 467.093567611719, 467.210234278379, 467.32690094503903, 467.44356761169905, 467.5602342783591, 467.6769009450191, 467.7935676116791, 467.91023427833915, 468.02690094499917, 468.1435676116592, 468.2602342783192, 468.37690094497924, 468.49356761163926, 468.6102342782993, 468.7269009449593, 468.96023427829266]	2021_Feb_05_1123	60.00349065106365	1	0.375
25	78	FALSE	NA	a	['V', 'Z', 'J', 'M', 'G', 'N', 'C', 'X', 'U', 'T', 'K', 'R', 'W', 'H', 'E', 'B']	[2245, 2911, 1029, 1224, 944, 1335, 829, 4000, 2059, 1888, 1122, 1587, 2448, 986, 904, 760]	8	Present	NA	NA	PRESENT	0.03338193893432617	470.93568086624146	472.947566986084	473.5309081871971	473.8809103329443	477.064101934433	4.116534948348999	[470.9549551010132, 471.0717420578003, 472.0474269390106, 472.22268295288086, 472.97350692749023, 473.090451002121, 473.2070879936218, 473.3240900039673, 473.44075202941895, 473.5576961040497, 473.6744511127472, 473.7911260128021, 473.90806794166565, 474.0245831012726, 474.14141297340393, 474.25826597213745, 474.3751530647278, 474.491760969162, 474.608745098114, 474.72549295425415, 474.8425691127777, 475.064101934433]	[470.96023427829266, 471.0769009449527, 472.0599009449527, 472.2266009449527, 472.9766009449527, 473.0932676116127, 473.2099342782727, 473.32660094493275, 473.4432676115928, 473.5599342782528, 473.6766009449128, 473.79326761157284, 473.90993427823287, 474.0266009448929, 474.1432676115529, 474.25993427821294, 474.37660094487296, 474.493267611533, 474.609934278193, 474.72660094485303, 474.84326761151306, 475.0766009448464]	2021_Feb_05_1123	60.00349065106365	1	0.375
25	79	FALSE	NN	a	['R', 'E', 'M', 'B', 'Y', 'T', 'C', 'V', 'G', 'P', 'U', 'Z', 'K', 'N', 'A', 'W']	[1587, 904, 1224, 760, 2670, 1888, 829, 2245, 944, 1456, 2059, 2911, 1122, 1335, 697, 2448]	10	Absent	NA	NA	ABSENT	0.30184412002563477	477.0586550235748	479.0636808872223	479.880355660074	480.2303575674026	483.1804690361023	4.116788148880005	[477.077929019928, 477.1948070526123, 478.16379499435425, 478.34599709510803, 479.0968120098114, 479.2136631011963, 479.3304400444031, 479.4470419883728, 479.5638179779053, 479.68078112602234, 479.79774594306946, 479.9143531322479, 480.03119111061096, 480.1478171348572, 480.26453614234924, 480.38156604766846, 480.4983289241791, 480.614874124527, 480.7320420742035, 480.84863805770874, 480.965558052063, 481.1804690361023]	[477.0766009448464, 477.1932676115064, 478.17626761150643, 478.3429676115064, 479.0929676115064, 479.20963427816645, 479.32630094482647, 479.4429676114865, 479.5596342781465, 479.67630094480654, 479.79296761146657, 479.9096342781266, 480.0263009447866, 480.14296761144664, 480.25963427810666, 480.3763009447667, 480.4929676114267, 480.60963427808673, 480.72630094474675, 480.8429676114068, 480.9596342780668, 481.19296761140015]	2021_Feb_05_1123	60.00349065106365	1	0.375
