participant	trial_num	practice	task	condition	RSVP	RAP	probePos	probe_presence	surprise_sound	surprise_img	probe_response	probe_resp_time	first_fixation_time	trial_start_time	surprise_start_time	probe_start_time	trial_end_time	trial_duration	actualEventTimes	plannedEventTimes	date	framerate	marker_vol	RAP_vol
15	1	FALSE	NV	v	['E', 'Z', 'K', 'A', 'Y', 'V', 'U', 'S', 'N', 'R', 'X', 'G', 'M', 'P', 'H', 'T']	[904, 2911, 1122, 697, 2670, 2245, 2059, 1731, 1335, 1587, 4000, 944, 1224, 1456, 986, 1888]	11	Present	NA	NA	PRESENT	0.1269071102142334	1.9073486328125e-6	2.002178907394409	2.9334588050842285	3.2839198112487793	6.103869915008545	4.101691007614136	[0.007422924041748047, 0.12409090995788574, 1.10829496383667, 1.2584178447723389, 2.025904893875122, 2.1428120136260986, 2.259542942047119, 2.376368999481201, 2.4932539463043213, 2.6101129055023193, 2.726613998413086, 2.8436288833618164, 2.9602999687194824, 3.07712984085083, 3.194000005722046, 3.310757875442505, 3.4274208545684814, 3.5441620349884033, 3.6609139442443848, 3.7779579162597656, 3.8780229091644287, 4.1038689613342285]	[9.5367431640625e-07, 0.11666762034098306, 1.099667620340983, 1.266367620340983, 2.016367620340983, 2.1330342870076495, 2.249700953674316, 2.366367620340983, 2.4830342870076496, 2.5997009536743163, 2.716367620340983, 2.8330342870076497, 2.9497009536743164, 3.066367620340983, 3.18303428700765, 3.2997009536743165, 3.416367620340983, 3.53303428700765, 3.6497009536743166, 3.7663676203409833, 3.88303428700765, 4.116367620340983]	2021_Jan_29_1057	59.89783546568834	1	1
15	2	FALSE	NA	v	['N', 'G', 'U', 'K', 'T', 'A', 'P', 'Y', 'R', 'C', 'M', 'B', 'X', 'V', 'W', 'Z']	[1335, 944, 2059, 1122, 1888, 697, 1456, 2670, 1587, 829, 1224, 760, 4000, 2245, 2448, 2911]	13	Present	NA	NA	PRESENT	0.1396629810333252	6.10621190071106	8.115360975265503	9.282387971878052	9.63253688812256	12.22023606300354	4.104875087738037	[6.113633871078491, 6.230342864990234, 7.214556932449341, 7.381648063659668, 8.132253885269165, 8.248975038528442, 8.365952014923096, 8.482768058776855, 8.59947395324707, 8.71624493598938, 8.833163976669312, 8.949816942214966, 9.066742897033691, 9.183413028717041, 9.300328016281128, 9.416918992996216, 9.534018993377686, 9.650500059127808, 9.767340898513794, 9.884008884429932, 10.000849962234497, 10.22023606300354]	[6.116367620340983, 6.23303428700765, 7.216034287007649, 7.382734287007649, 8.132734287007649, 8.249400953674316, 8.366067620340983, 8.48273428700765, 8.599400953674317, 8.716067620340985, 8.832734287007652, 8.949400953674319, 9.066067620340986, 9.182734287007653, 9.29940095367432, 9.416067620340987, 9.532734287007655, 9.649400953674322, 9.766067620340989, 9.882734287007656, 9.999400953674323, 10.232734287007656]	2021_Jan_29_1057	59.89783546568834	1	1
15	3	FALSE	NA	v	['Y', 'V', 'R', 'K', 'W', 'J', 'A', 'G', 'X', 'P', 'N', 'E', 'M', 'U', 'B', 'S']	[2670, 2245, 1587, 1122, 2448, 1029, 697, 944, 4000, 1456, 1335, 904, 1224, 2059, 760, 1731]	9	Present	NA	NA	PRESENT	0.08012199401855469	12.229180812835692	14.231812000274658	14.932223796844482	15.28207278251648	18.336602926254272	4.104790925979614	[12.236624956130981, 12.353209972381592, 13.337645053863525, 13.504606008529663, 14.255385875701904, 14.37198805809021, 14.488826036453247, 14.605674028396606, 14.722537994384766, 14.839196920394897, 14.956095933914185, 15.072793960571289, 15.189378023147583, 15.30639386177063, 15.422965049743652, 15.539981842041016, 15.656592845916748, 15.773494005203247, 15.89031195640564, 16.007145881652832, 16.12385892868042, 16.33660101890564]	[12.232734287007656, 12.349400953674323, 13.332400953674323, 13.499100953674324, 14.249100953674324, 14.365767620340991, 14.482434287007658, 14.599100953674325, 14.715767620340992, 14.83243428700766, 14.949100953674327, 15.065767620340994, 15.182434287007661, 15.299100953674328, 15.415767620340995, 15.532434287007662, 15.64910095367433, 15.765767620340997, 15.882434287007664, 15.999100953674331, 16.115767620340996, 16.34910095367433]	2021_Jan_29_1057	59.89783546568834	1	1
15	4	FALSE	NN	v	['G', 'Y', 'R', 'W', 'V', 'Z', 'P', 'J', 'U', 'A', 'N', 'C', 'B', 'T', 'E', 'S']	[944, 2670, 1587, 2448, 2245, 2911, 1456, 1029, 2059, 697, 1335, 829, 760, 1888, 904, 1731]	9	Absent	NA	NA	ABSENT	0.14931917190551758	18.33518099784851	20.348416805267338	21.048398971557617	21.398631811141968	24.4529709815979	4.104554176330566	[18.342602968215942, 18.45942997932434, 19.44375491142273, 19.611101865768433, 20.378206968307495, 20.47811484336853, 20.595253944396973, 20.7119300365448, 20.828507900238037, 20.94557285308838, 21.06236696243286, 21.178927898406982, 21.295943021774292, 21.412365913391113, 21.529485940933228, 21.646074056625366, 21.763059854507446, 21.879796981811523, 21.99661087989807, 22.113322973251343, 22.23011803627014, 22.45296883583069]	[18.34910095367433, 18.465767620340998, 19.448767620341, 19.615467620340997, 20.365467620340997, 20.482134287007664, 20.59880095367433, 20.715467620341, 20.832134287007666, 20.948800953674333, 21.065467620341, 21.182134287007667, 21.298800953674334, 21.415467620341, 21.53213428700767, 21.648800953674336, 21.765467620341003, 21.88213428700767, 21.998800953674337, 22.115467620341004, 22.23213428700767, 22.465467620341006]	2021_Jan_29_1057	59.89783546568834	1	1
15	5	FALSE	NN	v	['T', 'E', 'M', 'B', 'G', 'C', 'S', 'U', 'V', 'P', 'Z', 'N', 'R', 'H', 'W', 'K']	[1888, 904, 1224, 760, 944, 829, 1731, 2059, 2245, 1456, 2911, 1335, 1587, 986, 2448, 1122]	9	Absent	NA	NA	PRESENT	0.4257640838623047	24.458465814590458	26.46451187133789	27.165174961090088	27.514829874038696	30.569336891174316	4.104825019836426	[24.465888023376465, 24.58232283592224, 25.56702494621277, 25.733747959136963, 26.484477996826172, 26.601232051849365, 26.717963933944702, 26.834967851638794, 26.95164203643799, 27.06845498085022, 27.185057878494263, 27.301943063735962, 27.41874098777771, 27.535604000091553, 27.652294874191284, 27.769070863723755, 27.885864973068237, 28.002830982208252, 28.119415998458862, 28.236316919326782, 28.35298490524292, 28.569336891174316]	[24.465467620341006, 24.582134287007673, 25.565134287007673, 25.731834287007672, 26.481834287007672, 26.59850095367434, 26.715167620341006, 26.831834287007673, 26.94850095367434, 27.065167620341008, 27.181834287007675, 27.298500953674342, 27.41516762034101, 27.531834287007676, 27.648500953674343, 27.76516762034101, 27.881834287007678, 27.998500953674345, 28.115167620341012, 28.23183428700768, 28.348500953674346, 28.58183428700768]	2021_Jan_29_1057	59.89783546568834	1	1
15	6	FALSE	NV	v	['G', 'M', 'R', 'W', 'U', 'T', 'N', 'H', 'V', 'K', 'Y', 'A', 'X', 'C', 'B', 'P']	[944, 1224, 1587, 2448, 2059, 1888, 1335, 986, 2245, 1122, 2670, 697, 4000, 829, 760, 1456]	13	Present	NA	NA	PRESENT	0.10326790809631348	30.58148980140686	32.58091878890991	33.74789094924927	34.097815990448	36.68570399284363	4.104785203933716	[30.58891201019287, 30.705514907836914, 31.690031051635742, 31.856605052947998, 32.607282876968384, 32.72428584098816, 32.840961933135986, 32.95765686035156, 33.074652910232544, 33.19124388694763, 33.30801486968994, 33.425071001052856, 33.54182195663452, 33.65847396850586, 33.77518892288208, 33.892300844192505, 34.00904893875122, 34.12550497055054, 34.24245285987854, 34.359288930892944, 34.459418058395386, 34.68570303916931]	[30.58183428700768, 30.698500953674348, 31.681500953674348, 31.848200953674347, 32.59820095367435, 32.71486762034102, 32.831534287007685, 32.94820095367435, 33.06486762034102, 33.181534287007686, 33.29820095367435, 33.41486762034102, 33.53153428700769, 33.648200953674355, 33.76486762034102, 33.88153428700769, 33.998200953674356, 34.11486762034102, 34.23153428700769, 34.34820095367436, 34.464867620341025, 34.69820095367436]	2021_Jan_29_1057	59.89783546568834	1	1
15	7	FALSE	NN	v	['Y', 'V', 'P', 'S', 'W', 'N', 'B', 'A', 'H', 'T', 'M', 'Z', 'K', 'U', 'R', 'G']	[2670, 2245, 1456, 1731, 2448, 1335, 760, 697, 986, 1888, 1224, 2911, 1122, 2059, 1587, 944]	8	Absent	NA	NA	ABSENT	0.5078051090240479	36.68758797645569	38.69726300239563	39.2809898853302	39.63103485107422	42.80206990242005	4.104806900024414	[36.69500994682312, 36.811787843704224, 37.795989990234375, 37.962831020355225, 38.71353197097778, 38.8304169178009, 38.947197914123535, 39.06404495239258, 39.180948972702026, 39.29773688316345, 39.4144389629364, 39.531200885772705, 39.64787983894348, 39.76486086845398, 39.881402015686035, 39.998323917388916, 40.11515688896179, 40.23189091682434, 40.34861207008362, 40.465872049331665, 40.5821418762207, 40.80206894874573]	[36.69820095367436, 36.814867620341026, 37.79786762034102, 37.96456762034102, 38.71456762034102, 38.83123428700769, 38.947900953674356, 39.06456762034102, 39.18123428700769, 39.29790095367436, 39.414567620341025, 39.53123428700769, 39.64790095367436, 39.764567620341026, 39.88123428700769, 39.99790095367436, 40.11456762034103, 40.231234287007695, 40.34790095367436, 40.46456762034103, 40.581234287007696, 40.81456762034103]	2021_Jan_29_1057	59.89783546568834	1	1
15	8	FALSE	NV	v	['K', 'J', 'G', 'H', 'N', 'W', 'S', 'T', 'M', 'A', 'X', 'R', 'V', 'P', 'C', 'U']	[1122, 1029, 944, 986, 1335, 2448, 1731, 1888, 1224, 697, 4000, 1587, 2245, 1456, 829, 2059]	11	Present	NA	NA	PRESENT	0.08027315139770508	42.81069087982178	44.81356477737427	45.74722981452942	46.097862005233765	48.918437004089355	4.104872226715088	[42.8181209564209, 42.934556007385254, 43.9190309047699, 44.08598184585571, 44.83646488189697, 44.953458070755005, 45.070343017578125, 45.1870698928833, 45.303956031799316, 45.420706033706665, 45.53731083869934, 45.654195070266724, 45.77108287811279, 45.88775587081909, 46.00436496734619, 46.121405839920044, 46.23819088935852, 46.354766845703125, 46.47173285484314, 46.588594913482666, 46.70526194572449, 46.918437004089355]	[42.81456762034103, 42.9312342870077, 43.914234287007694, 44.08093428700769, 44.83093428700769, 44.94760095367436, 45.06426762034103, 45.180934287007695, 45.29760095367436, 45.41426762034103, 45.530934287007696, 45.64760095367436, 45.76426762034103, 45.8809342870077, 45.997600953674365, 46.11426762034103, 46.2309342870077, 46.347600953674366, 46.46426762034103, 46.5809342870077, 46.69760095367437, 46.9309342870077]	2021_Jan_29_1057	59.89783546568834	1	1
15	9	FALSE	NV	v	['U', 'J', 'C', 'P', 'H', 'K', 'G', 'S', 'Z', 'W', 'T', 'N', 'Y', 'X', 'R', 'A']	[2059, 1029, 829, 1456, 986, 1122, 944, 1731, 2911, 2448, 1888, 1335, 2670, 4000, 1587, 697]	14	Present	NA	NA	PRESENT	0.16553902626037598	48.916632890701294	50.92995882034302	52.21361684799194	52.56377696990967	55.03480291366577	4.104844093322754	[48.924054861068726, 49.04086899757385, 50.02526783943176, 50.19210195541382, 50.959818840026855, 51.05965495109558, 51.176379919052124, 51.29314088821411, 51.409924030303955, 51.52665400505066, 51.6433789730072, 51.76043105125427, 51.87713003158569, 51.99397301673889, 52.11065888404846, 52.22754406929016, 52.3443398475647, 52.46121692657471, 52.5777850151062, 52.69478392601013, 52.811436891555786, 53.03480386734009]	[48.9309342870077, 49.04760095367437, 50.030600953674366, 50.197300953674365, 50.947300953674365, 51.06396762034103, 51.1806342870077, 51.297300953674366, 51.41396762034103, 51.5306342870077, 51.64730095367437, 51.763967620341035, 51.8806342870077, 51.99730095367437, 52.113967620341036, 52.2306342870077, 52.34730095367437, 52.46396762034104, 52.580634287007705, 52.69730095367437, 52.81396762034104, 53.04730095367437]	2021_Jan_29_1057	59.89783546568834	1	1
15	10	FALSE	NN	v	['R', 'Y', 'C', 'P', 'W', 'N', 'J', 'Z', 'H', 'A', 'U', 'S', 'G', 'V', 'B', 'M']	[1587, 2670, 829, 1456, 2448, 1335, 1029, 2911, 986, 697, 2059, 1731, 944, 2245, 760, 1224]	8	Absent	NA	NA	ABSENT	0.2503979206085205	55.03980779647827	57.04650688171387	57.629995822906494	57.9801459312439	61.15117001533508	4.104663133621216	[55.04723000526428, 55.16398596763611, 56.14822793006897, 56.314950942993164, 57.0658278465271, 57.182514905929565, 57.299537897109985, 57.416308879852295, 57.533177852630615, 57.649850845336914, 57.766427993774414, 57.88333797454834, 58.000283002853394, 58.116801023483276, 58.23377084732056, 58.35064506530762, 58.4671950340271, 58.5839478969574, 58.70070004463196, 58.8176589012146, 58.93453502655029, 59.15116906166077]	[55.04730095367437, 55.16396762034104, 56.14696762034104, 56.313667620341036, 57.063667620341036, 57.1803342870077, 57.29700095367437, 57.41366762034104, 57.530334287007705, 57.64700095367437, 57.76366762034104, 57.880334287007706, 57.99700095367437, 58.11366762034104, 58.23033428700771, 58.347000953674375, 58.46366762034104, 58.58033428700771, 58.697000953674376, 58.81366762034104, 58.93033428700771, 59.163667620341045]	2021_Jan_29_1057	59.89783546568834	1	1
15	11	FALSE	NA	v	['B', 'A', 'J', 'W', 'S', 'R', 'M', 'Z', 'H', 'X', 'V', 'E', 'C', 'N', 'Y', 'T']	[760, 697, 1029, 2448, 1731, 1587, 1224, 2911, 986, 4000, 2245, 904, 829, 1335, 2670, 1888]	10	Present	NA	NA	PRESENT	0.14371609687805176	61.16309881210327	63.163036823272705	63.9797887802124	64.32968091964722	67.26753687858582	4.10450005531311	[61.17052102088928, 61.28693604469299, 62.27130103111267, 62.438026905059814, 63.188657999038696, 63.30566906929016, 63.422271966934204, 63.53930306434631, 63.655925989151, 63.77281403541565, 63.88974690437317, 64.00642085075378, 64.12312889099121, 64.23997187614441, 64.35667586326599, 64.47342896461487, 64.59026598930359, 64.70698285102844, 64.82395792007446, 64.94076895713806, 65.04078984260559, 65.2675359249115]	[61.163667620341045, 61.28033428700771, 62.26333428700771, 62.43003428700771, 63.18003428700771, 63.296700953674375, 63.41336762034104, 63.53003428700771, 63.646700953674376, 63.76336762034104, 63.88003428700771, 63.99670095367438, 64.11336762034104, 64.2300342870077, 64.34670095367436, 64.46336762034102, 64.58003428700768, 64.69670095367434, 64.813367620341, 64.93003428700766, 65.04670095367432, 65.28003428700765]	2021_Jan_29_1057	59.89783546568834	1	1
15	12	FALSE	AV	v	['A', 'U', 'H', 'Y', 'R', 'N', 'G', 'surprise', 'V', 'P', 'X', 'M', 'K', 'S', 'J', 'W']	[697, 2059, 986, 2670, 1587, 1335, 944, 'stimAuditory/all_stimAuditory/204.wav', 2245, 1456, 4000, 1224, 1122, 1731, 1029, 2448]	11	Present	stimAuditory/all_stimAuditory/204.wav	stimVisual/all_stimVisual/202.jpg	PRESENT	1.6999590396881104	67.26899194717407	69.27908396720886	70.2128119468689	70.56392884254456	73.38390398025513	4.104820013046265	[67.27641487121582, 67.39297199249268, 68.37732100486755, 68.54446792602539, 69.29494595527649, 69.411789894104, 69.52870988845825, 69.64544892311096, 69.76220202445984, 69.87891602516174, 69.99590492248535, 70.12921404838562, 70.22945284843445, 70.346195936203, 70.4632658958435, 70.57974886894226, 70.69639801979065, 70.81330299377441, 70.93000888824463, 71.04697489738464, 71.16366195678711, 71.38390398025513]	[67.28003428700765, 67.39670095367431, 68.37970095367432, 68.54640095367432, 69.29640095367432, 69.41306762034098, 69.52973428700764, 69.6464009536743, 69.76306762034096, 69.87973428700762, 69.99640095367428, 70.11306762034094, 70.2297342870076, 70.34640095367426, 70.46306762034092, 70.57973428700758, 70.69640095367424, 70.8130676203409, 70.92973428700756, 71.04640095367422, 71.16306762034088, 71.39640095367422]	2021_Jan_29_1057	59.89783546568834	1	1
15	13	FALSE	NN	v	['J', 'E', 'N', 'G', 'K', 'M', 'C', 'A', 'T', 'S', 'V', 'B', 'P', 'U', 'Z', 'Y']	[1029, 904, 1335, 944, 1122, 1224, 829, 697, 1888, 1731, 2245, 760, 1456, 2059, 2911, 2670]	11	Absent	NA	NA	ABSENT	0.4324510097503662	73.39185786247253	75.39540100097656	76.3290867805481	76.6792860031128	79.50026988983154	4.1048688888549805	[73.39928102493286, 73.51613402366638, 74.50069499015808, 74.6671450138092, 75.41802787780762, 75.53489899635315, 75.65151286125183, 75.76846194267273, 75.93512988090515, 76.00177788734436, 76.11868786811829, 76.2356288433075, 76.35221099853516, 76.46930503845215, 76.58595705032349, 76.70274901390076, 76.81950306892395, 76.93637299537659, 77.05312705039978, 77.16977190971375, 77.28660488128662, 77.50026988983154]	[73.39640095367422, 73.51306762034088, 74.49606762034088, 74.66276762034089, 75.41276762034089, 75.52943428700755, 75.6461009536742, 75.76276762034087, 75.87943428700753, 75.99610095367419, 76.11276762034085, 76.2294342870075, 76.34610095367417, 76.46276762034083, 76.57943428700749, 76.69610095367415, 76.81276762034081, 76.92943428700747, 77.04610095367413, 77.16276762034079, 77.27943428700745, 77.51276762034078]	2021_Jan_29_1057	59.89783546568834	1	1
15	14	FALSE	NV	v	['U', 'M', 'Y', 'G', 'V', 'E', 'P', 'X', 'K', 'J', 'C', 'T', 'S', 'B', 'A', 'R']	[2059, 1224, 2670, 944, 2245, 904, 1456, 4000, 1122, 1029, 829, 1888, 1731, 760, 697, 1587]	8	Present	NA	NA	PRESENT	0.1419510841369629	79.51467180252075	81.51192498207092	82.09541392326355	82.44576597213745	85.61663699150085	4.104712009429932	[79.52209401130676, 79.6221878528595, 80.60693597793579, 80.77358102798462, 81.54090905189514, 81.6408760547638, 81.75775194168091, 81.87465190887451, 81.99134397506714, 82.10813093185425, 82.22488689422607, 82.34170603752136, 82.45843005180359, 82.57546401023865, 82.6920690536499, 82.80892992019653, 82.925626039505, 83.04260587692261, 83.15944004058838, 83.27611994743347, 83.393061876297, 83.61663603782654]	[79.51276762034078, 79.62943428700744, 80.61243428700745, 80.77913428700745, 81.52913428700745, 81.64580095367411, 81.76246762034077, 81.87913428700743, 81.99580095367409, 82.11246762034075, 82.22913428700741, 82.34580095367407, 82.46246762034073, 82.57913428700739, 82.69580095367405, 82.81246762034071, 82.92913428700737, 83.04580095367403, 83.16246762034069, 83.27913428700735, 83.39580095367401, 83.62913428700735]	2021_Jan_29_1057	59.89783546568834	1	1
15	15	FALSE	VA	v	['C', 'W', 'Z', 'V', 'G', 'surprise', 'K', 'P', 'X', 'M', 'R', 'U', 'J', 'A', 'Y', 'H']	[829, 2448, 2911, 2245, 944, 'stimAuditory/all_stimAuditory/220.wav', 1122, 1456, 4000, 1224, 1587, 2059, 1029, 697, 2670, 986]	9	Present	NA	stimVisual/all_stimVisual/212.jpg	PRESENT	0.05051398277282715	85.62120485305786	87.62806582450867	88.32855200767517	88.67853689193726	91.73300290107728	4.1049370765686035	[85.62864804267883, 85.74517798423767, 86.72968697547913, 86.89650297164917, 87.64715695381165, 87.76418685913086, 87.88084602355957, 87.99779987335205, 88.11432886123657, 88.23128485679626, 88.34793305397034, 88.46494102478027, 88.58148503303528, 88.69844794273376, 88.81498384475708, 88.93173885345459, 89.04859685897827, 89.16555404663086, 89.28239798545837, 89.39912605285645, 89.5157458782196, 89.73300194740295]	[85.62913428700735, 85.745800953674, 86.72880095367401, 86.89550095367402, 87.64550095367402, 87.76216762034068, 87.87883428700734, 87.995500953674, 88.11216762034066, 88.22883428700732, 88.34550095367398, 88.46216762034064, 88.5788342870073, 88.69550095367396, 88.81216762034062, 88.92883428700728, 89.04550095367394, 89.1621676203406, 89.27883428700726, 89.39550095367392, 89.51216762034058, 89.74550095367391]	2021_Jan_29_1057	59.89783546568834	1	1
15	16	FALSE	NN	v	['Y', 'T', 'H', 'G', 'P', 'V', 'B', 'U', 'C', 'S', 'W', 'J', 'K', 'N', 'R', 'E']	[2670, 1888, 986, 944, 1456, 2245, 760, 2059, 829, 1731, 2448, 1029, 1122, 1335, 1587, 904]	8	Absent	NA	NA	PRESENT	0.22395086288452148	91.7443459033966	93.74452996253969	94.3281979560852	94.67817497253418	97.84936904907228	4.104839086532593	[91.75177001953125, 91.86805891990662, 92.8528139591217, 93.01934289932251, 93.77018404006958, 93.88722491264343, 94.00372505187988, 94.12057900428772, 94.23748302459717, 94.35418486595154, 94.4709198474884, 94.58783793449402, 94.7045328617096, 94.82146906852722, 94.93820691108704, 95.05500602722168, 95.17170405387878, 95.28849792480469, 95.40519285202026, 95.52192902565002, 95.62197184562683, 95.84936904907227]	[91.74550095367391, 91.86216762034057, 92.84516762034058, 93.01186762034058, 93.76186762034058, 93.87853428700724, 93.9952009536739, 94.11186762034056, 94.22853428700722, 94.34520095367388, 94.46186762034054, 94.5785342870072, 94.69520095367386, 94.81186762034052, 94.92853428700718, 95.04520095367384, 95.1618676203405, 95.27853428700716, 95.39520095367382, 95.51186762034048, 95.62853428700714, 95.86186762034048]	2021_Jan_29_1057	59.89783546568834	1	1
15	17	FALSE	NN	v	['W', 'U', 'R', 'P', 'S', 'E', 'B', 'C', 'N', 'Z', 'K', 'J', 'V', 'G', 'T', 'Y']	[2448, 2059, 1587, 1456, 1731, 904, 760, 829, 1335, 2911, 1122, 1029, 2245, 944, 1888, 2670]	12	Absent	NA	NA	ABSENT	0.6042509078979492	97.85033988952635	99.86103177070618	100.91134881973268	101.26124286651611	103.96573686599731	4.104705095291138	[97.8577630519867, 97.97451186180115, 98.95887303352356, 99.12579393386841, 99.87639594078064, 99.99322295188904, 100.10996699333191, 100.2268750667572, 100.34351992607117, 100.46040892601013, 100.57726883888245, 100.693932056427, 100.81064295768738, 100.92759990692139, 101.04441094398499, 101.16124892234802, 101.27807688713074, 101.39476490020752, 101.51169300079346, 101.6283609867096, 101.74504685401917, 101.96573686599731]	[97.86186762034048, 97.97853428700714, 98.96153428700714, 99.12823428700715, 99.87823428700715, 99.9949009536738, 100.11156762034047, 100.22823428700713, 100.34490095367379, 100.46156762034045, 100.5782342870071, 100.69490095367377, 100.81156762034043, 100.92823428700709, 101.04490095367375, 101.1615676203404, 101.27823428700707, 101.39490095367373, 101.51156762034039, 101.62823428700705, 101.7449009536737, 101.97823428700704]	2021_Jan_29_1057	59.89783546568834	1	1
15	18	FALSE	NA	v	['A', 'P', 'G', 'T', 'K', 'H', 'E', 'N', 'Z', 'X', 'V', 'U', 'R', 'Y', 'W', 'M']	[697, 1456, 944, 1888, 1122, 986, 904, 1335, 2911, 4000, 2245, 2059, 1587, 2670, 2448, 1224]	10	Present	NA	NA	PRESENT	0.08887410163879395	103.97317790985107	105.97723078727722	106.79416680336	107.14435195922852	110.08210396766664	4.104873180389404	[103.98061299324036, 104.09758591651917, 105.08185696601868, 105.24859404563904, 105.99926805496216, 106.11625695228577, 106.23294401168823, 106.34989786148071, 106.46670794487, 106.58322286605835, 106.70021200180054, 106.81701493263245, 106.93368887901306, 107.0504858493805, 107.16742706298828, 107.28395485877991, 107.40081596374512, 107.5178120136261, 107.63433599472046, 107.75111293792725, 107.86804294586182, 108.08210396766663]	[103.97823428700704, 104.0949009536737, 105.0779009536737, 105.24460095367371, 105.99460095367371, 106.11126762034037, 106.22793428700703, 106.34460095367369, 106.46126762034035, 106.57793428700701, 106.69460095367367, 106.81126762034033, 106.92793428700699, 107.04460095367365, 107.16126762034031, 107.27793428700697, 107.39460095367363, 107.51126762034029, 107.62793428700695, 107.74460095367361, 107.86126762034027, 108.0946009536736]	2021_Jan_29_1057	59.89783546568834	1	1
15	19	FALSE	NA	v	['S', 'V', 'W', 'J', 'U', 'B', 'T', 'X', 'G', 'M', 'A', 'E', 'H', 'C', 'N', 'Y']	[1731, 2245, 2448, 1029, 2059, 760, 1888, 4000, 944, 1224, 697, 904, 986, 829, 1335, 2670]	8	Present	NA	NA	PRESENT	0.03035402297973632	110.09605288505554	112.09365677833556	112.6774559020996	113.02729177474976	116.19846892356873	4.104812145233154	[110.10347485542297, 110.20363783836365, 111.1878879070282, 111.35472702980042, 112.12283205986023, 112.23918199539185, 112.33908700942993, 112.45592784881592, 112.58951807022095, 112.68954586982727, 112.80628395080566, 112.9230809211731, 113.03988289833069, 113.17342901229858, 113.27339196205139, 113.39019894599915, 113.50704002380371, 113.62371897697449, 113.74052405357361, 113.8575279712677, 113.97430396080017, 114.19846796989441]	[110.0946009536736, 110.21126762034027, 111.19426762034027, 111.36096762034028, 112.11096762034028, 112.22763428700694, 112.3443009536736, 112.46096762034026, 112.57763428700692, 112.69430095367358, 112.81096762034024, 112.9276342870069, 113.04430095367356, 113.16096762034022, 113.27763428700688, 113.39430095367354, 113.5109676203402, 113.62763428700686, 113.74430095367352, 113.86096762034018, 113.97763428700684, 114.21096762034017]	2021_Jan_29_1057	59.89783546568834	1	1
15	20	FALSE	NV	v	['K', 'S', 'P', 'M', 'G', 'C', 'Y', 'E', 'W', 'N', 'H', 'A', 'Z', 'X', 'V', 'J']	[1122, 1731, 1456, 1224, 944, 829, 2670, 904, 2448, 1335, 986, 697, 2911, 4000, 2245, 1029]	14	Present	NA	NA	PRESENT	0.12263107299804688	116.2026059627533	118.20997786521912	119.49420595169067	119.84372282028198	122.31483602523804	4.104858160018921	[116.21002793312073, 116.32680892944336, 117.31110000610352, 117.47773599624634, 118.22849893569946, 118.34543299674988, 118.4621570110321, 118.57886505126953, 118.69580698013306, 118.81260800361633, 118.92926096916199, 119.04617595672607, 119.16279983520508, 119.27978992462158, 119.39653301239014, 119.51335597038269, 119.63015794754028, 119.74678206443787, 119.86374402046204, 119.98039197921753, 120.09735298156738, 120.31483602523804]	[116.21096762034017, 116.32763428700683, 117.31063428700683, 117.47733428700684, 118.22733428700684, 118.3440009536735, 118.46066762034016, 118.57733428700682, 118.69400095367348, 118.81066762034014, 118.9273342870068, 119.04400095367346, 119.16066762034012, 119.27733428700678, 119.39400095367344, 119.5106676203401, 119.62733428700676, 119.74400095367342, 119.86066762034008, 119.97733428700674, 120.0940009536734, 120.32733428700674]	2021_Jan_29_1057	59.89783546568834	1	1
15	21	FALSE	VV	v	['K', 'C', 'Z', 'B', 'P', 'W', 'surprise', 'V', 'J', 'X', 'E', 'U', 'T', 'S', 'N', 'H']	[1122, 829, 2911, 760, 1456, 2448, 'stimAuditory/all_stimAuditory/212.wav', 2245, 1029, 4000, 904, 2059, 1888, 1731, 1335, 986]	10	Present	NA	stimVisual/all_stimVisual/204.jpg	PRESENT	0.02422404289245605	122.32561588287354	124.32641887664796	125.14368081092834	125.49361896514893	128.43120288848877	4.10478401184082	[122.33303785324097, 122.44974493980408, 123.43386197090149, 123.60086798667908, 124.3515899181366, 124.4683129787445, 124.58514785766602, 124.70190691947937, 124.8189070224762, 124.93561887741089, 125.05237293243408, 125.16903305053711, 125.2858099937439, 125.40270900726318, 125.51955389976501, 125.63638997077942, 125.75314593315125, 125.86973690986633, 125.98641204833984, 126.10345792770386, 126.20334506034851, 126.43120193481445]	[122.32733428700674, 122.4440009536734, 123.4270009536734, 123.5937009536734, 124.3437009536734, 124.46036762034007, 124.57703428700673, 124.69370095367339, 124.81036762034005, 124.9270342870067, 125.04370095367337, 125.16036762034003, 125.27703428700669, 125.39370095367335, 125.51036762034, 125.62703428700667, 125.74370095367333, 125.86036762033999, 125.97703428700665, 126.0937009536733, 126.21036762033997, 126.4437009536733]	2021_Jan_29_1057	59.89783546568834	1	1
15	22	FALSE	NV	v	['T', 'Z', 'R', 'N', 'V', 'J', 'Y', 'G', 'S', 'A', 'C', 'E', 'B', 'X', 'M', 'U']	[1888, 2911, 1587, 1335, 2245, 1029, 2670, 944, 1731, 697, 829, 904, 760, 4000, 1224, 2059]	14	Present	NA	NA	PRESENT	0.14861679077148438	128.43158984184265	130.44271087646484	131.72656178474426	132.07645988464355	134.54756999015808	4.104859113693237	[128.43901300430298, 128.55580806732178, 129.54018187522888, 129.70702695846558, 130.45764589309692, 130.57466101646423, 130.691339969635, 130.80829906463623, 130.92489886283875, 131.04190492630005, 131.15852689743042, 131.2755410671234, 131.39202690124512, 131.50925183296204, 131.62588596343994, 131.74250292778015, 131.8592460155487, 131.97600197792053, 132.09286904335022, 132.20974397659302, 132.3264398574829, 132.5475709438324]	[128.4437009536733, 128.56036762033997, 129.54336762033998, 129.71006762033997, 130.46006762033997, 130.57673428700664, 130.69340095367332, 130.81006762034, 130.92673428700667, 131.04340095367334, 131.16006762034002, 131.2767342870067, 131.39340095367336, 131.51006762034004, 131.6267342870067, 131.7434009536734, 131.86006762034006, 131.97673428700674, 132.0934009536734, 132.21006762034008, 132.32673428700676, 132.56006762034008]	2021_Jan_29_1057	59.89783546568834	1	1
15	23	FALSE	NV	v	['E', 'N', 'K', 'A', 'U', 'C', 'Y', 'P', 'V', 'B', 'G', 'H', 'J', 'X', 'R', 'W']	[904, 1335, 1122, 697, 2059, 829, 2670, 1456, 2245, 760, 944, 986, 1029, 4000, 1587, 2448]	14	Present	NA	NA	PRESENT	0.17709994316101074	134.5545539855957	136.55909180641174	137.84286379814148	138.19288992881775	140.6639368534088	4.10484504699707	[134.56197595596313, 134.67882990837097, 135.66319489479065, 135.8299000263214, 136.58079385757446, 136.69771885871887, 136.81434297561646, 136.93126797676086, 137.04806184768677, 137.16462993621826, 137.28152704238892, 137.39846205711365, 137.51505994796753, 137.63187885284424, 137.7486879825592, 137.86530184745789, 137.98227787017822, 138.0989270210266, 138.21583485603333, 138.33260893821716, 138.44935703277588, 138.6639358997345]	[134.56006762034008, 134.67673428700675, 135.65973428700676, 135.82643428700675, 136.57643428700675, 136.69310095367342, 136.8097676203401, 136.92643428700677, 137.04310095367345, 137.15976762034012, 137.2764342870068, 137.39310095367347, 137.50976762034014, 137.62643428700682, 137.7431009536735, 137.85976762034016, 137.97643428700684, 138.0931009536735, 138.2097676203402, 138.32643428700686, 138.44310095367354, 138.67643428700686]	2021_Jan_29_1057	59.89783546568834	1	1
15	24	FALSE	NA	v	['E', 'H', 'W', 'K', 'T', 'U', 'N', 'V', 'X', 'A', 'G', 'S', 'Z', 'B', 'R', 'Y']	[904, 986, 2448, 1122, 1888, 2059, 1335, 2245, 4000, 697, 944, 1731, 2911, 760, 1587, 2670]	9	Present	NA	NA	PRESENT	0.00637507438659668	140.67776799201965	142.6756329536438	143.3759307861328	143.72576999664307	146.78030395507812	4.104671001434326	[140.68518996238708, 140.80196499824524, 141.76986289024353, 141.93617796897888, 142.70380091667175, 142.82060194015503, 142.93725895881653, 143.05396485328674, 143.15409183502197, 143.2708878517151, 143.40446496009827, 143.50442385673523, 143.62122297286987, 143.7380039691925, 143.85486483573914, 143.97167587280273, 144.0883550643921, 144.20510292053223, 144.32198786735535, 144.43878602981567, 144.55571103096008, 144.7803030014038]	[140.67643428700686, 140.79310095367353, 141.77610095367353, 141.94280095367353, 142.69280095367353, 142.8094676203402, 142.92613428700687, 143.04280095367355, 143.15946762034022, 143.2761342870069, 143.39280095367357, 143.50946762034025, 143.62613428700692, 143.7428009536736, 143.85946762034027, 143.97613428700694, 144.09280095367362, 144.2094676203403, 144.32613428700697, 144.44280095367364, 144.5594676203403, 144.79280095367363]	2021_Jan_29_1057	59.89783546568834	1	1
15	25	FALSE	NN	v	['V', 'P', 'A', 'H', 'C', 'E', 'R', 'Z', 'T', 'U', 'Y', 'J', 'N', 'K', 'B', 'G']	[2245, 1456, 697, 986, 829, 904, 1587, 2911, 1888, 2059, 2670, 1029, 1335, 1122, 760, 944]	14	Absent	NA	NA	ABSENT	0.42706894874572754	146.78396797180176	148.79201078414917	150.0756118297577	150.42561793327332	152.89666986465454	4.104659080505371	[146.7913899421692, 146.90811395645142, 147.8924479484558, 148.0592019557953, 148.80991792678833, 148.9267818927765, 149.0436658859253, 149.16055989265442, 149.27710890769958, 149.39404892921448, 149.51066994667053, 149.62758588790894, 149.744402885437, 149.86102199554443, 149.97802901268005, 150.09462594985962, 150.2115819454193, 150.32823085784912, 150.44518089294434, 150.5617229938507, 150.6786379814148, 150.89666986465454]	[146.79280095367363, 146.9094676203403, 147.8924676203403, 148.0591676203403, 148.8091676203403, 148.92583428700698, 149.04250095367365, 149.15916762034033, 149.275834287007, 149.39250095367368, 149.50916762034035, 149.62583428700702, 149.7425009536737, 149.85916762034037, 149.97583428700705, 150.09250095367372, 150.2091676203404, 150.32583428700707, 150.44250095367374, 150.55916762034042, 150.6758342870071, 150.9091676203404]	2021_Jan_29_1057	59.89783546568834	1	1
15	26	FALSE	NN	v	['B', 'R', 'H', 'U', 'V', 'W', 'T', 'S', 'M', 'Z', 'P', 'A', 'G', 'J', 'N', 'Y']	[760, 1587, 986, 2059, 2245, 2448, 1888, 1731, 1224, 2911, 1456, 697, 944, 1029, 1335, 2670]	13	Absent	NA	NA	ABSENT	0.44848108291625977	152.90711379051208	154.9083697795868	156.0750949382782	156.42541694641113	159.01303696632385	4.1046671867370605	[152.9145359992981, 153.03100085258484, 154.01541900634766, 154.1822190284729, 154.93297290802002, 155.04968285560608, 155.1665940284729, 155.28323483467102, 155.40015506744385, 155.51705288887024, 155.63387203216553, 155.75061106681824, 155.86731386184692, 155.98407006263733, 156.10075187683105, 156.21769285202026, 156.3344328403473, 156.45098686218262, 156.56806683540344, 156.68479895591736, 156.78480100631714, 157.01303601264954]	[152.9091676203404, 153.0258342870071, 154.0088342870071, 154.17553428700708, 154.92553428700708, 155.04220095367376, 155.15886762034043, 155.2755342870071, 155.39220095367378, 155.50886762034045, 155.62553428700713, 155.7422009536738, 155.85886762034048, 155.97553428700715, 156.09220095367382, 156.2088676203405, 156.32553428700717, 156.44220095367385, 156.55886762034052, 156.6755342870072, 156.79220095367387, 157.0255342870072]	2021_Jan_29_1057	59.89783546568834	1	1
15	27	FALSE	AA	v	['N', 'S', 'M', 'W', 'C', 'T', 'V', 'surprise', 'P', 'E', 'X', 'R', 'G', 'J', 'B', 'Y']	[1335, 1731, 1224, 2448, 829, 1888, 2245, 'stimAuditory/all_stimAuditory/218.wav', 1456, 904, 4000, 1587, 944, 1029, 760, 2670]	11	Present	stimAuditory/all_stimAuditory/220.wav	stimVisual/all_stimVisual/217.jpg	ABSENT	0.500831127166748	159.0129919052124	161.02460289001465	161.9583888053894	162.30812692642212	165.12940287590027	4.10479998588562	[159.02041387557983, 159.13733386993408, 160.1216380596161, 160.28854990005493, 161.05597400665283, 161.1561360359192, 161.2727780342102, 161.3895299434662, 161.5063669681549, 161.62318086624146, 161.7400770187378, 161.8736810684204, 161.9736180305481, 162.09018206596375, 162.2071418762207, 162.32365584373474, 162.44073700904846, 162.5577690601349, 162.67428183555603, 162.79110598564148, 162.90789198875427, 163.12940192222595]	[159.0255342870072, 159.14220095367386, 160.12520095367387, 160.29190095367386, 161.04190095367386, 161.15856762034053, 161.2752342870072, 161.39190095367388, 161.50856762034056, 161.62523428700723, 161.7419009536739, 161.85856762034058, 161.97523428700725, 162.09190095367393, 162.2085676203406, 162.32523428700728, 162.44190095367395, 162.55856762034063, 162.6752342870073, 162.79190095367397, 162.90856762034065, 163.14190095367397]	2021_Jan_29_1057	59.89783546568834	1	1
15	28	FALSE	NV	v	['H', 'Z', 'K', 'C', 'A', 'R', 'T', 'X', 'J', 'B', 'V', 'N', 'G', 'P', 'W', 'E']	[986, 2911, 1122, 829, 697, 1587, 1888, 4000, 1029, 760, 2245, 1335, 944, 1456, 2448, 904]	8	Present	NA	NA	PRESENT	0.09726881980895996	165.136207818985	167.141019821167	167.7247188091278	168.0746829509735	171.24576997756958	4.104750156402588	[165.1436529159546, 165.2603919506073, 166.2445409297943, 166.41141295433044, 167.16217589378357, 167.27891492843628, 167.39573287963867, 167.51261591911316, 167.62931895256042, 167.74596095085144, 167.86293292045593, 167.97955799102783, 168.09652400016785, 168.21330499649048, 168.33020997047424, 168.44685101509094, 168.5637559890747, 168.68034291267395, 168.79728198051453, 168.91390585899353, 169.0308859348297, 169.24576902389526]	[165.14190095367397, 165.25856762034064, 166.24156762034065, 166.40826762034064, 167.15826762034064, 167.2749342870073, 167.391600953674, 167.50826762034066, 167.62493428700733, 167.741600953674, 167.85826762034068, 167.97493428700736, 168.09160095367403, 168.2082676203407, 168.32493428700738, 168.44160095367405, 168.55826762034073, 168.6749342870074, 168.79160095367408, 168.90826762034075, 169.02493428700743, 169.25826762034075]	2021_Jan_29_1057	59.89783546568834	1	1
15	29	FALSE	NV	v	['J', 'Z', 'K', 'S', 'W', 'P', 'H', 'V', 'G', 'T', 'N', 'B', 'Y', 'X', 'C', 'U']	[1029, 2911, 1122, 1731, 2448, 1456, 986, 2245, 944, 1888, 1335, 760, 2670, 4000, 829, 2059]	14	Present	NA	NA	PRESENT	0.19069790840148929	171.2590048313141	173.2572638988495	174.5412199497223	174.89113998413086	177.3621368408203	4.104872941970825	[171.2664270401001, 171.38323092460632, 172.35077095031738, 172.5177960395813, 173.28521585464478, 173.4019420146942, 173.51876091957092, 173.63536596298218, 173.75225687026978, 173.86927103996277, 173.98572397232056, 174.08574199676514, 174.2193579673767, 174.33622288703918, 174.45309591293335, 174.56988096237183, 174.66973495483398, 174.78654789924622, 174.90336394309998, 175.02014088630676, 175.13699102401733, 175.362135887146]	[171.25826762034075, 171.37493428700742, 172.35793428700742, 172.52463428700742, 173.27463428700742, 173.3913009536741, 173.50796762034076, 173.62463428700744, 173.7413009536741, 173.8579676203408, 173.97463428700746, 174.09130095367414, 174.2079676203408, 174.32463428700748, 174.44130095367416, 174.55796762034083, 174.6746342870075, 174.79130095367418, 174.90796762034086, 175.02463428700753, 175.1413009536742, 175.37463428700752]	2021_Jan_29_1057	59.89783546568834	1	1
15	30	FALSE	NN	v	['B', 'C', 'J', 'T', 'Y', 'P', 'U', 'W', 'E', 'R', 'S', 'M', 'Z', 'K', 'N', 'G']	[760, 829, 1029, 1888, 2670, 1456, 2059, 2448, 904, 1587, 1731, 1224, 2911, 1122, 1335, 944]	11	Absent	NA	NA	ABSENT	0.16330981254577637	177.36518692970276	179.3737587928772	180.30733585357663	180.65735483169556	183.4785039424896	4.104745149612427	[177.3726098537445, 177.48951196670532, 178.47361493110657, 178.640615940094, 179.39124703407288, 179.50824785232544, 179.6249749660492, 179.74187088012695, 179.85868501663208, 179.9752950668335, 180.09228491783142, 180.2088840007782, 180.32590103149414, 180.4424068927765, 180.5593650341034, 180.6758909225464, 180.7928810119629, 180.90954685211182, 181.02646398544312, 181.14315700531006, 181.26001906394958, 181.47850584983826]	[177.37463428700752, 177.4913009536742, 178.4743009536742, 178.6410009536742, 179.3910009536742, 179.50766762034087, 179.62433428700754, 179.74100095367422, 179.8576676203409, 179.97433428700757, 180.09100095367424, 180.2076676203409, 180.3243342870076, 180.44100095367426, 180.55766762034094, 180.6743342870076, 180.79100095367428, 180.90766762034096, 181.02433428700763, 181.1410009536743, 181.25766762034098, 181.4910009536743]	2021_Jan_29_1057	59.89783546568834	1	1
15	31	FALSE	NA	v	['R', 'K', 'B', 'C', 'E', 'J', 'W', 'G', 'V', 'S', 'Z', 'X', 'U', 'H', 'N', 'Y']	[1587, 1122, 760, 829, 904, 1029, 2448, 944, 2245, 1731, 2911, 4000, 2059, 986, 1335, 2670]	12	Present	NA	NA	PRESENT	0.08874297142028809	183.4886667728424	185.490149974823	186.54048585891724	186.8905758857727	189.59486985206604	4.104719877243042	[183.49608898162842, 183.61251187324524, 184.59673690795898, 184.76346588134766, 185.51437497138977, 185.63116097450256, 185.7479829788208, 185.86466789245605, 185.98165488243103, 186.09819197654724, 186.2151918411255, 186.33177495002747, 186.4484739303589, 186.56549406051636, 186.6823868751526, 186.7989718914032, 186.91578793525696, 187.0326759815216, 187.14944195747375, 187.26619505882263, 187.3662030696869, 187.59486889839172]	[183.4910009536743, 183.60766762034098, 184.59066762034098, 184.75736762034097, 185.50736762034097, 185.62403428700765, 185.74070095367432, 185.857367620341, 185.97403428700767, 186.09070095367434, 186.20736762034102, 186.3240342870077, 186.44070095367437, 186.55736762034104, 186.67403428700771, 186.7907009536744, 186.90736762034106, 187.02403428700774, 187.1407009536744, 187.25736762034109, 187.37403428700776, 187.60736762034108]	2021_Jan_29_1057	59.89783546568834	1	1
15	32	FALSE	NA	v	['V', 'T', 'U', 'J', 'H', 'G', 'M', 'X', 'R', 'S', 'N', 'K', 'Z', 'A', 'Y', 'C']	[2245, 1888, 2059, 1029, 986, 944, 1224, 4000, 1587, 1731, 1335, 1122, 2911, 697, 2670, 829]	8	Present	NA	NA	PRESENT	0.3809669017791748	189.59443187713623	191.60672283172607	192.18999791145325	192.54006099700928	195.71123695373535	4.104514122009277	[189.60185384750366, 189.71871304512024, 190.70314288139343, 190.87031197547913, 191.63733887672424, 191.73747897148132, 191.85415387153625, 191.9708650112152, 192.0878119468689, 192.20464301109314, 192.3211898803711, 192.43816995620728, 192.55506587028503, 192.67169904708862, 192.78854894638062, 192.9053099155426, 193.02208399772644, 193.1388418674469, 193.25566697120667, 193.372407913208, 193.48958587646484, 193.71123600006104]	[189.60736762034108, 189.72403428700775, 190.70703428700776, 190.87373428700775, 191.62373428700775, 191.74040095367442, 191.8570676203411, 191.97373428700777, 192.09040095367445, 192.20706762034112, 192.3237342870078, 192.44040095367447, 192.55706762034114, 192.67373428700782, 192.7904009536745, 192.90706762034117, 193.02373428700784, 193.14040095367451, 193.2570676203412, 193.37373428700786, 193.49040095367454, 193.72373428700786]	2021_Jan_29_1057	59.89783546568834	1	1
15	33	FALSE	NV	v	['N', 'C', 'A', 'V', 'W', 'G', 'Y', 'U', 'X', 'M', 'K', 'E', 'S', 'Z', 'J', 'P']	[1335, 829, 697, 2245, 2448, 944, 2670, 2059, 4000, 1224, 1122, 904, 1731, 2911, 1029, 1456]	9	Present	NA	NA	PRESENT	0.2655510902404785	195.71745991706848	197.7228808403015	198.42321300506592	198.7730588912964	201.82760190963745	4.1047210693359375	[195.7248818874359, 195.84164690971375, 196.82586193084717, 196.99284195899963, 197.74349689483643, 197.86043190956116, 197.9772219657898, 198.09415483474731, 198.2108199596405, 198.32743287086487, 198.44425702095032, 198.56117701530457, 198.67802596092224, 198.79467701911926, 198.9114830493927, 199.0282199382782, 199.14512586593628, 199.26180601119995, 199.37851905822754, 199.49533486366272, 199.61213088035583, 199.82760190963745]	[195.72373428700786, 195.84040095367453, 196.82340095367454, 196.99010095367453, 197.74010095367453, 197.8567676203412, 197.97343428700788, 198.09010095367455, 198.20676762034122, 198.3234342870079, 198.44010095367457, 198.55676762034125, 198.67343428700792, 198.7901009536746, 198.90676762034127, 199.02343428700794, 199.14010095367462, 199.2567676203413, 199.37343428700797, 199.49010095367464, 199.60676762034132, 199.84010095367464]	2021_Jan_29_1057	59.89783546568834	1	1
15	34	FALSE	NV	v	['Y', 'N', 'V', 'E', 'M', 'S', 'U', 'C', 'X', 'Z', 'R', 'W', 'A', 'B', 'K', 'G']	[2670, 1335, 2245, 904, 1224, 1731, 2059, 829, 4000, 2911, 1587, 2448, 697, 760, 1122, 944]	9	Present	NA	NA	PRESENT	0.1508040428161621	201.8403959274292	203.8391888141632	204.53964591026303	204.88961577415463	207.94396996498108	4.104781150817871	[201.84782886505127, 201.96470284461975, 202.93209600448608, 203.09898495674133, 203.86696004867554, 203.98330307006836, 204.1002688407898, 204.21685695648193, 204.3338499069214, 204.45035195350647, 204.5671889781952, 204.6840898990631, 204.80091500282288, 204.917799949646, 205.0342378616333, 205.15111684799194, 205.2511899471283, 205.36807894706726, 205.50147891044617, 205.60153484344482, 205.71850395202637, 205.94396996498108]	[201.84010095367464, 201.9567676203413, 202.9397676203413, 203.1064676203413, 203.8564676203413, 203.97313428700798, 204.08980095367465, 204.20646762034133, 204.323134287008, 204.43980095367468, 204.55646762034135, 204.67313428700803, 204.7898009536747, 204.90646762034137, 205.02313428700805, 205.13980095367472, 205.2564676203414, 205.37313428700807, 205.48980095367475, 205.60646762034142, 205.7231342870081, 205.9564676203414]	2021_Jan_29_1057	59.89783546568834	1	1
15	35	FALSE	NV	v	['Y', 'G', 'J', 'Z', 'T', 'B', 'M', 'A', 'K', 'X', 'S', 'C', 'H', 'P', 'U', 'V']	[2670, 944, 1029, 2911, 1888, 760, 1224, 697, 1122, 4000, 1731, 829, 986, 1456, 2059, 2245]	10	Present	NA	NA	PRESENT	0.17150402069091797	207.94666194915771	209.95565485954285	210.77313089370728	211.12264800071716	214.0603370666504	4.104682207107544	[207.95408391952515, 208.07094287872314, 209.0551450252533, 209.22213983535767, 209.97277402877808, 210.08973598480225, 210.2064869403839, 210.32327485084534, 210.44008684158325, 210.55690693855286, 210.67358803749084, 210.79034805297852, 210.90721487998962, 211.02379083633423, 211.1405439376831, 211.25758504867554, 211.37425303459167, 211.49108600616455, 211.60786294937134, 211.7246789932251, 211.84143590927124, 212.0603370666504]	[207.9564676203414, 208.0731342870081, 209.0561342870081, 209.22283428700808, 209.97283428700808, 210.08950095367476, 210.20616762034143, 210.3228342870081, 210.43950095367478, 210.55616762034145, 210.67283428700813, 210.7895009536748, 210.90616762034148, 211.02283428700815, 211.13950095367483, 211.2561676203415, 211.37283428700817, 211.48950095367485, 211.60616762034152, 211.7228342870082, 211.83950095367487, 212.0728342870082]	2021_Jan_29_1057	59.89783546568834	1	1
15	36	FALSE	NV	v	['Z', 'S', 'V', 'C', 'Y', 'K', 'T', 'H', 'M', 'A', 'N', 'X', 'B', 'W', 'P', 'G']	[2911, 1731, 2245, 829, 2670, 1122, 1888, 986, 1224, 697, 1335, 4000, 760, 2448, 1456, 944]	12	Present	NA	NA	PRESENT	0.17619705200195312	214.07011079788208	216.07185077667236	217.12270379066467	217.4724588394165	220.1767029762268	4.104852199554443	[214.0775339603424, 214.19369387626648, 215.17811799049377, 215.34509992599487, 216.09576892852783, 216.2125928401947, 216.32924795150757, 216.4459149837494, 216.56310486793518, 216.6796019077301, 216.79654097557068, 216.91329288482666, 217.03020405769348, 217.14694094657898, 217.26354098320007, 217.38044905662537, 217.4973440170288, 217.61416792869568, 217.7309548854828, 217.84750699996948, 217.96427583694458, 218.1767020225525]	[214.0728342870082, 214.18950095367487, 215.17250095367487, 215.33920095367486, 216.08920095367486, 216.20586762034154, 216.3225342870082, 216.43920095367488, 216.55586762034156, 216.67253428700823, 216.7892009536749, 216.90586762034158, 217.02253428700826, 217.13920095367493, 217.2558676203416, 217.37253428700828, 217.48920095367495, 217.60586762034163, 217.7225342870083, 217.83920095367498, 217.95586762034165, 218.18920095367497]	2021_Jan_29_1057	59.89783546568834	1	1
15	37	FALSE	NA	v	['H', 'W', 'J', 'M', 'G', 'V', 'T', 'P', 'U', 'N', 'X', 'K', 'Y', 'R', 'E', 'A']	[986, 2448, 1029, 1224, 944, 2245, 1888, 1456, 2059, 1335, 4000, 1122, 2670, 1587, 904, 697]	11	Present	NA	NA	PRESENT	0.17336606979370117	220.17573499679563	222.18831491470337	223.121857881546	223.47251391410828	226.2930688858032	4.1047539710998535	[220.18315601348877, 220.3000910282135, 221.28448104858398, 221.45112299919128, 222.21864891052246, 222.31891584396362, 222.43543100357056, 222.55230903625488, 222.66923689842224, 222.78585600852966, 222.90286302566528, 223.01943397521973, 223.13635993003845, 223.2531979084015, 223.3698389530182, 223.48684287071228, 223.6034698486328, 223.72012400627136, 223.83693099021912, 223.95394587516785, 224.07050704956055, 224.29306888580322]	[220.18920095367497, 220.30586762034164, 221.28886762034165, 221.45556762034164, 222.20556762034164, 222.3222342870083, 222.438900953675, 222.55556762034166, 222.67223428700834, 222.788900953675, 222.90556762034169, 223.02223428700836, 223.13890095367503, 223.2555676203417, 223.37223428700838, 223.48890095367506, 223.60556762034173, 223.7222342870084, 223.83890095367508, 223.95556762034175, 224.07223428700843, 224.30556762034175]	2021_Jan_29_1057	59.89783546568834	1	1
15	38	FALSE	NA	v	['E', 'H', 'S', 'J', 'T', 'A', 'W', 'Y', 'P', 'K', 'V', 'U', 'C', 'X', 'B', 'R']	[904, 986, 1731, 1029, 1888, 697, 2448, 2670, 1456, 1122, 2245, 2059, 829, 4000, 760, 1587]	14	Present	NA	NA	PRESENT	0.17803001403808594	226.29895091056824	228.30470180511475	229.58831882476807	229.9385039806366	232.40943694114685	4.1047351360321045	[226.30637288093567, 226.42312693595886, 227.40748190879822, 227.57422590255737, 228.32499194145203, 228.44176387786865, 228.5586998462677, 228.6754138469696, 228.79202103614807, 228.90892696380615, 229.02570104599, 229.14246487617493, 229.25923490524292, 229.37606000900269, 229.49293494224548, 229.6095700263977, 229.72625994682312, 229.84324288368225, 229.96006894111633, 230.07681393623352, 230.19365000724792, 230.40943789482117]	[226.30556762034175, 226.42223428700842, 227.40523428700843, 227.57193428700842, 228.32193428700842, 228.4386009536751, 228.55526762034177, 228.67193428700844, 228.78860095367511, 228.9052676203418, 229.02193428700846, 229.13860095367514, 229.2552676203418, 229.3719342870085, 229.48860095367516, 229.60526762034183, 229.7219342870085, 229.83860095367518, 229.95526762034186, 230.07193428700853, 230.1886009536752, 230.42193428700853]	2021_Jan_29_1057	59.89783546568834	1	1
15	39	FALSE	NV	v	['P', 'E', 'G', 'N', 'H', 'W', 'S', 'X', 'Z', 'C', 'V', 'J', 'Y', 'T', 'K', 'U']	[1456, 904, 944, 1335, 986, 2448, 1731, 4000, 2911, 829, 2245, 1029, 2670, 1888, 1122, 2059]	8	Present	NA	NA	PRESENT	0.24736309051513672	232.42193794250488	234.4211688041687	235.0046467781067	235.3549509048462	238.52580404281616	4.104635238647461	[232.4293818473816, 232.54593086242676, 233.53077507019043, 233.6802899837494, 234.44799399375916, 234.5646848678589, 234.68148803710938, 234.79842805862427, 234.91493487358093, 235.03189897537231, 235.14863896369934, 235.26545906066895, 235.3822410106659, 235.49910402297974, 235.6159029006958, 235.73271799087524, 235.84959387779236, 235.96605801582336, 236.08302903175354, 236.19957399368286, 236.2997920513153, 236.52580499649048]	[232.42193428700853, 232.5386009536752, 233.5216009536752, 233.6883009536752, 234.4383009536752, 234.55496762034187, 234.67163428700854, 234.78830095367522, 234.9049676203419, 235.02163428700857, 235.13830095367524, 235.25496762034192, 235.3716342870086, 235.48830095367526, 235.60496762034194, 235.7216342870086, 235.8383009536753, 235.95496762034196, 236.07163428700864, 236.1883009536753, 236.30496762034198, 236.5383009536753]	2021_Jan_29_1057	59.89783546568834	1	1
15	40	FALSE	AV	v	['E', 'H', 'N', 'K', 'surprise', 'W', 'C', 'X', 'Z', 'A', 'V', 'U', 'T', 'B', 'Y', 'R']	[904, 986, 1335, 1122, 'stimAuditory/all_stimAuditory/221.wav', 2448, 829, 4000, 2911, 697, 2245, 2059, 1888, 760, 2670, 1587]	8	Present	stimAuditory/all_stimAuditory/212.wav	stimVisual/all_stimVisual/124.jpg	PRESENT	0.0995948314666748	238.52797198295593	240.53761100769043	241.1210889816284	241.4710988998413	244.64216995239255	4.104558944702148	[238.53539395332336, 238.65218496322632, 239.63653993606567, 239.80334305763245, 240.5540280342102, 240.67087697982788, 240.7878680229187, 240.90466690063477, 241.0214638710022, 241.1380488872528, 241.25500106811523, 241.37159299850464, 241.48863291740417, 241.60522484779358, 241.7219569683075, 241.83893394470215, 241.95578002929688, 242.07239985466003, 242.1894109249115, 242.30610990524292, 242.42270684242249, 242.64216995239258]	[238.5383009536753, 238.65496762034198, 239.63796762034198, 239.80466762034197, 240.55466762034197, 240.67133428700865, 240.78800095367532, 240.904667620342, 241.02133428700867, 241.13800095367534, 241.25466762034202, 241.3713342870087, 241.48800095367537, 241.60466762034204, 241.72133428700872, 241.8380009536754, 241.95466762034206, 242.07133428700874, 242.1880009536754, 242.3046676203421, 242.42133428700876, 242.65466762034208]	2021_Jan_29_1057	59.89783546568834	1	1
15	41	FALSE	NN	v	['R', 'V', 'U', 'G', 'Z', 'S', 'E', 'N', 'J', 'A', 'M', 'P', 'C', 'Y', 'H', 'K']	[1587, 2245, 2059, 944, 2911, 1731, 904, 1335, 1029, 697, 1224, 1456, 829, 2670, 986, 1122]	13	Absent	NA	NA	ABSENT	0.48838210105896	244.6513078212738	246.65375185012817	247.82070589065552	248.17076992988584	250.7585370540619	4.104785203933716	[244.65873003005981, 244.7752718925476, 245.7594199180603, 245.92644000053406, 246.67703986167908, 246.79383397102356, 246.91060590744019, 247.02751088142395, 247.14445400238037, 247.26113605499268, 247.3779308795929, 247.49477791786194, 247.61153388023376, 247.72840285301208, 247.84502792358398, 247.96194291114807, 248.07851600646973, 248.19545102119446, 248.3122169971466, 248.4288330078125, 248.5457239151001, 248.7585370540619]	[244.65466762034208, 244.77133428700876, 245.75433428700876, 245.92103428700875, 246.67103428700875, 246.78770095367543, 246.9043676203421, 247.02103428700877, 247.13770095367545, 247.25436762034212, 247.3710342870088, 247.48770095367547, 247.60436762034215, 247.72103428700882, 247.8377009536755, 247.95436762034217, 248.07103428700884, 248.18770095367552, 248.3043676203422, 248.42103428700887, 248.53770095367554, 248.77103428700886]	2021_Jan_29_1057	59.89783546568834	1	1
15	42	FALSE	NV	v	['V', 'T', 'P', 'Z', 'N', 'W', 'Y', 'C', 'S', 'U', 'X', 'M', 'A', 'J', 'K', 'H']	[2245, 1888, 1456, 2911, 1335, 2448, 2670, 829, 1731, 2059, 4000, 1224, 697, 1029, 1122, 986]	11	Present	NA	NA	PRESENT	0.26169705390930176	250.75717091560364	252.76987886428833	253.70396280288696	254.05367493629456	256.874902009964	4.105023145675659	[250.76459288597107, 250.8815839290619, 251.8659439086914, 252.03259587287903, 252.80016589164734, 252.9000768661499, 253.01691198349, 253.13362002372742, 253.25065803527832, 253.3672490119934, 253.48427605628967, 253.60083889961243, 253.71777606010437, 253.83442091941833, 253.95141887664795, 254.06802701950073, 254.1849558353424, 254.30167603492737, 254.4185290336609, 254.53545594215393, 254.65198588371277, 254.874902009964]	[250.77103428700886, 250.88770095367553, 251.87070095367554, 252.03740095367553, 252.78740095367553, 252.9040676203422, 253.02073428700888, 253.13740095367555, 253.25406762034223, 253.3707342870089, 253.48740095367558, 253.60406762034225, 253.72073428700892, 253.8374009536756, 253.95406762034227, 254.07073428700895, 254.18740095367562, 254.3040676203423, 254.42073428700897, 254.53740095367564, 254.65406762034232, 254.88740095367564]	2021_Jan_29_1057	59.89783546568834	1	1
15	43	FALSE	NV	v	['Z', 'B', 'C', 'P', 'R', 'J', 'V', 'N', 'A', 'H', 'M', 'G', 'U', 'X', 'T', 'W']	[2911, 760, 829, 1456, 1587, 1029, 2245, 1335, 697, 986, 1224, 944, 2059, 4000, 1888, 2448]	14	Present	NA	NA	PRESENT	0.22621393203735352	256.8802559375763	258.88659477233887	260.1702678203583	260.5201988220215	262.9912700653076	4.10467529296875	[256.88767886161804, 257.00439405441284, 257.988746881485, 258.15566897392273, 258.9063470363617, 259.02331590652466, 259.140056848526, 259.25678396224976, 259.3734350204468, 259.49027585983276, 259.6071000099182, 259.7237730026245, 259.84074783325195, 259.95755100250244, 260.0741128921509, 260.1911299228668, 260.3079340457916, 260.4247250556946, 260.54128789901733, 260.6582889556885, 260.7748429775238, 260.9912700653076]	[256.88740095367564, 257.0040676203423, 257.9870676203423, 258.1537676203423, 258.9037676203423, 259.020434287009, 259.13710095367566, 259.25376762034233, 259.370434287009, 259.4871009536757, 259.60376762034235, 259.720434287009, 259.8371009536757, 259.9537676203424, 260.07043428700905, 260.1871009536757, 260.3037676203424, 260.4204342870091, 260.53710095367575, 260.6537676203424, 260.7704342870091, 261.00376762034244]	2021_Jan_29_1057	59.89783546568834	1	1
15	44	FALSE	NV	v	['Y', 'H', 'N', 'T', 'C', 'E', 'J', 'M', 'U', 'X', 'G', 'P', 'W', 'V', 'R', 'Z']	[2670, 986, 1335, 1888, 829, 904, 1029, 1224, 2059, 4000, 944, 1456, 2448, 2245, 1587, 2911]	10	Present	NA	NA	PRESENT	0.2157280445098877	263.0033209323883	265.0031108856201	265.8199667930603	266.16987586021423	269.10763692855835	4.104526042938232	[263.01074385643005, 263.127464056015, 264.1116678714752, 264.27849793434143, 265.029639005661, 265.1462278366089, 265.262934923172, 265.37965202331543, 265.49637603759766, 265.6132769584656, 265.73020792007446, 265.84690499305725, 265.9636929035187, 266.08033299446106, 266.19729685783386, 266.3140239715576, 266.4307789802551, 266.5477349758148, 266.6644558906555, 266.7812509536743, 266.8813099861145, 267.10763692855835]	[263.00376762034244, 263.1204342870091, 264.1034342870091, 264.2701342870091, 265.0201342870091, 265.1368009536758, 265.25346762034246, 265.37013428700914, 265.4868009536758, 265.6034676203425, 265.72013428700916, 265.83680095367583, 265.9534676203425, 266.0701342870092, 266.18680095367586, 266.30346762034253, 266.4201342870092, 266.5368009536759, 266.65346762034255, 266.7701342870092, 266.8868009536759, 267.12013428700925]	2021_Jan_29_1057	59.89783546568834	1	1
15	45	FALSE	NA	v	['K', 'M', 'Y', 'R', 'E', 'V', 'Z', 'P', 'G', 'C', 'W', 'X', 'H', 'T', 'A', 'B']	[1122, 1224, 2670, 1587, 904, 2245, 2911, 1456, 944, 829, 2448, 4000, 986, 1888, 697, 760]	12	Present	NA	NA	PRESENT	0.1240079402923584	269.1094558238983	271.1191759109497	272.16951084136963	272.5196158885956	275.22400403022766	4.104828119277954	[269.1168780326843, 269.2334840297699, 270.2178499698639, 270.3849370479584, 271.13566493988037, 271.252259016037, 271.3689410686493, 271.4860210418701, 271.60284185409546, 271.71946907043457, 271.83624601364136, 271.9531579017639, 272.07004594802856, 272.18674302101135, 272.30337500572205, 272.42035388946533, 272.53702092170715, 272.6537890434265, 272.77057003974915, 272.8873839378357, 273.00413393974304, 273.22400403022766]	[269.12013428700925, 269.2368009536759, 270.21980095367593, 270.3865009536759, 271.1365009536759, 271.2531676203426, 271.36983428700927, 271.48650095367594, 271.6031676203426, 271.7198342870093, 271.83650095367597, 271.95316762034264, 272.0698342870093, 272.186500953676, 272.30316762034266, 272.41983428700934, 272.536500953676, 272.6531676203427, 272.76983428700936, 272.88650095367603, 273.0031676203427, 273.23650095367606]	2021_Jan_29_1057	59.89783546568834	1	1
15	46	FALSE	NA	v	['T', 'E', 'K', 'U', 'G', 'P', 'V', 'W', 'M', 'B', 'R', 'Y', 'N', 'X', 'A', 'H']	[1888, 904, 1122, 2059, 944, 1456, 2245, 2448, 1224, 760, 1587, 2670, 1335, 4000, 697, 986]	14	Present	NA	NA	PRESENT	0.17659807205200195	275.2328989505768	277.235732793808	278.5192058086395	278.86939096450806	281.3403699398041	4.104637145996094	[275.2403209209442, 275.3567409515381, 276.34096097946167, 276.507817029953, 277.2586090564728, 277.37542605400085, 277.49210691452026, 277.608943939209, 277.7256679534912, 277.84261989593506, 277.9592618942261, 278.075954914093, 278.1929988861084, 278.309809923172, 278.42667293548584, 278.54318594932556, 278.65989899635315, 278.77683091163635, 278.89357900619507, 279.01034784317017, 279.1272840499878, 279.3403699398041]	[275.23650095367606, 275.35316762034273, 276.33616762034274, 276.5028676203427, 277.2528676203427, 277.3695342870094, 277.4862009536761, 277.60286762034275, 277.7195342870094, 277.8362009536761, 277.9528676203428, 278.06953428700945, 278.1862009536761, 278.3028676203428, 278.41953428700947, 278.53620095367614, 278.6528676203428, 278.7695342870095, 278.88620095367617, 279.00286762034284, 279.1195342870095, 279.35286762034286]	2021_Jan_29_1057	59.89783546568834	1	1
15	47	FALSE	NV	v	['Y', 'E', 'T', 'Z', 'K', 'S', 'B', 'H', 'P', 'J', 'G', 'R', 'X', 'U', 'M', 'A']	[2670, 904, 1888, 2911, 1122, 1731, 760, 986, 1456, 1029, 944, 1587, 4000, 2059, 1224, 697]	13	Present	NA	NA	PRESENT	0.10178112983703612	281.3385429382324	283.3522069454193	284.5188479423523	284.8690118789673	287.4567370414734	4.104530096054077	[281.34596395492554, 281.4628219604492, 282.4471068382263, 282.61409091949463, 283.3815059661865, 283.48144698143005, 283.59828090667725, 283.71508288383484, 283.83190298080444, 283.9486720561981, 284.0653839111328, 284.1822729110718, 284.2991659641266, 284.41584300994873, 284.5328269004822, 284.6494550704956, 284.7662808895111, 284.8832149505615, 284.9997489452362, 285.11652398109436, 285.23326897621155, 285.4567379951477]	[281.35286762034286, 281.46953428700954, 282.45253428700954, 282.61923428700953, 283.36923428700953, 283.4859009536762, 283.6025676203429, 283.71923428700956, 283.83590095367623, 283.9525676203429, 284.0692342870096, 284.18590095367625, 284.3025676203429, 284.4192342870096, 284.5359009536763, 284.65256762034295, 284.7692342870096, 284.8859009536763, 285.002567620343, 285.11923428700965, 285.2359009536763, 285.46923428700967]	2021_Jan_29_1057	59.89783546568834	1	1
15	48	FALSE	NV	v	['V', 'B', 'T', 'S', 'W', 'M', 'R', 'H', 'X', 'J', 'Y', 'E', 'G', 'N', 'Z', 'C']	[2245, 760, 1888, 1731, 2448, 1224, 1587, 986, 4000, 1029, 2670, 904, 944, 1335, 2911, 829]	9	Present	NA	NA	PRESENT	0.03456020355224609	287.4616959095001	289.4683418273926	290.1687948703766	290.51873993873596	293.5731029510498	4.104761123657227	[287.46911787986755, 287.5856909751892, 288.5700590610504, 288.73693203926086, 289.487566947937, 289.6044399738312, 289.7213668823242, 289.8381419181824, 289.9550268650055, 290.0716679096222, 290.1884000301361, 290.305242061615, 290.4220759868622, 290.5389840602875, 290.6555440425873, 290.7724578380585, 290.8891689777374, 291.0060999393463, 291.12288999557495, 291.2396149635315, 291.35655999183655, 291.5731029510498]	[287.46923428700967, 287.58590095367634, 288.56890095367635, 288.73560095367634, 289.48560095367634, 289.602267620343, 289.7189342870097, 289.83560095367636, 289.95226762034304, 290.0689342870097, 290.1856009536764, 290.30226762034306, 290.41893428700973, 290.5356009536764, 290.6522676203431, 290.76893428700976, 290.88560095367643, 291.0022676203431, 291.1189342870098, 291.23560095367645, 291.3522676203431, 291.5856009536765]	2021_Jan_29_1057	59.89783546568834	1	1
15	49	FALSE	VN	v	['S', 'T', 'Y', 'C', 'R', 'A', 'B', 'P', 'surprise', 'M', 'J', 'Z', 'N', 'K', 'V', 'E']	[1731, 1888, 2670, 829, 1587, 697, 760, 1456, 'stimAuditory/all_stimAuditory/219.wav', 1224, 1029, 2911, 1335, 1122, 2245, 904]	12	Absent	NA	stimVisual/all_stimVisual/101.jpg	ABSENT	0.2396559715270996	293.5845727920532	295.5847899913788	296.63529992103577	296.98509883880615	299.6894700527191	4.104680061340332	[293.59199595451355, 293.7087650299072, 294.6932590007782, 294.8600869178772, 295.6107029914856, 295.72763895988464, 295.84427285194397, 295.9611749649048, 296.07793402671814, 296.194571018219, 296.31138801574707, 296.4284038543701, 296.54490399360657, 296.662015914917, 296.7785189151764, 296.89519906044006, 297.0123088359833, 297.1289269924164, 297.2457790374756, 297.36301493644714, 297.4625780582428, 297.6894688606262]	[293.5856009536765, 293.70226762034315, 294.68526762034315, 294.85196762034315, 295.60196762034315, 295.7186342870098, 295.8353009536765, 295.95196762034317, 296.06863428700984, 296.1853009536765, 296.3019676203432, 296.41863428700987, 296.53530095367654, 296.6519676203432, 296.7686342870099, 296.88530095367656, 297.00196762034324, 297.1186342870099, 297.2353009536766, 297.35196762034326, 297.46863428700993, 297.7019676203433]	2021_Jan_29_1057	59.89783546568834	1	1
15	50	FALSE	NN	v	['Z', 'H', 'B', 'J', 'C', 'M', 'V', 'K', 'W', 'N', 'A', 'S', 'E', 'Y', 'U', 'G']	[2911, 986, 760, 1029, 829, 1224, 2245, 1122, 2448, 1335, 697, 1731, 904, 2670, 2059, 944]	9	Absent	NA	NA	ABSENT	0.3883090019226074	299.6910538673401	301.70096492767334	302.40157985687256	302.75158500671387	305.80583691596985	4.104871988296509	[299.69847989082336, 299.8150010108948, 300.79936385154724, 300.966392993927, 301.716845035553, 301.8338620662689, 301.9506859779358, 302.0673449039459, 302.1839978694916, 302.3009240627289, 302.4175729751587, 302.53450298309326, 302.65146493911743, 302.7680640220642, 302.8847749233246, 303.0017919540405, 303.11844396591187, 303.2352318763733, 303.35189485549927, 303.468857049942, 303.5856120586395, 303.80583691596985]	[299.7019676203433, 299.81863428700996, 300.80163428700996, 300.96833428700995, 301.71833428700995, 301.8350009536766, 301.9516676203433, 302.06833428701, 302.18500095367665, 302.3016676203433, 302.41833428701, 302.5350009536767, 302.65166762034335, 302.76833428701, 302.8850009536767, 303.00166762034337, 303.11833428701004, 303.2350009536767, 303.3516676203434, 303.46833428701007, 303.58500095367674, 303.8183342870101]	2021_Jan_29_1057	59.89783546568834	1	1
15	51	FALSE	NA	v	['W', 'S', 'R', 'K', 'G', 'T', 'Z', 'B', 'H', 'E', 'P', 'C', 'X', 'J', 'U', 'Y']	[2448, 1731, 1587, 1122, 944, 1888, 2911, 760, 986, 904, 1456, 829, 4000, 1029, 2059, 2670]	13	Present	NA	NA	PRESENT	0.06493401527404785	305.8141918182373	307.8174297809601	308.98450779914856	309.3345899581909	311.92220401763916	4.104774236679077	[305.82161498069763, 305.93796706199646, 306.92238903045654, 307.08919191360474, 307.83977699279785, 307.9567220211029, 308.07359790802, 308.19034790992737, 308.3070149421692, 308.42399191856384, 308.5404770374298, 308.6574909687042, 308.77430295944214, 308.89102506637573, 309.0077049732208, 309.12476897239685, 309.24141097068787, 309.35829401016235, 309.4750728607178, 309.59162497520447, 309.7085988521576, 309.92220401763916]	[305.8183342870101, 305.93500095367676, 306.91800095367677, 307.08470095367676, 307.83470095367676, 307.95136762034343, 308.0680342870101, 308.1847009536768, 308.30136762034346, 308.41803428701013, 308.5347009536768, 308.6513676203435, 308.76803428701015, 308.8847009536768, 309.0013676203435, 309.1180342870102, 309.23470095367685, 309.3513676203435, 309.4680342870102, 309.5847009536769, 309.70136762034355, 309.9347009536769]	2021_Jan_29_1057	59.89783546568834	1	1
15	52	FALSE	NA	v	['C', 'P', 'R', 'N', 'G', 'M', 'W', 'Z', 'U', 'S', 'T', 'H', 'X', 'K', 'V', 'J']	[829, 1456, 1587, 1335, 944, 1224, 2448, 2911, 2059, 1731, 1888, 986, 4000, 1122, 2245, 1029]	13	Present	NA	NA	PRESENT	0.13418889045715332	311.91993498802185	313.93380784988403	315.10091280937195	315.4510428905487	318.0385699272156	4.104762077331543	[311.9273569583893, 312.04418897628784, 313.02854585647583, 313.19548892974854, 313.96299600601196, 314.0629229545593, 314.17971897125244, 314.2964549064636, 314.4132618904114, 314.5301208496094, 314.64678502082825, 314.7635889053345, 314.88044691085815, 314.99710297584534, 315.1138949394226, 315.2308099269867, 315.34752798080444, 315.46483993530273, 315.5811278820038, 315.69808888435364, 315.8147919178009, 316.0385699272156]	[311.9347009536769, 312.05136762034357, 313.0343676203436, 313.20106762034357, 313.95106762034357, 314.06773428701024, 314.1844009536769, 314.3010676203436, 314.41773428701026, 314.53440095367694, 314.6510676203436, 314.7677342870103, 314.88440095367696, 315.00106762034363, 315.1177342870103, 315.234400953677, 315.35106762034366, 315.46773428701033, 315.584400953677, 315.7010676203437, 315.81773428701035, 316.0510676203437]	2021_Jan_29_1057	59.89783546568834	1	1
15	53	FALSE	NA	v	['S', 'G', 'K', 'C', 'E', 'J', 'P', 'B', 'T', 'X', 'W', 'H', 'V', 'R', 'U', 'M']	[1731, 944, 1122, 829, 904, 1029, 1456, 760, 1888, 4000, 2448, 986, 2245, 1587, 2059, 1224]	10	Present	NA	NA	PRESENT	0.11471104621887208	318.0430989265442	320.0501379966736	320.86741185188293	321.2171108722687	324.1549370288849	4.104799032211304	[318.0505208969116, 318.1671018600464, 319.1516079902649, 319.31850695610046, 320.0692138671875, 320.18602895736694, 320.3025770187378, 320.4195809364319, 320.53614687919617, 320.6532459259033, 320.7698540687561, 320.88677406311035, 321.0035648345947, 321.12040305137634, 321.2372200489044, 321.35379099845886, 321.470566034317, 321.5875198841095, 321.70423007011414, 321.8210349082947, 321.9376628398895, 322.1549370288849]	[318.0510676203437, 318.1677342870104, 319.1507342870104, 319.31743428701037, 320.06743428701037, 320.18410095367705, 320.3007676203437, 320.4174342870104, 320.53410095367707, 320.65076762034374, 320.7674342870104, 320.8841009536771, 321.00076762034377, 321.11743428701044, 321.2341009536771, 321.3507676203438, 321.46743428701046, 321.58410095367714, 321.7007676203438, 321.8174342870105, 321.93410095367716, 322.1674342870105]	2021_Jan_29_1057	59.89783546568834	1	1
15	54	FALSE	NA	v	['Z', 'R', 'V', 'P', 'T', 'K', 'H', 'A', 'E', 'X', 'Y', 'S', 'U', 'N', 'C', 'G']	[2911, 1587, 2245, 1456, 1888, 1122, 986, 697, 904, 4000, 2670, 1731, 2059, 1335, 829, 944]	10	Present	NA	NA	PRESENT	0.08005595207214355	324.16611790657043	326.1668999195099	326.9835648536682	327.333575963974	330.2713029384613	4.104403018951416	[324.17353987693787, 324.2902798652649, 325.2746379375458, 325.44150590896606, 326.19244384765625, 326.3090260028839, 326.4258589744568, 326.54252886772156, 326.65937900543213, 326.7761330604553, 326.8931849002838, 327.0097029209137, 327.1265859603882, 327.2430739402771, 327.360435962677, 327.4766309261322, 327.59364891052246, 327.7102780342102, 327.82718086242676, 327.9438519477844, 328.043860912323, 328.2713029384613]	[324.1674342870105, 324.2841009536772, 325.2671009536772, 325.4338009536772, 326.1838009536772, 326.30046762034385, 326.4171342870105, 326.5338009536772, 326.6504676203439, 326.76713428701055, 326.8838009536772, 327.0004676203439, 327.1171342870106, 327.23380095367725, 327.3504676203439, 327.4671342870106, 327.58380095367727, 327.70046762034394, 327.8171342870106, 327.9338009536773, 328.05046762034397, 328.2838009536773]	2021_Jan_29_1057	59.89783546568834	1	1
15	55	FALSE	AA	v	['E', 'A', 'T', 'K', 'P', 'R', 'surprise', 'V', 'U', 'X', 'S', 'N', 'J', 'Z', 'B', 'Y']	[904, 697, 1888, 1122, 1456, 1587, 'stimAuditory/all_stimAuditory/208.wav', 2245, 2059, 4000, 1731, 1335, 1029, 2911, 760, 2670]	10	Present	stimAuditory/all_stimAuditory/218.wav	stimVisual/all_stimVisual/117.jpg	PRESENT	0.07662010192871094	330.2722489833832	332.28287386894226	333.1000099182129	333.4499969482422	336.3876700401306	4.1047961711883545	[330.2796709537506, 330.39638805389404, 331.380667924881, 331.54776191711426, 332.29825496673584, 332.4152629375458, 332.53191804885864, 332.64872694015503, 332.7655019760132, 332.8823809623718, 333.0157129764557, 333.11593294143677, 333.2325818538666, 333.349534034729, 333.4663119316101, 333.5831198692322, 333.6998839378357, 333.81669092178345, 333.9333448410034, 334.0503809452057, 334.1669900417328, 334.3876688480377]	[330.2838009536773, 330.400467620344, 331.383467620344, 331.550167620344, 332.300167620344, 332.41683428701066, 332.53350095367733, 332.650167620344, 332.7668342870107, 332.88350095367736, 333.00016762034403, 333.1168342870107, 333.2335009536774, 333.35016762034405, 333.4668342870107, 333.5835009536774, 333.7001676203441, 333.81683428701075, 333.9335009536774, 334.0501676203441, 334.1668342870108, 334.4001676203441]	2021_Jan_29_1057	59.89783546568834	1	1
15	56	FALSE	NA	v	['Z', 'V', 'R', 'A', 'E', 'B', 'T', 'Y', 'X', 'K', 'C', 'N', 'G', 'J', 'W', 'M']	[2911, 2245, 1587, 697, 904, 760, 1888, 2670, 4000, 1122, 829, 1335, 944, 1029, 2448, 1224]	9	Present	NA	NA	PRESENT	0.3288850784301758	336.3955488204956	338.39908599853516	339.0996868610382	339.4497528076172	342.50403690338135	4.104950904846191	[336.40297198295593, 336.51940083503723, 337.50393199920654, 337.67046189308167, 338.4212999343872, 338.5380959510803, 338.65477085113525, 338.77171301841736, 338.8883218765259, 339.005166053772, 339.12212085723877, 339.2389008998871, 339.35574984550476, 339.47265791893005, 339.58922696113586, 339.7058620452881, 339.82293796539307, 339.9396619796753, 340.0564498901367, 340.17309284210205, 340.2900550365448, 340.50403690338135]	[336.4001676203441, 336.5168342870108, 337.4998342870108, 337.6665342870108, 338.4165342870108, 338.53320095367746, 338.64986762034414, 338.7665342870108, 338.8832009536775, 338.99986762034416, 339.11653428701084, 339.2332009536775, 339.3498676203442, 339.46653428701086, 339.58320095367753, 339.6998676203442, 339.8165342870109, 339.93320095367756, 340.04986762034423, 340.1665342870109, 340.2832009536776, 340.5165342870109]	2021_Jan_29_1057	59.89783546568834	1	1
15	57	FALSE	NA	v	['E', 'Y', 'H', 'U', 'C', 'K', 'M', 'P', 'W', 'G', 'B', 'V', 'X', 'Z', 'J', 'N']	[904, 2670, 986, 2059, 829, 1122, 1224, 1456, 2448, 944, 760, 2245, 4000, 2911, 1029, 1335]	13	Present	NA	NA	PRESENT	0.19046306610107425	342.51805782318115	344.51556181907654	345.68280386924744	346.0327308177948	348.62040400505066	4.104842185974121	[342.52548003196716, 342.6255569458008, 343.6099338531494, 343.77673602104187, 344.54426193237305, 344.6442959308624, 344.76106786727905, 344.87776589393616, 344.9945750236511, 345.11136293411255, 345.22820591926575, 345.34498596191406, 345.4620678424835, 345.578644990921, 345.69543504714966, 345.81223702430725, 345.92900800704956, 346.04576206207275, 346.1624810695648, 346.27927589416504, 346.3961510658264, 346.62040305137634]	[342.5165342870109, 342.6332009536776, 343.6162009536776, 343.7829009536776, 344.5329009536776, 344.64956762034427, 344.76623428701095, 344.8829009536776, 344.9995676203443, 345.11623428701097, 345.23290095367764, 345.3495676203443, 345.466234287011, 345.58290095367767, 345.69956762034434, 345.816234287011, 345.9329009536777, 346.04956762034436, 346.16623428701104, 346.2829009536777, 346.3995676203444, 346.63290095367773]	2021_Jan_29_1057	59.89783546568834	1	1
15	58	FALSE	NA	v	['K', 'V', 'Y', 'G', 'W', 'S', 'H', 'C', 'P', 'X', 'M', 'N', 'R', 'A', 'U', 'J']	[1122, 2245, 2670, 944, 2448, 1731, 986, 829, 1456, 4000, 1224, 1335, 1587, 697, 2059, 1029]	10	Present	NA	NA	PRESENT	0.0908339023590088	348.6244637966156	350.6319968700409	351.4492609500885	351.79913091659546	354.7367699146271	4.104773044586182	[348.6318869590759, 348.74865102767944, 349.7330219745636, 349.89986085891724, 350.6505649089813, 350.7674698829651, 350.88399291038513, 351.00107502937317, 351.117712020874, 351.23464488983154, 351.3512499332428, 351.4679169654846, 351.5849840641022, 351.7017939090729, 351.81844687461853, 351.9350788593292, 352.05219292640686, 352.16890597343445, 352.2856729030609, 352.4023599624634, 352.519161939621, 352.7367699146271]	[348.63290095367773, 348.7495676203444, 349.7325676203444, 349.8992676203444, 350.6492676203444, 350.7659342870111, 350.88260095367775, 350.9992676203444, 351.1159342870111, 351.2326009536778, 351.34926762034445, 351.4659342870111, 351.5826009536778, 351.6992676203445, 351.81593428701115, 351.9326009536778, 352.0492676203445, 352.16593428701117, 352.28260095367784, 352.3992676203445, 352.5159342870112, 352.74926762034454]	2021_Jan_29_1057	59.89783546568834	1	1
15	59	FALSE	NN	v	['E', 'G', 'Z', 'W', 'J', 'N', 'K', 'S', 'C', 'U', 'R', 'Y', 'B', 'H', 'T', 'A']	[904, 944, 2911, 2448, 1029, 1335, 1122, 1731, 829, 2059, 1587, 2670, 760, 986, 1888, 697]	12	Absent	NA	NA	ABSENT	0.16031980514526367	354.7472448348999	356.7483699321747	357.7987208366394	358.1489119529724	360.8531370162964	4.104767084121704	[354.7546670436859, 354.87159490585327, 355.85638403892517, 356.022647857666, 356.77349185943604, 356.89015889167786, 357.0070700645447, 357.12372493743896, 357.2406768798828, 357.3580448627472, 357.47440099716187, 357.5909700393677, 357.707799911499, 357.82465505599976, 357.9414038658142, 358.0581500530243, 358.1750569343567, 358.29164600372314, 358.40869402885437, 358.52535605430603, 358.6253960132599, 358.8531379699707]	[354.74926762034454, 354.8659342870112, 355.8489342870112, 356.0156342870112, 356.7656342870112, 356.8823009536779, 356.99896762034456, 357.11563428701123, 357.2323009536779, 357.3489676203446, 357.46563428701126, 357.58230095367793, 357.6989676203446, 357.8156342870113, 357.93230095367795, 358.0489676203446, 358.1656342870113, 358.282300953678, 358.39896762034465, 358.5156342870113, 358.632300953678, 358.86563428701135]	2021_Jan_29_1057	59.89783546568834	1	1
15	60	FALSE	NN	v	['A', 'Y', 'K', 'Z', 'W', 'U', 'V', 'J', 'R', 'T', 'S', 'P', 'H', 'C', 'E', 'G']	[697, 2670, 1122, 2911, 2448, 2059, 2245, 1029, 1587, 1888, 1731, 1456, 986, 829, 904, 944]	10	Absent	NA	NA	ABSENT	0.2846651077270508	360.853700876236	362.8648769855499	363.6817398071289	364.0316889286041	366.9695029258728	4.104625940322876	[360.8611249923706, 360.9777309894562, 361.9621548652649, 362.12912106513977, 362.87961983680725, 362.99662685394287, 363.11321997642517, 363.230183839798, 363.3469178676605, 363.4638419151306, 363.58043003082275, 363.6973989009857, 363.8139839172363, 363.93090987205505, 364.04787397384644, 364.16450095176697, 364.28118205070496, 364.3979699611664, 364.51484394073486, 364.6316900253296, 364.7484509944916, 364.9695038795471]	[360.86563428701135, 360.982300953678, 361.965300953678, 362.132000953678, 362.882000953678, 362.9986676203447, 363.11533428701136, 363.23200095367804, 363.3486676203447, 363.4653342870114, 363.58200095367806, 363.69866762034474, 363.8153342870114, 363.9320009536781, 364.04866762034476, 364.16533428701143, 364.2820009536781, 364.3986676203448, 364.51533428701146, 364.63200095367813, 364.7486676203448, 364.98200095367815]	2021_Jan_29_1057	59.89783546568834	1	1
15	61	FALSE	NA	v	['Z', 'E', 'P', 'S', 'R', 'A', 'K', 'N', 'Y', 'V', 'X', 'C', 'G', 'T', 'U', 'W']	[2911, 904, 1456, 1731, 1587, 697, 1122, 1335, 2670, 2245, 4000, 829, 944, 1888, 2059, 2448]	11	Present	NA	NA	PRESENT	0.1693129539489746	366.97692584991455	368.9811809062958	369.9152338504791	370.2647547721863	373.0858688354492	4.104687929153442	[366.98434805870056, 367.10081601142883, 368.08529686927795, 368.25190806388855, 369.00271701812744, 369.1194820404053, 369.23638892173767, 369.3531789779663, 369.46979904174805, 369.5867328643799, 369.70354104042053, 369.8201858997345, 369.9371180534363, 370.05387902259827, 370.1706540584564, 370.2873640060425, 370.4042499065399, 370.521036863327, 370.6377639770508, 370.7544388771057, 370.87156200408936, 371.0858688354492]	[366.98200095367815, 367.0986676203448, 368.08166762034483, 368.2483676203448, 368.9983676203448, 369.1150342870115, 369.23170095367817, 369.34836762034485, 369.4650342870115, 369.5817009536782, 369.69836762034487, 369.81503428701154, 369.9317009536782, 370.0483676203449, 370.16503428701157, 370.28170095367824, 370.3983676203449, 370.5150342870116, 370.63170095367826, 370.74836762034494, 370.8650342870116, 371.09836762034496]	2021_Jan_29_1057	59.89783546568834	1	1
15	62	FALSE	NA	v	['J', 'Z', 'E', 'G', 'H', 'P', 'N', 'R', 'B', 'T', 'A', 'S', 'X', 'V', 'C', 'W']	[1029, 2911, 904, 944, 986, 1456, 1335, 1587, 760, 1888, 697, 1731, 4000, 2245, 829, 2448]	13	Present	NA	NA	PRESENT	0.18267607688903809	373.0994839668274	375.09749579429626	376.2648539543152	376.6144549846649	379.2022368907929	4.104741096496582	[373.1069059371948, 373.22392201423645, 374.19127583503723, 374.3581540584564, 375.12568402290344, 375.242418050766, 375.35925102233887, 375.47618293762207, 375.5930759906769, 375.6929109096527, 375.8096458911896, 375.9264099597931, 376.04321002960205, 376.1599180698395, 376.2767858505249, 376.39355397224426, 376.51063299179077, 376.62715005874634, 376.7438838481903, 376.8607289791107, 376.97762084007263, 377.20223593711853]	[373.09836762034496, 373.21503428701163, 374.19803428701164, 374.36473428701163, 375.11473428701163, 375.2314009536783, 375.348067620345, 375.46473428701165, 375.5814009536783, 375.698067620345, 375.8147342870117, 375.93140095367835, 376.048067620345, 376.1647342870117, 376.28140095367837, 376.39806762034505, 376.5147342870117, 376.6314009536784, 376.74806762034507, 376.86473428701174, 376.9814009536784, 377.21473428701177]	2021_Jan_29_1057	59.89783546568834	1	1
15	63	FALSE	NA	v	['E', 'M', 'Z', 'Y', 'K', 'C', 'S', 'G', 'R', 'P', 'X', 'T', 'U', 'H', 'J', 'B']	[904, 1224, 2911, 2670, 1122, 829, 1731, 944, 1587, 1456, 4000, 1888, 2059, 986, 1029, 760]	11	Present	NA	NA	PRESENT	0.17110896110534668	379.2058868408203	381.2139539718628	382.14760088920593	382.4975337982178	385.31860399246216	4.104650020599365	[379.2133090496063, 379.33000206947327, 380.3144738674164, 380.48131704330444, 381.2318639755249, 381.3488700389862, 381.4654929637909, 381.58246397972107, 381.6990828514099, 381.8160388469696, 381.9327070713043, 382.0495779514313, 382.1664009094238, 382.28317499160767, 382.3999149799347, 382.5165059566498, 382.6334328651428, 382.75034499168396, 382.86707496643066, 382.9837348461151, 383.10067796707153, 383.31860399246216]	[379.21473428701177, 379.33140095367844, 380.31440095367844, 380.48110095367844, 381.23110095367844, 381.3477676203451, 381.4644342870118, 381.58110095367846, 381.69776762034513, 381.8144342870118, 381.9311009536785, 382.04776762034516, 382.16443428701183, 382.2811009536785, 382.3977676203452, 382.51443428701185, 382.6311009536785, 382.7477676203452, 382.8644342870119, 382.98110095367855, 383.0977676203452, 383.3311009536786]	2021_Jan_29_1057	59.89783546568834	1	1
15	64	FALSE	NV	v	['P', 'A', 'W', 'U', 'C', 'K', 'E', 'Y', 'Z', 'S', 'X', 'M', 'H', 'N', 'B', 'G']	[1456, 697, 2448, 2059, 829, 1122, 904, 2670, 2911, 1731, 4000, 1224, 986, 1335, 760, 944]	11	Present	NA	NA	PRESENT	0.13666701316833496	385.32888293266296	387.3300778865814	388.2640678882599	388.6140468120575	391.4349699020386	4.104892015457153	[385.3363058567047, 385.4528138637543, 386.4372749328613, 386.6044590473175, 387.35491490364075, 387.4718539714813, 387.5885548591614, 387.70530796051025, 387.8221130371094, 387.93887996673584, 388.0555980205536, 388.17232489585876, 388.2894039154053, 388.4060938358307, 388.52291202545166, 388.63958501815796, 388.75643491744995, 388.8730459213257, 388.9899969100952, 389.1066598892212, 389.2067618370056, 389.4349708557129]	[385.3311009536786, 385.44776762034525, 386.43076762034525, 386.59746762034524, 387.34746762034524, 387.4641342870119, 387.5808009536786, 387.69746762034526, 387.81413428701194, 387.9308009536786, 388.0474676203453, 388.16413428701196, 388.28080095367864, 388.3974676203453, 388.514134287012, 388.63080095367866, 388.74746762034533, 388.864134287012, 388.9808009536787, 389.09746762034536, 389.21413428701203, 389.4474676203454]	2021_Jan_29_1057	59.89783546568834	1	1
15	65	FALSE	NA	v	['S', 'V', 'W', 'N', 'G', 'K', 'B', 'M', 'C', 'H', 'X', 'Y', 'J', 'R', 'U', 'A']	[1731, 2245, 2448, 1335, 944, 1122, 760, 1224, 829, 986, 4000, 2670, 1029, 1587, 2059, 697]	11	Present	NA	NA	PRESENT	0.08497214317321777	391.4348919391632	393.44658493995667	394.3803479671478	394.73035192489624	397.5513370037079	4.104752063751221	[391.44231390953064, 391.55930185317993, 392.5436749458313, 392.71052384376526, 393.47791385650635, 393.5780098438263, 393.6946518421173, 393.8116488456726, 393.9285018444061, 394.04516196250916, 394.16184997558594, 394.2786660194397, 394.3956298828125, 394.51238083839417, 394.6290440559387, 394.7457368373871, 394.86265206336975, 394.9793529510498, 395.09624695777893, 395.2129650115967, 395.32975006103516, 395.5513379573822]	[391.4474676203454, 391.56413428701205, 392.54713428701206, 392.71383428701205, 393.46383428701205, 393.5805009536787, 393.6971676203454, 393.81383428701207, 393.93050095367875, 394.0471676203454, 394.1638342870121, 394.28050095367877, 394.39716762034544, 394.5138342870121, 394.6305009536788, 394.74716762034546, 394.86383428701214, 394.9805009536788, 395.0971676203455, 395.21383428701216, 395.33050095367884, 395.5638342870122]	2021_Jan_29_1057	59.89783546568834	1	1
15	66	FALSE	NV	v	['P', 'B', 'U', 'A', 'S', 'C', 'J', 'Z', 'N', 'X', 'R', 'E', 'V', 'W', 'T', 'G']	[1456, 760, 2059, 697, 1731, 829, 1029, 2911, 1335, 4000, 1587, 904, 2245, 2448, 1888, 944]	10	Present	NA	NA	PRESENT	0.08968806266784668	397.5582568645478	399.5628979206085	400.3801159858704	400.7299988269806	403.6677029132843	4.104804992675781	[397.56568002700806, 397.68235898017883, 398.66668796539307, 398.8335130214691, 399.58411502838135, 399.7010190486908, 399.8176808357239, 399.9344148635864, 400.0513479709625, 400.1681430339813, 400.2847900390625, 400.4015529155731, 400.5184350013733, 400.63506293296814, 400.7520809173584, 400.86882495880127, 400.98569107055664, 401.1023769378662, 401.21934604644775, 401.33598804473877, 401.45281887054443, 401.6677029132843]	[397.5638342870122, 397.68050095367886, 398.66350095367886, 398.83020095367885, 399.58020095367885, 399.69686762034553, 399.8135342870122, 399.9302009536789, 400.04686762034555, 400.1635342870122, 400.2802009536789, 400.3968676203456, 400.51353428701225, 400.6302009536789, 400.7468676203456, 400.86353428701227, 400.98020095367895, 401.0968676203456, 401.2135342870123, 401.33020095367897, 401.44686762034564, 401.680200953679]	2021_Jan_29_1057	59.89783546568834	1	1
15	67	FALSE	NN	v	['P', 'B', 'V', 'C', 'K', 'N', 'A', 'E', 'U', 'W', 'M', 'G', 'H', 'S', 'Y', 'J']	[1456, 760, 2245, 829, 1122, 1335, 697, 904, 2059, 2448, 1224, 944, 986, 1731, 2670, 1029]	8	Absent	NA	NA	ABSENT	0.16693782806396484	403.6807999610901	405.6793580055237	406.26300382614136	406.6128947734833	409.7840700149536	4.104712009429932	[403.6882219314575, 403.80516290664673, 404.7726149559021, 404.93953585624695, 405.70704793930054, 405.8237850666046, 405.94064497947693, 406.0575530529022, 406.1743109226227, 406.29095005989075, 406.4077010154724, 406.5245530605316, 406.62455201148987, 406.74140906333923, 406.8748269081116, 406.9916639328003, 407.0916819572449, 407.2085120677948, 407.32534885406494, 407.4421000480652, 407.55929684638977, 407.7840690612793]	[403.680200953679, 403.79686762034567, 404.77986762034567, 404.94656762034566, 405.69656762034566, 405.81323428701234, 405.929900953679, 406.0465676203457, 406.16323428701236, 406.27990095367903, 406.3965676203457, 406.5132342870124, 406.62990095367905, 406.74656762034573, 406.8632342870124, 406.9799009536791, 407.09656762034575, 407.2132342870124, 407.3299009536791, 407.4465676203458, 407.56323428701245, 407.7965676203458]	2021_Jan_29_1057	59.89783546568834	1	1
15	68	FALSE	NA	v	['E', 'T', 'B', 'H', 'S', 'U', 'K', 'C', 'Z', 'X', 'J', 'A', 'V', 'M', 'Y', 'G']	[904, 1888, 760, 986, 1731, 2059, 1122, 829, 2911, 4000, 1029, 697, 2245, 1224, 2670, 944]	10	Present	NA	NA	PRESENT	0.01958203315734863	409.7871530056	411.7957308292389	412.6125857830048	412.96269488334656	415.90043687820435	4.104706048965454	[409.7945749759674, 409.9115459918976, 410.89560985565186, 411.0624649524689, 411.81336283683777, 411.93029403686523, 412.0470018386841, 412.16367387771606, 412.2804448604584, 412.397155046463, 412.51411604881287, 412.6309509277344, 412.74770998954773, 412.86437487602234, 412.98128390312195, 413.09811305999756, 413.21489906311035, 413.33154296875, 413.4484419822693, 413.5651149749756, 413.68190598487854, 413.90043807029724]	[409.7965676203458, 409.9132342870125, 410.8962342870125, 411.06293428701247, 411.81293428701247, 411.92960095367914, 412.0462676203458, 412.1629342870125, 412.27960095367916, 412.39626762034584, 412.5129342870125, 412.6296009536792, 412.74626762034586, 412.86293428701254, 412.9796009536792, 413.0962676203459, 413.21293428701256, 413.32960095367923, 413.4462676203459, 413.5629342870126, 413.67960095367926, 413.9129342870126]	2021_Jan_29_1057	59.89783546568834	1	1
15	69	FALSE	NV	v	['R', 'U', 'V', 'N', 'C', 'A', 'T', 'X', 'J', 'H', 'E', 'P', 'Y', 'Z', 'K', 'M']	[1587, 2059, 2245, 1335, 829, 697, 1888, 4000, 1029, 986, 904, 1456, 2670, 2911, 1122, 1224]	8	Present	NA	NA	PRESENT	0.08106493949890137	415.9102997779846	417.9120919704437	418.49584889411926	418.8459279537201	422.01680397987366	4.104712009429932	[415.91772198677063, 416.0345768928528, 417.01859188079834, 417.1856758594513, 417.936714887619, 418.0530700683594, 418.1700699329376, 418.2868528366089, 418.40364694595337, 418.5202829837799, 418.63716292381287, 418.7537798881531, 418.87058687210083, 418.98751306533813, 419.10411500930786, 419.22103691101074, 419.33780097961426, 419.4547190666199, 419.57143902778625, 419.6882469654083, 419.8049268722534, 420.01680302619934]	[415.9129342870126, 416.0296009536793, 417.0126009536793, 417.1793009536793, 417.9293009536793, 418.04596762034595, 418.1626342870126, 418.2793009536793, 418.39596762034597, 418.51263428701265, 418.6293009536793, 418.745967620346, 418.86263428701267, 418.97930095367934, 419.095967620346, 419.2126342870127, 419.32930095367936, 419.44596762034604, 419.5626342870127, 419.6793009536794, 419.79596762034606, 420.0293009536794]	2021_Jan_29_1057	59.89783546568834	1	1
15	70	FALSE	VA	v	['V', 'H', 'W', 'T', 'U', 'Z', 'A', 'surprise', 'K', 'S', 'X', 'P', 'G', 'R', 'C', 'E']	[2245, 986, 2448, 1888, 2059, 2911, 697, 'stimAuditory/all_stimAuditory/120.wav', 1122, 1731, 4000, 1456, 944, 1587, 829, 904]	11	Present	NA	stimVisual/all_stimVisual/123.jpg	ABSENT	0.00550818443298339	422.01631593704224	424.0282638072967	424.96220779418945	425.312038898468	428.1331698894501	4.10490608215332	[422.023738861084, 422.1407518386841, 423.125097990036, 423.29178500175476, 424.0593378543854, 424.15927290916443, 424.276095867157, 424.3930380344391, 424.5097279548645, 424.62659192085266, 424.743371963501, 424.8600709438324, 424.97691583633423, 425.0938198566437, 425.21057987213135, 425.3271539211273, 425.44412302970886, 425.56072902679443, 425.67762994766235, 425.7943139076233, 425.9112968444824, 426.1331698894501]	[422.0293009536794, 422.1459676203461, 423.1289676203461, 423.2956676203461, 424.0456676203461, 424.16233428701275, 424.27900095367943, 424.3956676203461, 424.5123342870128, 424.62900095367945, 424.7456676203461, 424.8623342870128, 424.9790009536795, 425.09566762034615, 425.2123342870128, 425.3290009536795, 425.44566762034617, 425.56233428701285, 425.6790009536795, 425.7956676203462, 425.91233428701287, 426.1456676203462]	2021_Jan_29_1057	59.89783546568834	1	1
15	71	FALSE	NA	v	['Y', 'H', 'W', 'J', 'E', 'S', 'N', 'T', 'X', 'G', 'Z', 'U', 'P', 'M', 'R', 'B']	[2670, 986, 2448, 1029, 904, 1731, 1335, 1888, 4000, 944, 2911, 2059, 1456, 1224, 1587, 760]	9	Present	NA	NA	PRESENT	0.18593287467956543	428.1397049427033	430.1447288990021	430.8454868793487	431.1953299045563	434.2495369911194	4.10480809211731	[428.147127866745, 428.26369404792786, 429.2481219768524, 429.4147250652313, 430.1656799316406, 430.282350063324, 430.3992829322815, 430.51589703559875, 430.632936000824, 430.74939489364624, 430.86641693115234, 430.9832270145416, 431.0998899936676, 431.2167959213257, 431.3335750102997, 431.45022892951965, 431.56710600852966, 431.6840000152588, 431.80061292648315, 431.91741490364075, 432.03430104255676, 432.2495369911194]	[428.1456676203462, 428.2623342870129, 429.2453342870129, 429.4120342870129, 430.1620342870129, 430.27870095367956, 430.39536762034624, 430.5120342870129, 430.6287009536796, 430.74536762034626, 430.86203428701293, 430.9787009536796, 431.0953676203463, 431.21203428701295, 431.32870095367963, 431.4453676203463, 431.562034287013, 431.67870095367965, 431.7953676203463, 431.912034287013, 432.0287009536797, 432.262034287013]	2021_Jan_29_1057	59.89783546568834	1	1
15	72	FALSE	NA	v	['H', 'M', 'R', 'E', 'B', 'P', 'V', 'W', 'U', 'T', 'G', 'A', 'X', 'S', 'C', 'K']	[986, 1224, 1587, 904, 760, 1456, 2245, 2448, 2059, 1888, 944, 697, 4000, 1731, 829, 1122]	13	Present	NA	NA	PRESENT	0.1271979808807373	434.26256585121155	436.2611739635467	437.42858600616455	437.7787389755249	440.3659029006958	4.104728937149048	[434.26998805999756, 434.386656999588, 435.35435795783997, 435.5210769176483, 436.28885102272034, 436.4053649902344, 436.52243995666504, 436.63897585868835, 436.7559440135956, 436.8726170063019, 436.989541053772, 437.106232881546, 437.22312688827515, 437.3398768901825, 437.4567940235138, 437.5733230113983, 437.67328691482544, 437.8069820404053, 437.9068510532379, 438.0236759185791, 438.1406629085541, 438.3659019470215]	[434.262034287013, 434.3787009536797, 435.3617009536797, 435.5284009536797, 436.2784009536797, 436.39506762034637, 436.51173428701304, 436.6284009536797, 436.7450676203464, 436.86173428701306, 436.97840095367974, 437.0950676203464, 437.2117342870131, 437.32840095367976, 437.44506762034644, 437.5617342870131, 437.6784009536798, 437.79506762034646, 437.91173428701313, 438.0284009536798, 438.1450676203465, 438.37840095367983]	2021_Jan_29_1057	59.89783546568834	1	1
15	73	FALSE	NV	v	['H', 'J', 'C', 'K', 'P', 'S', 'Y', 'X', 'E', 'V', 'N', 'M', 'G', 'U', 'A', 'B']	[986, 1029, 829, 1122, 1456, 1731, 2670, 4000, 904, 2245, 1335, 1224, 944, 2059, 697, 760]	8	Present	NA	NA	PRESENT	0.21972322463989255	440.36868500709534	442.37730979919434	442.9612078666687	443.31113600730896	446.4822700023651	4.104960203170776	[440.3761088848114, 440.493047952652, 441.4772539138794, 441.64423298835754, 442.39496994018555, 442.5116710662842, 442.6285960674286, 442.7455139160156, 442.8621859550476, 442.9789490699768, 443.0958728790283, 443.21255588531494, 443.32939291000366, 443.4459319114685, 443.56305289268494, 443.6796770095825, 443.79643297195435, 443.9133870601654, 444.0300419330597, 444.14681792259216, 444.2636139392853, 444.48227095603943]	[440.37840095367983, 440.4950676203465, 441.4780676203465, 441.6447676203465, 442.3947676203465, 442.5114342870132, 442.62810095367985, 442.7447676203465, 442.8614342870132, 442.97810095367987, 443.09476762034654, 443.2114342870132, 443.3281009536799, 443.44476762034657, 443.56143428701324, 443.6781009536799, 443.7947676203466, 443.91143428701326, 444.02810095367994, 444.1447676203466, 444.2614342870133, 444.49476762034664]	2021_Jan_29_1057	59.89783546568834	1	1
15	74	FALSE	NV	v	['A', 'U', 'V', 'R', 'B', 'S', 'T', 'J', 'G', 'C', 'K', 'N', 'P', 'X', 'E', 'H']	[697, 2059, 2245, 1587, 760, 1731, 1888, 1029, 944, 829, 1122, 1335, 1456, 4000, 904, 986]	14	Present	NA	NA	PRESENT	0.27315616607666016	446.49180698394775	448.49397683143616	449.77771496772766	450.127564907074	452.59863686561584	4.1046600341796875	[446.4992299079895, 446.61614084243774, 447.6006329059601, 447.76730704307556, 448.51794505119324, 448.6347758769989, 448.75180983543396, 448.86852288246155, 448.9853708744049, 449.1020128726959, 449.2188649177551, 449.335706949234, 449.45238184928894, 449.56914806365967, 449.6857810020447, 449.8027448654175, 449.9195468425751, 450.0363779067993, 450.1531448364258, 450.26996397972107, 450.36985898017883, 450.59863686561584]	[446.49476762034664, 446.6114342870133, 447.5944342870133, 447.7611342870133, 448.5111342870133, 448.62780095368, 448.74446762034665, 448.86113428701333, 448.97780095368, 449.0944676203467, 449.21113428701335, 449.32780095368, 449.4444676203467, 449.5611342870134, 449.67780095368005, 449.7944676203467, 449.9111342870134, 450.02780095368007, 450.14446762034675, 450.2611342870134, 450.3778009536801, 450.61113428701344]	2021_Jan_29_1057	59.89783546568834	1	1
15	75	FALSE	NV	v	['B', 'R', 'J', 'N', 'V', 'P', 'G', 'X', 'M', 'Z', 'W', 'U', 'T', 'K', 'S', 'C']	[760, 1587, 1029, 1335, 2245, 1456, 944, 4000, 1224, 2911, 2448, 2059, 1888, 1122, 1731, 829]	8	Present	NA	NA	PRESENT	0.7576749324798584	452.5982038974762	454.61033487319946	455.19386982917786	455.5439929962158	458.7150039672851	4.104669094085693	[452.6056270599365, 452.72252583503723, 453.70685505867004, 453.8737189769745, 454.64106583595276, 454.7410418987274, 454.8581609725952, 454.9746239185333, 455.09160590171814, 455.20823097229004, 455.3251030445099, 455.4420189857483, 455.55868697166443, 455.6754310131073, 455.79230189323425, 455.9090168476105, 456.0259430408478, 456.1425189971924, 456.2594590187073, 456.37611389160156, 456.49296283721924, 456.71500396728516]	[452.61113428701344, 452.7278009536801, 453.7108009536801, 453.8775009536801, 454.6275009536801, 454.7441676203468, 454.86083428701346, 454.97750095368013, 455.0941676203468, 455.2108342870135, 455.32750095368016, 455.44416762034683, 455.5608342870135, 455.6775009536802, 455.79416762034685, 455.91083428701353, 456.0275009536802, 456.1441676203469, 456.26083428701355, 456.3775009536802, 456.4941676203469, 456.72750095368025]	2021_Jan_29_1057	59.89783546568834	1	1
15	76	FALSE	AV	v	['E', 'R', 'U', 'K', 'N', 'A', 'H', 'V', 'M', 'surprise', 'P', 'S', 'X', 'Z', 'B', 'W']	[904, 1587, 2059, 1122, 1335, 697, 986, 2245, 1224, 'stimAuditory/all_stimAuditory/215.wav', 1456, 1731, 4000, 2911, 760, 2448]	13	Present	stimAuditory/all_stimAuditory/221.wav	stimVisual/all_stimVisual/104.jpg	ABSENT	0.313701868057251	458.7212779521942	460.7265939712525	461.8937149047851	462.2439179420471	464.8313698768616	4.104775905609131	[458.72870087623596, 458.84604501724243, 459.82972502708435, 459.9966838359833, 460.7473750114441, 460.8645119667053, 460.9810709953308, 461.09771394729614, 461.21448397636414, 461.33126187324524, 461.44817304611206, 461.56489992141724, 461.6818950176239, 461.79846596717834, 461.9154839515686, 462.0321538448334, 462.1488530635834, 462.26580905914307, 462.38226103782654, 462.4993028640747, 462.61611890792847, 462.83136892318726]	[458.72750095368025, 458.8441676203469, 459.8271676203469, 459.9938676203469, 460.7438676203469, 460.8605342870136, 460.97720095368027, 461.09386762034694, 461.2105342870136, 461.3272009536803, 461.44386762034696, 461.56053428701364, 461.6772009536803, 461.793867620347, 461.91053428701366, 462.02720095368034, 462.143867620347, 462.2605342870137, 462.37720095368036, 462.49386762034703, 462.6105342870137, 462.84386762034705]	2021_Jan_29_1057	59.89783546568834	1	1
15	77	FALSE	NA	v	['W', 'E', 'U', 'B', 'A', 'N', 'T', 'X', 'G', 'V', 'C', 'P', 'R', 'S', 'M', 'J']	[2448, 904, 2059, 760, 697, 1335, 1888, 4000, 944, 2245, 829, 1456, 1587, 1731, 1224, 1029]	8	Present	NA	NA	PRESENT	0.4233860969543457	464.844605922699	466.8434789180755	467.4270138740539	467.77671098709106	470.9477369785309	4.104258060455322	[464.8520288467407, 464.968642950058, 465.9360280036926, 466.1029028892517, 466.8704080581665, 466.9873478412628, 467.1039650440216, 467.22079205513, 467.3375129699707, 467.4547789096832, 467.57124400138855, 467.68807101249695, 467.80467200279236, 467.9215979576111, 468.0383288860321, 468.1383309364319, 468.2551519870758, 468.3718738555908, 468.4886770248413, 468.6054708957672, 468.7224440574646, 468.9477369785309]	[464.84386762034705, 464.96053428701373, 465.94353428701373, 466.1102342870137, 466.8602342870137, 466.9769009536804, 467.0935676203471, 467.21023428701375, 467.3269009536804, 467.4435676203471, 467.56023428701377, 467.67690095368044, 467.7935676203471, 467.9102342870138, 468.02690095368047, 468.14356762034714, 468.2602342870138, 468.3769009536805, 468.49356762034716, 468.61023428701384, 468.7269009536805, 468.96023428701386]	2021_Jan_29_1057	59.89783546568834	1	1
15	78	FALSE	NN	v	['U', 'E', 'R', 'A', 'C', 'M', 'K', 'W', 'Y', 'N', 'S', 'Z', 'T', 'H', 'V', 'J']	[2059, 904, 1587, 697, 829, 1224, 1122, 2448, 2670, 1335, 1731, 2911, 1888, 986, 2245, 1029]	10	Absent	NA	NA	ABSENT	0.1799769401550293	470.9505968093872	472.95942091941833	473.7765049934387	474.12646794319153	477.0641028881073	4.104681968688965	[470.9580180644989, 471.0748679637909, 472.0591080188751, 472.2261109352112, 472.9768400192261, 473.09352684020996, 473.2103888988495, 473.3273148536682, 473.44410490989685, 473.56068301200867, 473.67765498161316, 473.7942850589752, 473.911288022995, 474.0278718471527, 474.14468002319336, 474.2615008354187, 474.37803292274475, 474.4951729774475, 474.6118938922882, 474.7287299633026, 474.84543895721436, 475.064101934433]	[470.96023428701386, 471.07690095368054, 472.05990095368054, 472.22660095368053, 472.97660095368053, 473.0932676203472, 473.2099342870139, 473.32660095368055, 473.4432676203472, 473.5599342870139, 473.6766009536806, 473.79326762034725, 473.9099342870139, 474.0266009536806, 474.1432676203473, 474.25993428701395, 474.3766009536806, 474.4932676203473, 474.60993428701397, 474.72660095368065, 474.8432676203473, 475.07660095368067]	2021_Jan_29_1057	59.89783546568834	1	1
15	79	FALSE	NN	v	['Y', 'K', 'E', 'V', 'B', 'W', 'N', 'G', 'A', 'H', 'J', 'C', 'S', 'P', 'M', 'R']	[2670, 1122, 904, 2245, 760, 2448, 1335, 944, 697, 986, 1029, 829, 1731, 1456, 1224, 1587]	12	Absent	NA	NA	ABSENT	0.18545794486999512	477.07364082336426	479.0758647918701	480.1260738372803	480.47614097595215	483.1804699897766	4.104605197906494	[477.0810639858246, 477.1979229450226, 478.18256092071533, 478.3493700027466, 479.09978699684143, 479.2166838645935, 479.3334228992462, 479.4503118991852, 479.56703305244446, 479.6839530467987, 479.80063796043396, 479.9173278808594, 480.03401494026184, 480.1509668827057, 480.26764392852783, 480.38462686538696, 480.50114703178406, 480.61822605133057, 480.7348380088806, 480.85169506073, 480.9516599178314, 481.1804699897766]	[477.07660095368067, 477.19326762034734, 478.17626762034735, 478.34296762034734, 479.09296762034734, 479.209634287014, 479.3263009536807, 479.44296762034736, 479.55963428701403, 479.6763009536807, 479.7929676203474, 479.90963428701406, 480.02630095368073, 480.1429676203474, 480.2596342870141, 480.37630095368075, 480.49296762034743, 480.6096342870141, 480.7263009536808, 480.84296762034745, 480.9596342870141, 481.1929676203475]	2021_Jan_29_1057	59.89783546568834	1	1
