participant	trial_num	practice	task	condition	RSVP	RAP	probePos	probe_presence	surprise_sound	surprise_img	probe_response	probe_resp_time	first_fixation_time	trial_start_time	surprise_start_time	probe_start_time	trial_end_time	trial_duration	actualEventTimes	plannedEventTimes	date	framerate	marker_vol	RAP_vol
15	1	FALSE	NA	a	['W', 'G', 'U', 'Z', 'C', 'E', 'S', 'B', 'X', 'H', 'J', 'R', 'K', 'A', 'P', 'V']	[2448, 944, 2059, 2911, 829, 904, 1731, 760, 4000, 986, 1029, 1587, 1122, 697, 1456, 2245]	9	Present	NA	NA	PRESENT	0.1220111846923828	1.9073486328125e-6	1.9877948760986328	2.6878048896389553	3.037807035386167	6.103870153427124	4.116075277328491	[0.021561145782470703, 0.12154412269592285, 1.0871901512145996, 1.2727940082550049, 2.023266077041626, 2.1403191089630127, 2.2569990158081055, 2.3738369941711426, 2.490506172180176, 2.6071691513061523, 2.7241129875183105, 2.840973138809204, 2.957862138748169, 3.0745389461517334, 3.1914000511169434, 3.308212995529175, 3.4248809814453125, 3.5416619777679443, 3.658496141433716, 3.7584500312805176, 3.8921420574188232, 4.103872060775757]	[2.1457672119140625e-06, 0.11666881242721192, 1.0996688124272118, 1.2663688124272119, 2.0163688124272117, 2.1330354790872117, 2.2497021457472117, 2.3663688124072118, 2.483035479067212, 2.599702145727212, 2.716368812387212, 2.833035479047212, 2.949702145707212, 3.066368812367212, 3.183035479027212, 3.299702145687212, 3.416368812347212, 3.533035479007212, 3.649702145667212, 3.766368812327212, 3.883035478987212, 4.1163688123205455]	2021_Jan_29_1119	59.9509164221302	1	0.375
15	2	FALSE	NA	a	['B', 'V', 'W', 'N', 'R', 'M', 'A', 'Z', 'X', 'E', 'S', 'K', 'P', 'G', 'T', 'Y']	[760, 2245, 2448, 1335, 1587, 1224, 697, 2911, 4000, 904, 1731, 1122, 1456, 944, 1888, 2670]	9	Present	NA	NA	PRESENT	0.14246487617492676	6.089747905731201	8.101331949234009	8.801339817007118	9.151341009080015	12.220237016677856	4.118905067443848	[6.111307144165039, 6.227715969085693, 7.203557968139648, 7.379122018814087, 8.129822969436646, 8.246498107910156, 8.363600969314575, 8.480208158493042, 8.597052097320557, 8.713685035705566, 8.83045506477356, 8.947436094284058, 9.063997983932495, 9.180883169174194, 9.297533988952637, 9.414591073989868, 9.531414031982422, 9.648014068603516, 9.764799118041992, 9.88167405128479, 9.998296022415161, 10.220237016677856]	[6.1163688123205455, 6.233035478980545, 7.216035478980545, 7.382735478980544, 8.132735478980544, 8.249402145640545, 8.366068812300545, 8.482735478960546, 8.599402145620546, 8.716068812280547, 8.832735478940547, 8.949402145600548, 9.066068812260548, 9.182735478920549, 9.29940214558055, 9.41606881224055, 9.53273547890055, 9.64940214556055, 9.766068812220551, 9.882735478880551, 9.999402145540552, 10.232735478873884]	2021_Jan_29_1119	59.9509164221302	1	0.375
15	3	FALSE	NN	a	['V', 'S', 'Y', 'T', 'C', 'B', 'H', 'P', 'J', 'G', 'R', 'E', 'M', 'W', 'Z', 'U']	[2245, 1731, 2670, 1888, 829, 760, 986, 1456, 1029, 944, 1587, 904, 1224, 2448, 2911, 2059]	14	Absent	NA	NA	ABSENT	0.33100390434265137	12.212394952774048	14.217813968658447	15.501155169731556	15.851156361804453	18.336604118347168	4.118790149688721	[12.23395299911499, 12.350959062576294, 13.319926023483276, 13.501917123794556, 14.25297498703003, 14.369539976119995, 14.486515045166016, 14.603271007537842, 14.719930171966553, 14.836891174316406, 14.953726053237915, 15.07050895690918, 15.187369108200073, 15.304084062576294, 15.42093300819397, 15.537709951400757, 15.654566049575806, 15.771162986755371, 15.887839078903198, 16.004635095596313, 16.121644973754883, 16.336604118347168]	[12.232735478873884, 12.349402145533885, 13.332402145533885, 13.499102145533886, 14.249102145533886, 14.365768812193886, 14.482435478853887, 14.599102145513887, 14.715768812173888, 14.832435478833888, 14.949102145493889, 15.06576881215389, 15.18243547881389, 15.29910214547389, 15.41576881213389, 15.532435478793891, 15.649102145453892, 15.765768812113892, 15.882435478773893, 15.999102145433893, 16.115768812093894, 16.349102145427228]	2021_Jan_29_1119	59.9509164221302	1	0.375
15	4	FALSE	NV	a	['T', 'C', 'V', 'B', 'N', 'Z', 'Y', 'H', 'U', 'K', 'A', 'X', 'M', 'P', 'J', 'G']	[1888, 829, 2245, 760, 1335, 2911, 2670, 986, 2059, 1122, 697, 4000, 1224, 1456, 1029, 944]	12	Present	NA	NA	PRESENT	0.05632805824279785	18.33562397956848	20.333956003189087	21.383963870942196	21.733966016689408	24.452970027923584	4.119014024734497	[18.357182025909424, 18.474528074264526, 19.436289072036743, 19.608417987823486, 20.375959157943726, 20.47604012489319, 20.592905044555664, 20.709537029266357, 20.826465129852295, 20.943140983581543, 21.060142040252686, 21.17684817314148, 21.293694972991943, 21.410356044769287, 21.52725315093994, 21.644097089767456, 21.760833978652954, 21.877546072006226, 21.994152069091797, 22.11107110977173, 22.22778606414795, 22.452970027923584]	[18.349102145427228, 18.465768812087227, 19.448768812087227, 19.615468812087226, 20.365468812087226, 20.482135478747225, 20.598802145407223, 20.715468812067222, 20.83213547872722, 20.94880214538722, 21.065468812047218, 21.182135478707217, 21.298802145367215, 21.415468812027214, 21.532135478687213, 21.64880214534721, 21.76546881200721, 21.88213547866721, 21.998802145327208, 22.115468811987206, 22.232135478647205, 22.46546881198054]	2021_Jan_29_1119	59.9509164221302	1	0.375
15	5	FALSE	AV	a	['K', 'P', 'B', 'U', 'N', 'G', 'Y', 'S', 'R', 'surprise', 'E', 'J', 'X', 'M', 'H', 'W']	[1122, 1456, 760, 2059, 1335, 944, 2670, 1731, 1587, 'stimAuditory/all_stimAuditory/104.wav', 904, 1029, 4000, 1224, 986, 2448]	13	Present	stimAuditory/all_stimAuditory/104.wav	NA	ABSENT	0.42092084884643555	24.442210912704468	26.450450897216797	27.617125670048488	27.96712757737712	30.569337129592896	4.118886232376099	[24.463771104812622, 24.580348014831543, 25.552659034729004, 25.731826066970825, 26.48248815536499, 26.59908699989319, 26.716141939163208, 26.832772970199585, 26.949655055999756, 27.066375017166138, 27.18317198753357, 27.2999210357666, 27.416560173034668, 27.533556938171387, 27.650155067443848, 27.76710796356201, 27.883928060531616, 28.000652074813843, 28.117387056350708, 28.234055995941162, 28.350962162017822, 28.569338083267212]	[24.46546881198054, 24.582135478640538, 25.56513547864054, 25.731835478640537, 26.481835478640537, 26.598502145300536, 26.715168811960535, 26.831835478620533, 26.948502145280532, 27.06516881194053, 27.18183547860053, 27.298502145260528, 27.415168811920527, 27.531835478580525, 27.648502145240524, 27.765168811900523, 27.88183547856052, 27.99850214522052, 28.11516881188052, 28.231835478540518, 28.348502145200516, 28.58183547853385]	2021_Jan_29_1119	59.9509164221302	1	0.375
15	6	FALSE	NV	a	['R', 'N', 'V', 'B', 'J', 'Y', 'E', 'G', 'A', 'W', 'T', 'M', 'X', 'Z', 'P', 'U']	[1587, 1335, 2245, 760, 1029, 2670, 904, 944, 697, 2448, 1888, 1224, 4000, 2911, 1456, 2059]	13	Present	NA	NA	PRESENT	0.2022879123687744	30.565229892730713	32.56666398048401	33.73333946857144	34.08334161431865	36.68570399284363	4.119040012359619	[30.58678913116455, 30.703608989715576, 31.669026136398315, 31.85464906692505, 32.605530977249146, 32.72220015525818, 32.838924169540405, 32.95581603050232, 33.072527170181274, 33.18958902359009, 33.30637812614441, 33.42301106452942, 33.53996396064758, 33.65663409233093, 33.77335596084595, 33.89007210731506, 34.00682711601257, 34.12387204170227, 34.22366714477539, 34.34052515029907, 34.45730710029602, 34.68570399284363]	[30.58183547853385, 30.69850214519385, 31.68150214519385, 31.84820214519385, 32.59820214519385, 32.714868811853854, 32.83153547851386, 32.94820214517386, 33.06486881183386, 33.18153547849386, 33.298202145153866, 33.41486881181387, 33.53153547847387, 33.64820214513387, 33.764868811793875, 33.88153547845388, 33.99820214511388, 34.11486881177388, 34.231535478433884, 34.348202145093886, 34.46486881175389, 34.69820214508722]	2021_Jan_29_1119	59.9509164221302	1	0.375
15	7	FALSE	NV	a	['P', 'N', 'M', 'V', 'G', 'B', 'U', 'J', 'X', 'Z', 'R', 'H', 'E', 'A', 'Y', 'S']	[1456, 1335, 1224, 2245, 944, 760, 2059, 1029, 4000, 2911, 1587, 986, 904, 697, 2670, 1731]	9	Present	NA	NA	PRESENT	0.3986039161682129	36.67190885543823	38.68287992477417	39.38288803096586	39.73288993829449	42.80207014083862	4.119190216064453	[36.693467140197754, 36.80998396873474, 37.78539514541626, 37.961140155792236, 38.71186304092407, 38.82854413986206, 38.945476055145264, 39.062106132507324, 39.17906713485718, 39.295860052108765, 39.412593126297, 39.52945113182068, 39.6462881565094, 39.76307415962219, 39.879723072052, 39.99654507637024, 40.11320614814758, 40.23022508621216, 40.34704113006592, 40.46368408203125, 40.58039617538452, 40.80207014083862]	[36.69820214508722, 36.814868811747225, 37.79786881174722, 37.96456881174722, 38.71456881174722, 38.83123547840722, 38.947902145067225, 39.06456881172723, 39.18123547838723, 39.29790214504723, 39.414568811707234, 39.531235478367236, 39.64790214502724, 39.76456881168724, 39.88123547834724, 39.997902145007245, 40.11456881166725, 40.23123547832725, 40.34790214498725, 40.464568811647254, 40.581235478307256, 40.81456881164059]	2021_Jan_29_1119	59.9509164221302	1	0.375
15	8	FALSE	NV	a	['S', 'B', 'K', 'E', 'W', 'J', 'M', 'T', 'A', 'H', 'R', 'X', 'U', 'C', 'N', 'Z']	[1731, 760, 1122, 904, 2448, 1029, 1224, 1888, 697, 986, 1587, 4000, 2059, 829, 1335, 2911]	12	Present	NA	NA	PRESENT	0.15522503852844238	42.79464888572693	44.799407958984375	45.84941582673749	46.199417972484696	48.91843795776367	4.119029998779297	[42.81620812416077, 42.932985067367554, 43.90176010131836, 44.08409810066223, 44.834994077682495, 44.951789140701294, 45.06842803955078, 45.18529796600342, 45.30206513404846, 45.4189670085907, 45.53575897216797, 45.65234994888306, 45.76917910575867, 45.88606595993042, 46.002690076828, 46.119657039642334, 46.23636603355408, 46.353317975997925, 46.469858169555664, 46.586612939834595, 46.70387601852417, 46.918437004089355]	[42.81456881164059, 42.93123547830059, 43.91423547830059, 44.08093547830059, 44.83093547830059, 44.94760214496059, 45.06426881162059, 45.180935478280595, 45.2976021449406, 45.4142688116006, 45.5309354782606, 45.647602144920604, 45.76426881158061, 45.88093547824061, 45.99760214490061, 46.11426881156061, 46.230935478220616, 46.34760214488062, 46.46426881154062, 46.58093547820062, 46.697602144860625, 46.93093547819396]	2021_Jan_29_1119	59.9509164221302	1	0.375
15	9	FALSE	NA	a	['A', 'K', 'P', 'S', 'V', 'Y', 'J', 'R', 'G', 'C', 'U', 'N', 'E', 'X', 'Z', 'M']	[697, 1122, 1456, 1731, 2245, 2670, 1029, 1587, 944, 829, 2059, 1335, 904, 4000, 2911, 1224]	14	Present	NA	NA	PRESENT	0.3204491138458252	48.91785001754761	50.9159939289093	52.1993341763081	52.54933632205531	55.03480505943298	4.118811130523682	[48.939409017562866, 49.05614495277405, 50.018129110336304, 50.19041204452515, 50.95805501937866, 51.05801510810852, 51.17497897148132, 51.29158115386963, 51.40860104560852, 51.525222063064575, 51.64222002029419, 51.75869417190552, 51.87554407119751, 51.992603063583374, 52.10915994644165, 52.22603702545166, 52.3428590297699, 52.4596221446991, 52.57626700401306, 52.693159103393555, 52.80982995033264, 53.0348060131073]	[48.93093547819396, 49.04760214485396, 50.03060214485396, 50.19730214485396, 50.94730214485396, 51.06396881151396, 51.18063547817396, 51.297302144833964, 51.413968811493966, 51.53063547815397, 51.64730214481397, 51.76396881147397, 51.880635478133975, 51.99730214479398, 52.11396881145398, 52.23063547811398, 52.347302144773984, 52.463968811433986, 52.58063547809399, 52.69730214475399, 52.81396881141399, 53.04730214474733]	2021_Jan_29_1119	59.9509164221302	1	0.375
15	10	FALSE	NV	a	['S', 'K', 'V', 'P', 'N', 'G', 'W', 'A', 'B', 'Z', 'X', 'R', 'M', 'J', 'H', 'T']	[1731, 1122, 2245, 1456, 1335, 944, 2448, 697, 760, 2911, 4000, 1587, 1224, 1029, 986, 1888]	11	Present	NA	NA	PRESENT	0.14107584953308103	55.02418780326843	57.03216290473938	57.96550529792538	58.31550720525402	61.1511709690094	4.1190080642700195	[55.045746088027954, 55.16233515739441, 56.13449311256409, 56.31364703178406, 57.06476807594299, 57.18115997314453, 57.29804301261902, 57.41478109359741, 57.53169894218445, 57.648432970047, 57.76502299308777, 57.881986141204834, 57.99881100654602, 58.115530014038086, 58.2322051525116, 58.34900999069214, 58.46578097343445, 58.582606077194214, 58.699450969696045, 58.8163001537323, 58.93312215805054, 59.151172161102295]	[55.04730214474733, 55.16396881140733, 56.146968811407326, 56.313668811407325, 57.063668811407325, 57.18033547806733, 57.29700214472733, 57.41366881138733, 57.530335478047334, 57.647002144707336, 57.76366881136734, 57.88033547802734, 57.99700214468734, 58.113668811347345, 58.23033547800735, 58.34700214466735, 58.46366881132735, 58.580335477987354, 58.69700214464736, 58.81366881130736, 58.93033547796736, 59.163668811300695]	2021_Jan_29_1119	59.9509164221302	1	0.375
15	11	FALSE	NV	a	['C', 'B', 'J', 'T', 'A', 'S', 'R', 'E', 'N', 'X', 'P', 'Z', 'U', 'M', 'H', 'G']	[829, 760, 1029, 1888, 697, 1731, 1587, 904, 1335, 4000, 1456, 2911, 2059, 1224, 986, 944]	10	Present	NA	NA	PRESENT	0.17851805686950684	61.14710783958435	63.14848780632019	63.96516257917188	64.3151644865005	67.26753807067871	4.1190502643585205	[61.16866612434387, 61.28549313545227, 62.2508590221405, 62.43675994873047, 63.18739604949951, 63.304386138916016, 63.42120003700256, 63.53790616989136, 63.654706954956055, 63.77145004272461, 63.88828206062317, 64.0051109790802, 64.12190413475037, 64.23852610588074, 64.35549998283386, 64.4554090499878, 64.58883810043335, 64.68887996673584, 64.80566811561584, 64.9225001335144, 65.0393180847168, 65.2675371170044]	[61.163668811300695, 61.2803354779607, 62.263335477960695, 62.43003547796069, 63.18003547796069, 63.296702144620696, 63.4133688112807, 63.5300354779407, 63.6467021446007, 63.763368811260705, 63.88003547792071, 63.99670214458071, 64.1133688112407, 64.2300354779007, 64.3467021445607, 64.46336881122069, 64.58003547788068, 64.69670214454068, 64.81336881120068, 64.93003547786067, 65.04670214452067, 65.280035477854]	2021_Jan_29_1119	59.9509164221302	1	0.375
15	12	FALSE	VA	a	['B', 'U', 'R', 'Y', 'P', 'K', 'A', 'surprise', 'G', 'C', 'X', 'N', 'T', 'Z', 'V', 'M']	[760, 2059, 1587, 2670, 1456, 1122, 697, 'stimAuditory/all_stimAuditory/205.wav', 944, 829, 4000, 1335, 1888, 2911, 2245, 1224]	11	Present	NA	NA	PRESENT	0.822955846786499	67.25390887260437	69.264732837677	70.1980742771887	70.54807618451733	73.38390517234802	4.1191723346710205	[67.27546811103821, 67.39181303977966, 68.36722803115845, 68.54328393936157, 69.293869972229, 69.4106810092926, 69.52764701843262, 69.64431095123291, 69.76096796989441, 69.87788414955139, 69.99450397491455, 70.11145210266113, 70.2283079624176, 70.34512400627136, 70.46169304847717, 70.57866215705872, 70.69528698921204, 70.8121509552002, 70.92883396148682, 71.04574394226074, 71.16257309913635, 71.38390517234802]	[67.280035477854, 67.396702144514, 68.379702144514, 68.546402144514, 69.296402144514, 69.413068811174, 69.529735477834, 69.64640214449399, 69.76306881115399, 69.87973547781398, 69.99640214447398, 70.11306881113397, 70.22973547779397, 70.34640214445396, 70.46306881111396, 70.57973547777395, 70.69640214443395, 70.81306881109394, 70.92973547775394, 71.04640214441393, 71.16306881107393, 71.39640214440726]	2021_Jan_29_1119	59.9509164221302	1	0.375
15	13	FALSE	NA	a	['K', 'A', 'M', 'B', 'S', 'T', 'U', 'Y', 'W', 'X', 'V', 'C', 'P', 'E', 'J', 'Z']	[1122, 697, 1224, 760, 1731, 1888, 2059, 2670, 2448, 4000, 2245, 829, 1456, 904, 1029, 2911]	10	Present	NA	NA	PRESENT	0.603416919708252	73.37671494483948	75.38117480278015	76.19784862195752	76.54785052928615	79.50027108192444	4.119096279144287	[73.39827394485474, 73.51492214202881, 74.48359608650208, 74.66620111465454, 75.41689705848694, 75.53384113311768, 75.65061902999878, 75.7674789428711, 75.8841941356659, 76.00082802772522, 76.11763000488281, 76.23457217216492, 76.3513081073761, 76.46807503700256, 76.5848560333252, 76.70187616348267, 76.8183901309967, 76.93532299995422, 77.05213809013367, 77.16876912117004, 77.28570795059204, 77.50027108192444]	[73.39640214440726, 73.51306881106726, 74.49606881106726, 74.66276881106727, 75.41276881106727, 75.52943547772726, 75.64610214438726, 75.76276881104725, 75.87943547770725, 75.99610214436724, 76.11276881102724, 76.22943547768723, 76.34610214434723, 76.46276881100722, 76.57943547766722, 76.69610214432721, 76.81276881098721, 76.9294354776472, 77.0461021443072, 77.1627688109672, 77.27943547762719, 77.51276881096052]	2021_Jan_29_1119	59.9509164221302	1	0.375
15	14	FALSE	NV	a	['P', 'Z', 'A', 'U', 'V', 'G', 'E', 'K', 'S', 'X', 'T', 'M', 'C', 'R', 'N', 'H']	[1456, 2911, 697, 2059, 2245, 944, 904, 1122, 1731, 4000, 1888, 1224, 829, 1587, 1335, 986]	10	Present	NA	NA	PRESENT	0.04875111579895019	79.49973583221436	81.49767088890076	82.31434566175244	82.66434756908107	85.61663794517517	4.118967056274414	[79.5212950706482, 79.63809013366699, 80.59996199607849, 80.77242302894592, 81.53997206687927, 81.64005017280579, 81.75697898864746, 81.87372994422913, 81.99046897888184, 82.10726499557495, 82.22406911849976, 82.34091997146606, 82.45775198936462, 82.57457208633423, 82.69118404388428, 82.80807995796204, 82.92483806610107, 83.04164814949036, 83.15849304199219, 83.27525210380554, 83.39209008216858, 83.61663794517517]	[79.51276881096052, 79.62943547762052, 80.61243547762052, 80.77913547762053, 81.52913547762053, 81.64580214428052, 81.76246881094052, 81.87913547760051, 81.99580214426051, 82.1124688109205, 82.2291354775805, 82.3458021442405, 82.46246881090049, 82.57913547756048, 82.69580214422048, 82.81246881088047, 82.92913547754047, 83.04580214420047, 83.16246881086046, 83.27913547752046, 83.39580214418045, 83.62913547751378]	2021_Jan_29_1119	59.9509164221302	1	0.375
15	15	FALSE	VV	a	['T', 'V', 'K', 'Z', 'R', 'N', 'S', 'E', 'surprise', 'J', 'M', 'X', 'P', 'B', 'C', 'U']	[1888, 2245, 1122, 2911, 1587, 1335, 1731, 904, 'stimAuditory/all_stimAuditory/210.wav', 1029, 1224, 4000, 1456, 760, 829, 2059]	12	Present	NA	NA	PRESENT	0.6211528778076172	85.60621881484985	87.61392998695374	88.66393690103253	89.01393880836116	91.73300504684448	4.119075059890747	[85.62777805328369, 85.74439716339111, 86.71632814407349, 86.89598298072815, 87.64629006385803, 87.76324200630188, 87.8800630569458, 87.99688506126404, 88.11346912384033, 88.2305040359497, 88.34714317321777, 88.46399211883545, 88.58075404167175, 88.69765210151672, 88.81441617012024, 88.93110013008118, 89.04780507087708, 89.16465401649475, 89.28135299682617, 89.39835810661316, 89.51500010490417, 89.73300409317017]	[85.62913547751378, 85.74580214417378, 86.72880214417378, 86.89550214417379, 87.64550214417379, 87.76216881083378, 87.87883547749378, 87.99550214415378, 88.11216881081377, 88.22883547747377, 88.34550214413376, 88.46216881079376, 88.57883547745375, 88.69550214411375, 88.81216881077374, 88.92883547743374, 89.04550214409373, 89.16216881075373, 89.27883547741372, 89.39550214407372, 89.51216881073371, 89.74550214406705]	2021_Jan_29_1119	59.9509164221302	1	0.375
15	16	FALSE	NA	a	['S', 'P', 'R', 'H', 'V', 'B', 'J', 'U', 'E', 'G', 'X', 'W', 'Y', 'K', 'T', 'M']	[1731, 1456, 1587, 986, 2245, 760, 1029, 2059, 904, 944, 4000, 2448, 2670, 1122, 1888, 1224]	11	Present	NA	NA	PRESENT	0.138746976852417	91.72927403450012	93.73045802116394	94.66379826858274	95.01380017591136	97.84937000274658	4.118911981582642	[91.75083208084106, 91.86742496490479, 92.83269214630127, 93.01880311965942, 93.7694799900055, 93.88643097877502, 94.00308299064636, 94.12001013755798, 94.23678517341614, 94.35359406471252, 94.47022914886475, 94.58696603775024, 94.70408201217651, 94.80368399620056, 94.92052507400513, 95.03733396530151, 95.15416407585144, 95.27092695236206, 95.38777899742126, 95.50453996658325, 95.62128400802612, 95.8493709564209]	[91.74550214406705, 91.86216881072704, 92.84516881072705, 93.01186881072705, 93.76186881072705, 93.87853547738705, 93.99520214404704, 94.11186881070704, 94.22853547736703, 94.34520214402703, 94.46186881068702, 94.57853547734702, 94.69520214400701, 94.81186881066701, 94.928535477327, 95.045202143987, 95.161868810647, 95.27853547730699, 95.39520214396698, 95.51186881062698, 95.62853547728697, 95.86186881062031]	2021_Jan_29_1119	59.9509164221302	1	0.375
15	17	FALSE	NA	a	['B', 'C', 'V', 'G', 'N', 'Y', 'S', 'R', 'J', 'K', 'H', 'M', 'X', 'U', 'E', 'P']	[760, 829, 2245, 944, 1335, 2670, 1731, 1587, 1029, 1122, 986, 1224, 4000, 2059, 904, 1456]	13	Present	NA	NA	PRESENT	0.07113313674926758	97.83576703071594	99.84670495986938	101.01337854060816	101.36338068635538	103.9657380580902	4.119033098220825	[97.8573260307312, 97.97388315200806, 98.94906115531921, 99.12502098083496, 99.87570405006409, 99.99261903762817, 100.10935306549072, 100.22635197639465, 100.34298801422119, 100.4599609375, 100.5766270160675, 100.69351005554199, 100.81015110015869, 100.92693209648132, 101.0438129901886, 101.16042399406433, 101.27744698524475, 101.39412713050842, 101.51089906692505, 101.6278350353241, 101.74448800086975, 101.9657371044159]	[97.86186881062031, 97.9785354772803, 98.96153547728031, 99.12823547728031, 99.87823547728031, 99.99490214394031, 100.1115688106003, 100.2282354772603, 100.3449021439203, 100.46156881058029, 100.57823547724028, 100.69490214390028, 100.81156881056027, 100.92823547722027, 101.04490214388026, 101.16156881054026, 101.27823547720025, 101.39490214386025, 101.51156881052025, 101.62823547718024, 101.74490214384024, 101.97823547717357]	2021_Jan_29_1119	59.9509164221302	1	0.375
15	18	FALSE	NV	a	['B', 'Y', 'A', 'E', 'P', 'W', 'V', 'U', 'J', 'N', 'X', 'R', 'T', 'C', 'M', 'K']	[760, 2670, 697, 904, 1456, 2448, 2245, 2059, 1029, 1335, 4000, 1587, 1888, 829, 1224, 1122]	11	Present	NA	NA	PRESENT	0.9622719287872314	103.95873093605042	105.96307682991028	106.89641731574766	107.24641826940196	110.08210396766664	4.119027137756348	[103.98029017448425, 104.09697914123535, 105.06542897224426, 105.2480981349945, 105.99883794784546, 106.11584210395813, 106.23260712623596, 106.3494040966034, 106.4663200378418, 106.5829529762268, 106.69977116584778, 106.81643295288086, 106.93335795402527, 107.0501401424408, 107.16700315475464, 107.28356909751892, 107.40049004554749, 107.51709198951721, 107.63439106941223, 107.75123596191406, 107.86762714385986, 108.08210611343384]	[103.97823547717357, 104.09490214383356, 105.07790214383357, 105.24460214383357, 105.99460214383357, 106.11126881049357, 106.22793547715357, 106.34460214381356, 106.46126881047356, 106.57793547713355, 106.69460214379355, 106.81126881045354, 106.92793547711354, 107.04460214377353, 107.16126881043353, 107.27793547709352, 107.39460214375352, 107.51126881041351, 107.6279354770735, 107.7446021437335, 107.8612688103935, 108.09460214372683]	2021_Jan_29_1119	59.9509164221302	1	0.375
15	19	FALSE	NV	a	['E', 'M', 'H', 'K', 'V', 'A', 'S', 'T', 'Y', 'G', 'R', 'X', 'J', 'C', 'U', 'W']	[904, 1224, 986, 1122, 2245, 697, 1731, 1888, 2670, 944, 1587, 4000, 1029, 829, 2059, 2448]	12	Present	NA	NA	PRESENT	0.21706795692443848	110.08173894882202	112.07927083969116	113.12927799218852	113.47927989951717	116.19847011566162	4.119199275970459	[110.10329794883728, 110.22017812728882, 111.18179512023926, 111.35467410087585, 112.10516405105591, 112.22209095954895, 112.33900809288025, 112.45570206642151, 112.57267999649048, 112.68929505348206, 112.80601596832275, 112.92291617393494, 113.03951215744019, 113.15649604797363, 113.27320194244385, 113.39006996154785, 113.50688815116882, 113.62364912033081, 113.74031400680542, 113.85709404945374, 113.97391605377197, 114.19847011566162]	[110.09460214372683, 110.21126881038683, 111.19426881038683, 111.36096881038684, 112.11096881038684, 112.22763547704683, 112.34430214370683, 112.46096881036682, 112.57763547702682, 112.69430214368681, 112.81096881034681, 112.9276354770068, 113.0443021436668, 113.16096881032679, 113.27763547698679, 113.39430214364678, 113.51096881030678, 113.62763547696677, 113.74430214362677, 113.86096881028676, 113.97763547694676, 114.2109688102801]	2021_Jan_29_1119	59.9509164221302	1	0.375
15	20	FALSE	AA	a	['K', 'T', 'S', 'W', 'E', 'surprise', 'Z', 'H', 'X', 'M', 'U', 'B', 'V', 'Y', 'C', 'A']	[1122, 1888, 1731, 2448, 904, 'stimAuditory/all_stimAuditory/224.wav', 2911, 986, 4000, 1224, 2059, 760, 2245, 2670, 829, 697]	9	Present	stimAuditory/all_stimAuditory/205.wav	NA	ABSENT	0.1336958408355713	116.18823599815369	118.1960198879242	118.896026802023	119.2460289477702	122.31483697891235	4.118817090988159	[116.20979404449463, 116.3264570236206, 117.29816198348999, 117.47756910324097, 118.22875714302063, 118.34531497955322, 118.4620110988617, 118.5788471698761, 118.69553208351135, 118.8124430179596, 118.9290611743927, 119.04605793952942, 119.16275811195374, 119.27956914901733, 119.396231174469, 119.51317310333252, 119.62989807128906, 119.74676299095154, 119.86354804039001, 119.98017406463623, 120.09701895713806, 120.31483697891235]	[116.2109688102801, 116.32763547694009, 117.31063547694009, 117.4773354769401, 118.2273354769401, 118.3440021436001, 118.46066881026009, 118.57733547692008, 118.69400214358008, 118.81066881024007, 118.92733547690007, 119.04400214356006, 119.16066881022006, 119.27733547688005, 119.39400214354005, 119.51066881020004, 119.62733547686004, 119.74400214352004, 119.86066881018003, 119.97733547684003, 120.09400214350002, 120.32733547683335]	2021_Jan_29_1119	59.9509164221302	1	0.375
15	21	FALSE	NV	a	['J', 'V', 'G', 'R', 'S', 'P', 'K', 'E', 'X', 'H', 'A', 'T', 'M', 'C', 'N', 'W']	[1029, 2245, 944, 1587, 1731, 1456, 1122, 904, 4000, 986, 697, 1888, 1224, 829, 1335, 2448]	9	Present	NA	NA	PRESENT	0.05099987983703613	122.31098985671996	124.31218099594116	125.0121898173886	125.3621919631358	128.4312040805817	4.119023084640503	[122.33254814147949, 122.4493260383606, 123.41452693939209, 123.60068798065186, 124.35148501396179, 124.46878504753113, 124.58523106575012, 124.70192909240723, 124.81851005554199, 124.93534016609192, 125.05234694480896, 125.16916394233704, 125.28586316108704, 125.3858060836792, 125.50259494781494, 125.61941814422607, 125.73610711097717, 125.85290598869324, 125.96974205970764, 126.08651614189148, 126.20332503318787, 126.43120312690735]	[122.32733547683335, 122.44400214349335, 123.42700214349335, 123.59370214349336, 124.34370214349336, 124.46036881015335, 124.57703547681335, 124.69370214347335, 124.81036881013334, 124.92703547679334, 125.04370214345333, 125.16036881011333, 125.27703547677332, 125.39370214343332, 125.51036881009331, 125.6270354767533, 125.7437021434133, 125.8603688100733, 125.97703547673329, 126.09370214339329, 126.21036881005328, 126.44370214338662]	2021_Jan_29_1119	59.9509164221302	1	0.375
15	22	FALSE	NN	a	['J', 'G', 'W', 'Z', 'C', 'H', 'A', 'U', 'E', 'T', 'R', 'M', 'V', 'N', 'K', 'Y']	[1029, 944, 2448, 2911, 829, 986, 697, 2059, 904, 1888, 1587, 1224, 2245, 1335, 1122, 2670]	11	Absent	NA	NA	ABSENT	0.7433619499206543	128.41774797439575	130.42851781845093	131.3618592579626	131.71186116529125	134.54756999015808	4.119052171707153	[128.4393060207367, 128.5558819770813, 129.53089594841003, 129.70710611343384, 130.45789504051208, 130.57480096817017, 130.6913571357727, 130.80822801589966, 130.92488598823547, 131.04196095466614, 131.15863609313965, 131.27547812461853, 131.39211106300354, 131.5090970993042, 131.62591099739075, 131.74253702163696, 131.85934400558472, 131.97617602348328, 132.0930621623993, 132.20959401130676, 132.3265609741211, 132.5475721359253]	[128.44370214338662, 128.5603688100466, 129.54336881004662, 129.7100688100466, 130.4600688100466, 130.5767354767066, 130.6934021433666, 130.8100688100266, 130.9267354766866, 131.04340214334658, 131.16006881000658, 131.27673547666657, 131.39340214332657, 131.51006880998656, 131.62673547664656, 131.74340214330655, 131.86006880996655, 131.97673547662654, 132.09340214328654, 132.21006880994653, 132.32673547660653, 132.56006880993985]	2021_Jan_29_1119	59.9509164221302	1	0.375
15	23	FALSE	NV	a	['U', 'C', 'N', 'J', 'P', 'Y', 'B', 'W', 'Z', 'X', 'G', 'E', 'A', 'K', 'V', 'R']	[2059, 829, 1335, 1029, 1456, 2670, 760, 2448, 2911, 4000, 944, 904, 697, 1122, 2245, 1587]	10	Present	NA	NA	PRESENT	0.12404990196228027	134.54058384895325	136.54505395889282	137.36172849332593	137.71173063907315	140.6639370918274	4.11888313293457	[134.56214308738708, 134.678936958313, 135.64725995063782, 135.83014798164368, 136.580913066864, 136.69785404205322, 136.81448316574097, 136.93145608901978, 137.04820799827576, 137.16487503051758, 137.28177309036255, 137.39856505393982, 137.5150899887085, 137.63220810890198, 137.74903297424316, 137.86546397209167, 137.9824719429016, 138.09932017326355, 138.2160770893097, 138.3326690196991, 138.4495871067047, 138.6639380455017]	[134.56006880993985, 134.67673547659984, 135.65973547659985, 135.82643547659984, 136.57643547659984, 136.69310214325984, 136.80976880991983, 136.92643547657983, 137.04310214323982, 137.15976880989982, 137.2764354765598, 137.3931021432198, 137.5097688098798, 137.6264354765398, 137.7431021431998, 137.8597688098598, 137.97643547651978, 138.09310214317978, 138.20976880983977, 138.32643547649977, 138.44310214315976, 138.67643547649308]	2021_Jan_29_1119	59.9509164221302	1	0.375
15	24	FALSE	NA	a	['K', 'J', 'U', 'H', 'T', 'E', 'N', 'B', 'V', 'M', 'Z', 'X', 'A', 'R', 'C', 'G']	[1122, 1029, 2059, 986, 1888, 904, 1335, 760, 2245, 1224, 2911, 4000, 697, 1587, 829, 944]	12	Present	NA	NA	PRESENT	0.0895540714263916	140.66373085975647	142.66120195388794	143.71120982164106	144.06121196738826	146.78030514717102	4.119103193283081	[140.685289144516, 140.78527116775513, 141.76362705230713, 141.93647599220276, 142.68714594841003, 142.80410599708557, 142.92110800743103, 143.03755807876587, 143.15441012382507, 143.2713360786438, 143.38797616958618, 143.50476217269897, 143.6214599609375, 143.73822617530823, 143.85525107383728, 143.97192001342773, 144.08860898017883, 144.2054901123047, 144.32229614257812, 144.43910598754883, 144.55606698989868, 144.78030514717102]	[140.67643547649308, 140.79310214315308, 141.77610214315308, 141.94280214315307, 142.69280214315307, 142.80946880981307, 142.92613547647306, 143.04280214313306, 143.15946880979305, 143.27613547645305, 143.39280214311304, 143.50946880977304, 143.62613547643303, 143.74280214309303, 143.85946880975303, 143.97613547641302, 144.09280214307302, 144.209468809733, 144.326135476393, 144.442802143053, 144.559468809713, 144.79280214304632]	2021_Jan_29_1119	59.9509164221302	1	0.375
15	25	FALSE	AN	a	['V', 'G', 'E', 'K', 'T', 'B', 'H', 'A', 'Y', 'surprise', 'S', 'M', 'W', 'C', 'J', 'U']	[2245, 944, 904, 1122, 1888, 760, 986, 697, 2670, 'stimAuditory/all_stimAuditory/220.wav', 1731, 1224, 2448, 829, 1029, 2059]	13	Absent	stimAuditory/all_stimAuditory/210.wav	NA	ABSENT	0.4136838912963867	146.76986503601074	148.7776119709015	149.9442865053146	150.2942886510618	152.89667010307312	4.119058132171631	[146.791424036026, 146.908429145813, 147.87999200820923, 148.0598931312561, 148.81043314933777, 148.92708611488342, 149.0440330505371, 149.16083598136902, 149.27738404273987, 149.39417695999146, 149.51102304458618, 149.6279740333557, 149.7445650100708, 149.86147713661194, 149.97833013534546, 150.09495210647583, 150.21178102493286, 150.32877111434937, 150.4455680847168, 150.56213307380676, 150.6791090965271, 150.89667010307312]	[146.79280214304632, 146.9094688097063, 147.89246880970632, 148.0591688097063, 148.8091688097063, 148.9258354763663, 149.0425021430263, 149.1591688096863, 149.2758354763463, 149.39250214300628, 149.50916880966628, 149.62583547632627, 149.74250214298627, 149.85916880964626, 149.97583547630626, 150.09250214296625, 150.20916880962625, 150.32583547628624, 150.44250214294624, 150.55916880960623, 150.67583547626623, 150.90916880959955]	2021_Jan_29_1119	59.9509164221302	1	0.375
15	26	FALSE	NV	a	['Y', 'V', 'N', 'C', 'G', 'S', 'H', 'B', 'Z', 'E', 'M', 'X', 'U', 'J', 'K', 'W']	[2670, 2245, 1335, 829, 944, 1731, 986, 760, 2911, 904, 1224, 4000, 2059, 1029, 1122, 2448]	12	Present	NA	NA	PRESENT	0.34742307662963867	152.89307403564453	154.89404487609863	155.94405202859602	156.29405393592464	159.01303815841675	4.118993282318115	[152.9146330356598, 153.03160500526428, 153.99636316299438, 154.1828761100769, 154.93351817131042, 155.05028414726257, 155.1670081615448, 155.28393411636353, 155.40068006515503, 155.5173020362854, 155.6342990398407, 155.75112414360046, 155.8509340286255, 155.96779108047485, 156.08453512191772, 156.20143103599548, 156.31818914413452, 156.43490409851074, 156.55167508125305, 156.66846704483032, 156.7853000164032, 157.01303911209106]	[152.90916880959955, 153.02583547625954, 154.00883547625955, 154.17553547625954, 154.92553547625954, 155.04220214291954, 155.15886880957953, 155.27553547623953, 155.39220214289952, 155.50886880955952, 155.6255354762195, 155.7422021428795, 155.8588688095395, 155.9755354761995, 156.0922021428595, 156.2088688095195, 156.32553547617948, 156.44220214283948, 156.55886880949947, 156.67553547615947, 156.79220214281946, 157.02553547615278]	2021_Jan_29_1119	59.9509164221302	1	0.375
15	27	FALSE	NA	a	['H', 'G', 'R', 'Z', 'V', 'B', 'W', 'N', 'C', 'X', 'A', 'K', 'M', 'T', 'S', 'E']	[986, 944, 1587, 2911, 2245, 760, 2448, 1335, 829, 4000, 697, 1122, 1224, 1888, 1731, 904]	10	Present	NA	NA	PRESENT	0.14362311363220215	158.99984192848206	161.01043391227722	161.8271086851289	162.17711059245755	165.12940406799316	4.118970155715942	[159.021399974823, 159.13787317276, 160.11272597312927, 160.2890419960022, 161.03994703292847, 161.1566390991211, 161.27351903915405, 161.39028406143188, 161.50710916519165, 161.6239161491394, 161.74057698249817, 161.85729694366455, 161.97411108016968, 162.09099507331848, 162.20782113075256, 162.3246250152588, 162.44142198562622, 162.5580940246582, 162.67490816116333, 162.79165506362915, 162.9085340499878, 163.12940311431885]	[159.02553547615278, 159.14220214281278, 160.12520214281278, 160.29190214281277, 161.04190214281277, 161.15856880947277, 161.27523547613276, 161.39190214279276, 161.50856880945275, 161.62523547611275, 161.74190214277274, 161.85856880943274, 161.97523547609273, 162.09190214275273, 162.20856880941272, 162.32523547607272, 162.44190214273272, 162.5585688093927, 162.6752354760527, 162.7919021427127, 162.9085688093727, 163.14190214270602]	2021_Jan_29_1119	59.9509164221302	1	0.375
15	28	FALSE	NA	a	['T', 'C', 'W', 'Y', 'P', 'K', 'V', 'S', 'M', 'N', 'A', 'Z', 'X', 'H', 'J', 'G']	[1888, 829, 2448, 2670, 1456, 1122, 2245, 1731, 1224, 1335, 697, 2911, 4000, 986, 1029, 944]	13	Present	NA	NA	PRESENT	0.28426098823547363	165.12253189086914	167.12675189971924	168.29342548045804	168.64342762620524	171.24576997756958	4.119018077850342	[165.1440920829773, 165.2610490322113, 166.22909212112427, 166.4120500087738, 167.16292595863342, 167.2796139717102, 167.39646005630493, 167.51335310935974, 167.63017916679382, 167.7468400001526, 167.8637239933014, 167.98037099838257, 168.09724712371826, 168.21391797065735, 168.33086800575256, 168.44741916656494, 168.56431603431702, 168.68153715133667, 168.79790616035461, 168.91475796699524, 169.03167295455933, 169.24576997756958]	[165.14190214270602, 165.258568809366, 166.24156880936602, 166.408268809366, 167.158268809366, 167.274935476026, 167.391602142686, 167.508268809346, 167.624935476006, 167.74160214266598, 167.85826880932598, 167.97493547598597, 168.09160214264597, 168.20826880930596, 168.32493547596596, 168.44160214262595, 168.55826880928595, 168.67493547594594, 168.79160214260594, 168.90826880926593, 169.02493547592593, 169.25826880925925]	2021_Jan_29_1119	59.9509164221302	1	0.375
15	29	FALSE	NN	a	['Y', 'A', 'J', 'K', 'H', 'B', 'V', 'C', 'U', 'P', 'W', 'N', 'G', 'M', 'Z', 'S']	[2670, 697, 1029, 1122, 986, 760, 2245, 829, 2059, 1456, 2448, 1335, 944, 1224, 2911, 1731]	12	Absent	NA	NA	ABSENT	0.30549001693725586	171.24565291404724	173.24311900138855	174.29312686914167	174.64312782279598	177.3621370792389	4.119018077850342	[171.26721215248108, 171.36713004112244, 172.3454611301422, 172.51843810081482, 173.2692301273346, 173.38615012168884, 173.5028040409088, 173.61979794502258, 173.73640704154968, 173.85328602790833, 173.96997213363647, 174.08687901496887, 174.2035789489746, 174.3203160762787, 174.43718814849854, 174.55399012565613, 174.6706280708313, 174.78763914108276, 174.9044201374054, 175.02122712135315, 175.1380331516266, 175.3621380329132]	[171.25826880925925, 171.37493547591924, 172.35793547591925, 172.52463547591924, 173.27463547591924, 173.39130214257924, 173.50796880923923, 173.62463547589923, 173.74130214255922, 173.85796880921922, 173.9746354758792, 174.0913021425392, 174.2079688091992, 174.3246354758592, 174.4413021425192, 174.5579688091792, 174.67463547583918, 174.79130214249918, 174.90796880915917, 175.02463547581917, 175.14130214247916, 175.37463547581248]	2021_Jan_29_1119	59.9509164221302	1	0.375
15	30	FALSE	NA	a	['M', 'Y', 'B', 'U', 'P', 'J', 'N', 'R', 'Z', 'W', 'T', 'K', 'X', 'H', 'V', 'E']	[1224, 2670, 760, 2059, 1456, 1029, 1335, 1587, 2911, 2448, 1888, 1122, 4000, 986, 2245, 904]	13	Present	NA	NA	PRESENT	0.1741330623626709	177.35194993019104	179.35950303077698	180.5261785188644	180.8761806646116	183.47850513458252	4.119002103805542	[177.37350916862488, 177.4905710220337, 178.46182513237, 178.64196300506592, 179.39226508140564, 179.50905895233154, 179.62592196464539, 179.74262714385986, 179.85945415496826, 179.9765441417694, 180.0930380821228, 180.20992612838745, 180.32672810554504, 180.44336009025574, 180.56045413017273, 180.67714095115662, 180.79399394989014, 180.9106080532074, 181.02724194526672, 181.14418601989746, 181.26108312606812, 181.47850513458252]	[177.37463547581248, 177.49130214247248, 178.47430214247248, 178.64100214247247, 179.39100214247247, 179.50766880913247, 179.62433547579246, 179.74100214245246, 179.85766880911245, 179.97433547577245, 180.09100214243244, 180.20766880909244, 180.32433547575243, 180.44100214241243, 180.55766880907242, 180.67433547573242, 180.79100214239241, 180.9076688090524, 181.0243354757124, 181.1410021423724, 181.2576688090324, 181.49100214236572]	2021_Jan_29_1119	59.9509164221302	1	0.375
15	31	FALSE	AV	a	['R', 'S', 'N', 'Z', 'E', 'M', 'C', 'W', 'T', 'J', 'surprise', 'B', 'G', 'X', 'P', 'A']	[1587, 1731, 1335, 2911, 904, 1224, 829, 2448, 1888, 1029, 'stimAuditory/all_stimAuditory/106.wav', 760, 944, 4000, 1456, 697]	14	Present	stimAuditory/all_stimAuditory/224.wav	NA	PRESENT	0.6435139179229736	183.47501802444455	185.4758608341217	186.75920131993908	187.1092032272677	189.59487009048465	4.119009256362915	[183.49657702445984, 183.61343002319336, 184.57819294929504, 184.76473712921143, 185.51546716690063, 185.63232612609863, 185.74887704849243, 185.86579298973083, 185.98272013664246, 186.09938097000122, 186.19938206672668, 186.31611609458923, 186.43290901184082, 186.5497989654541, 186.6665699481964, 186.78331398963928, 186.9000949859619, 187.0168960094452, 187.1337080001831, 187.2504391670227, 187.3672971725464, 187.59487104415894]	[183.49100214236572, 183.6076688090257, 184.59066880902571, 184.7573688090257, 185.5073688090257, 185.6240354756857, 185.7407021423457, 185.8573688090057, 185.9740354756657, 186.09070214232568, 186.20736880898568, 186.32403547564567, 186.44070214230567, 186.55736880896566, 186.67403547562566, 186.79070214228565, 186.90736880894565, 187.02403547560564, 187.14070214226564, 187.25736880892563, 187.37403547558563, 187.60736880891895]	2021_Jan_29_1119	59.9509164221302	1	0.375
15	32	FALSE	NA	a	['H', 'J', 'V', 'K', 'E', 'W', 'R', 'U', 'A', 'T', 'P', 'S', 'X', 'Y', 'C', 'Z']	[986, 1029, 2245, 1122, 904, 2448, 1587, 2059, 697, 1888, 1456, 1731, 4000, 2670, 829, 2911]	13	Present	NA	NA	PRESENT	0.13608193397521973	189.58184385299683	191.59211492538452	192.75878969821625	193.10879065187052	195.71123695373535	4.11912202835083	[189.60340309143066, 189.7199010848999, 190.69456005096436, 190.8708610534668, 191.62179017066956, 191.7385151386261, 191.85550999641418, 191.9720060825348, 192.08911204338074, 192.20571613311768, 192.322585105896, 192.43930196762085, 192.55629897117615, 192.67288208007812, 192.78981804847717, 192.9063060283661, 193.0231511592865, 193.13998103141785, 193.25698614120483, 193.37360906600952, 193.49044799804688, 193.71123814582825]	[189.60736880891895, 189.72403547557894, 190.70703547557895, 190.87373547557894, 191.62373547557894, 191.74040214223893, 191.85706880889893, 191.97373547555893, 192.09040214221892, 192.20706880887892, 192.3237354755389, 192.4404021421989, 192.5570688088589, 192.6737354755189, 192.7904021421789, 192.9070688088389, 193.02373547549888, 193.14040214215888, 193.25706880881887, 193.37373547547887, 193.49040214213886, 193.72373547547218]	2021_Jan_29_1119	59.9509164221302	1	0.375
15	33	FALSE	NA	a	['E', 'W', 'N', 'H', 'B', 'Z', 'Y', 'T', 'V', 'K', 'P', 'X', 'R', 'J', 'A', 'G']	[904, 2448, 1335, 986, 760, 2911, 2670, 1888, 2245, 1122, 1456, 4000, 1587, 1029, 697, 944]	12	Present	NA	NA	PRESENT	0.1966259479522705	195.70456099510193	197.70861387252808	198.75862102502543	199.10862293235408	201.82760405540463	4.118990182876587	[195.7261199951172, 195.84279012680054, 196.81092596054077, 196.99410104751587, 197.74487805366516, 197.86170315742493, 197.97864603996277, 198.09508299827576, 198.21208000183105, 198.32871913909912, 198.4457061290741, 198.56226110458374, 198.6796600818634, 198.7958381175995, 198.91291308403015, 199.02950811386108, 199.14646410942078, 199.26325798034668, 199.3798999786377, 199.49680614471436, 199.61364912986755, 199.82760310173035]	[195.72373547547218, 195.84040214213218, 196.82340214213218, 196.99010214213217, 197.74010214213217, 197.85676880879217, 197.97343547545216, 198.09010214211216, 198.20676880877215, 198.32343547543215, 198.44010214209214, 198.55676880875214, 198.67343547541213, 198.79010214207213, 198.90676880873212, 199.02343547539212, 199.14010214205211, 199.2567688087121, 199.3734354753721, 199.4901021420321, 199.6067688086921, 199.84010214202542]	2021_Jan_29_1119	59.9509164221302	1	0.375
15	34	FALSE	NA	a	['C', 'M', 'W', 'Z', 'U', 'S', 'V', 'K', 'P', 'B', 'J', 'G', 'X', 'T', 'R', 'A']	[829, 1224, 2448, 2911, 2059, 1731, 2245, 1122, 1456, 760, 1029, 944, 4000, 1888, 1587, 697]	13	Present	NA	NA	PRESENT	0.17781519889831543	201.8275809288025	203.82490491867063	204.99157849940943	205.34158064515665	207.94396996498108	4.119065046310425	[201.84914016723633, 201.94910717010498, 202.92729306221008, 203.10036706924438, 203.8511700630188, 203.96816301345825, 204.08487010002136, 204.20162415504456, 204.31839513778687, 204.43503308296204, 204.55184602737427, 204.66865015029907, 204.7855999469757, 204.90219902992249, 205.01914596557617, 205.13583207130432, 205.2528829574585, 205.36946511268616, 205.48637509346008, 205.60289812088013, 205.71990394592285, 205.94396996498108]	[201.84010214202542, 201.9567688086854, 202.93976880868541, 203.1064688086854, 203.8564688086854, 203.9731354753454, 204.0898021420054, 204.2064688086654, 204.3231354753254, 204.43980214198538, 204.55646880864538, 204.67313547530537, 204.78980214196537, 204.90646880862536, 205.02313547528536, 205.13980214194535, 205.25646880860535, 205.37313547526534, 205.48980214192534, 205.60646880858533, 205.72313547524533, 205.95646880857865]	2021_Jan_29_1119	59.9509164221302	1	0.375
15	35	FALSE	NV	a	['E', 'N', 'G', 'T', 'H', 'U', 'K', 'V', 'B', 'S', 'J', 'C', 'P', 'X', 'W', 'R']	[904, 1335, 944, 1888, 986, 2059, 1122, 2245, 760, 1731, 1029, 829, 1456, 4000, 2448, 1587]	14	Present	NA	NA	PRESENT	0.1903238296508789	207.93405199050903	209.9416708946228	211.2250123341145	211.5750142414431	214.0603370666504	4.118666172027588	[207.9556109905243, 208.07219314575195, 209.0436611175537, 209.2239260673523, 209.97427606582642, 210.09094214439392, 210.20781707763672, 210.32452511787415, 210.44155097007751, 210.5582070350647, 210.675213098526, 210.79178595542908, 210.90869307518005, 211.025377035141, 211.14213609695435, 211.25899600982666, 211.3757700920105, 211.4925811290741, 211.60934400558472, 211.72616410255432, 211.8429889678955, 212.0603380203247]	[207.95646880857865, 208.07313547523864, 209.05613547523865, 209.22283547523864, 209.97283547523864, 210.08950214189863, 210.20616880855863, 210.32283547521862, 210.43950214187862, 210.55616880853862, 210.6728354751986, 210.7895021418586, 210.9061688085186, 211.0228354751786, 211.1395021418386, 211.2561688084986, 211.37283547515858, 211.48950214181858, 211.60616880847857, 211.72283547513857, 211.83950214179856, 212.07283547513188]	2021_Jan_29_1119	59.9509164221302	1	0.375
15	36	FALSE	NN	a	['G', 'V', 'Z', 'T', 'W', 'P', 'B', 'K', 'R', 'M', 'S', 'C', 'J', 'H', 'Y', 'U']	[944, 2245, 2911, 1888, 2448, 1456, 760, 1122, 1587, 1224, 1731, 829, 1029, 986, 2670, 2059]	14	Absent	NA	NA	ABSENT	0.37964701652526855	214.0570948123932	216.05763387680057	217.34097531629223	217.69097722362085	220.176705121994	4.1190712451934814	[214.0786530971527, 214.19523215293884, 215.16002798080444, 215.34665608406067, 216.09741115570068, 216.2141399383545, 216.3308961391449, 216.44770908355713, 216.56474208831787, 216.66448712348938, 216.78138709068298, 216.898118019104, 217.01497411727905, 217.131756067276, 217.24849605560303, 217.36530208587646, 217.48206305503845, 217.59883904457092, 217.71561098098755, 217.83237409591675, 217.9494330883026, 218.17670512199402]	[214.07283547513188, 214.18950214179188, 215.17250214179188, 215.33920214179187, 216.08920214179187, 216.20586880845187, 216.32253547511186, 216.43920214177186, 216.55586880843185, 216.67253547509185, 216.78920214175184, 216.90586880841184, 217.02253547507183, 217.13920214173183, 217.25586880839182, 217.37253547505182, 217.48920214171181, 217.6058688083718, 217.7225354750318, 217.8392021416918, 217.9558688083518, 218.18920214168512]	2021_Jan_29_1119	59.9509164221302	1	0.375
15	37	FALSE	NV	a	['U', 'Z', 'S', 'R', 'V', 'K', 'N', 'E', 'M', 'H', 'P', 'X', 'W', 'Y', 'G', 'A']	[2059, 2911, 1731, 1587, 2245, 1122, 1335, 904, 1224, 986, 1456, 4000, 2448, 2670, 944, 697]	12	Present	NA	NA	PRESENT	0.1043548583984375	220.1636929512024	222.17395997047424	223.22396783822737	223.57396998397456	226.29307103157043	4.119111061096191	[220.18525099754333, 220.30186414718628, 221.27639412879944, 221.4528729915619, 222.20373916625977, 222.32063102722168, 222.43736505508423, 222.55400896072388, 222.6709861755371, 222.78757214546204, 222.90448713302612, 223.02134609222412, 223.13817596435547, 223.25474905967712, 223.37177515029907, 223.48843216896057, 223.60532116889954, 223.72193217277527, 223.8386890888214, 223.95563197135925, 224.0724699497223, 224.29307103157043]	[220.18920214168512, 220.3058688083451, 221.28886880834511, 221.4555688083451, 222.2055688083451, 222.3222354750051, 222.4389021416651, 222.5555688083251, 222.6722354749851, 222.78890214164508, 222.90556880830508, 223.02223547496507, 223.13890214162507, 223.25556880828506, 223.37223547494506, 223.48890214160505, 223.60556880826505, 223.72223547492504, 223.83890214158504, 223.95556880824503, 224.07223547490503, 224.30556880823835]	2021_Jan_29_1119	59.9509164221302	1	0.375
15	38	FALSE	VN	a	['A', 'M', 'C', 'J', 'Y', 'G', 'B', 'E', 'U', 'S', 'surprise', 'N', 'Z', 'P', 'W', 'K']	[697, 1224, 829, 1029, 2670, 944, 760, 904, 2059, 1731, 'stimAuditory/all_stimAuditory/114.wav', 1335, 2911, 1456, 2448, 1122]	14	Absent	NA	NA	ABSENT	0.18067288398742676	226.28655791282657	228.29038000106812	229.57372120214123	229.92372334788843	232.40943694114685	4.119056940078735	[226.30811715126038, 226.42497396469116, 227.39276003837585, 227.57605814933777, 228.32682514190674, 228.44367098808289, 228.56048798561096, 228.67727899551392, 228.79398202896118, 228.91066098213196, 229.02762913703918, 229.14433312416077, 229.26124811172485, 229.37800097465515, 229.494558095932, 229.61161994934082, 229.72869896888733, 229.84525203704834, 229.96244597434998, 230.0786850452423, 230.19547510147095, 230.40943813323975]	[226.30556880823835, 226.42223547489834, 227.40523547489835, 227.57193547489834, 228.32193547489834, 228.43860214155833, 228.55526880821833, 228.67193547487832, 228.78860214153832, 228.90526880819831, 229.0219354748583, 229.1386021415183, 229.2552688081783, 229.3719354748383, 229.4886021414983, 229.60526880815829, 229.72193547481828, 229.83860214147828, 229.95526880813827, 230.07193547479827, 230.18860214145826, 230.42193547479158]	2021_Jan_29_1119	59.9509164221302	1	0.375
15	39	FALSE	NA	a	['Z', 'B', 'G', 'S', 'E', 'V', 'N', 'C', 'A', 'X', 'R', 'T', 'J', 'H', 'W', 'Y']	[2911, 760, 944, 1731, 904, 2245, 1335, 829, 697, 4000, 1587, 1888, 1029, 986, 2448, 2670]	10	Present	NA	NA	PRESENT	0.2579970359802246	232.40969395637512	234.40670084953308	235.22337562238476	235.5733775297134	238.52580499649048	4.1191041469573975	[232.43125200271606, 232.53106808662415, 233.50913000106812, 233.68231201171875, 234.4331271648407, 234.54982209205627, 234.66679000854492, 234.78357005119324, 234.9005000591278, 235.01706504821777, 235.13398003578186, 235.25084805488586, 235.36749815940857, 235.48418307304382, 235.60118508338928, 235.71797609329224, 235.83482694625854, 235.95144200325012, 236.06840705871582, 236.18505215644836, 236.3019721508026, 236.5258059501648]	[232.42193547479158, 232.53860214145158, 233.52160214145158, 233.68830214145157, 234.43830214145157, 234.55496880811157, 234.67163547477156, 234.78830214143156, 234.90496880809155, 235.02163547475155, 235.13830214141154, 235.25496880807154, 235.37163547473153, 235.48830214139153, 235.60496880805152, 235.72163547471152, 235.8383021413715, 235.9549688080315, 236.0716354746915, 236.1883021413515, 236.3049688080115, 236.53830214134481]	2021_Jan_29_1119	59.9509164221302	1	0.375
15	40	FALSE	NA	a	['T', 'H', 'K', 'W', 'Z', 'G', 'R', 'P', 'X', 'C', 'M', 'V', 'N', 'E', 'B', 'Y']	[1888, 986, 1122, 2448, 2911, 944, 1587, 1456, 4000, 829, 1224, 2245, 1335, 904, 760, 2670]	9	Present	NA	NA	PRESENT	0.27849507331848145	238.5159149169922	240.52311301231384	241.22312088008695	241.57312302583415	244.64216995239255	4.119056940078735	[238.53747296333313, 238.65408897399902, 239.6254940032959, 239.8058569431305, 240.5562779903412, 240.6730351448059, 240.79000997543335, 240.9067931175232, 241.0234489440918, 241.14015102386475, 241.2569990158081, 241.3738250732422, 241.49068903923035, 241.60743117332458, 241.72406911849976, 241.84095096588135, 241.95803713798523, 242.07464504241943, 242.19140315055847, 242.30819606781006, 242.4250030517578, 242.64217114448547]	[238.53830214134481, 238.6549688080048, 239.6379688080048, 239.8046688080048, 240.5546688080048, 240.6713354746648, 240.7880021413248, 240.9046688079848, 241.0213354746448, 241.13800214130478, 241.25466880796478, 241.37133547462477, 241.48800214128477, 241.60466880794476, 241.72133547460476, 241.83800214126475, 241.95466880792475, 242.07133547458474, 242.18800214124474, 242.30466880790473, 242.42133547456473, 242.65466880789805]	2021_Jan_29_1119	59.9509164221302	1	0.375
15	41	FALSE	VA	a	['K', 'J', 'R', 'P', 'Y', 'M', 'C', 'V', 'surprise', 'W', 'E', 'X', 'G', 'A', 'S', 'B']	[1122, 1029, 1587, 1456, 2670, 1224, 829, 2245, 'stimAuditory/all_stimAuditory/209.wav', 2448, 904, 4000, 944, 697, 1731, 760]	12	Present	NA	NA	PRESENT	1.003925085067749	244.63926887512207	246.63936400413513	247.6893709182139	248.03937282554256	250.7585380077362	4.119174003601074	[244.6608281135559, 244.77736115455627, 245.7418601512909, 245.9285581111908, 246.6793830394745, 246.796128988266, 246.91304802894592, 247.03007102012634, 247.12980914115906, 247.24663996696472, 247.36344504356384, 247.4801881313324, 247.59696316719055, 247.71378993988037, 247.83057594299316, 247.94737195968628, 248.06412816047668, 248.18088698387146, 248.29765796661377, 248.4144630432129, 248.53152203559875, 248.7585370540619]	[244.65466880789805, 244.77133547455804, 245.75433547455805, 245.92103547455804, 246.67103547455804, 246.78770214121803, 246.90436880787803, 247.02103547453802, 247.13770214119802, 247.25436880785801, 247.371035474518, 247.487702141178, 247.604368807838, 247.721035474498, 247.837702141158, 247.95436880781799, 248.07103547447798, 248.18770214113798, 248.30436880779797, 248.42103547445797, 248.53770214111796, 248.77103547445128]	2021_Jan_29_1119	59.9509164221302	1	0.375
15	42	FALSE	NV	a	['G', 'A', 'E', 'K', 'J', 'C', 'W', 'X', 'Z', 'P', 'N', 'H', 'S', 'Y', 'M', 'T']	[944, 697, 904, 1122, 1029, 829, 2448, 4000, 2911, 1456, 1335, 986, 1731, 2670, 1224, 1888]	8	Present	NA	NA	PRESENT	0.15245604515075684	250.74551796913147	252.75619983673096	253.33954127626265	253.68954318359127	256.8749051094055	4.1187052726745605	[250.76707696914673, 250.8839361667633, 251.85823011398315, 252.03505301475525, 252.78591394424438, 252.9026861190796, 253.0195701122284, 253.13622212409973, 253.25316214561462, 253.36995100975037, 253.48661398887634, 253.60353207588196, 253.72032403945923, 253.83696007728577, 253.95375394821167, 254.0705680847168, 254.18743014335632, 254.30425596237183, 254.42085099220276, 254.53788113594055, 254.6546561717987, 254.8749041557312]	[250.77103547445128, 250.88770214111128, 251.87070214111128, 252.03740214111127, 252.78740214111127, 252.90406880777127, 253.02073547443126, 253.13740214109126, 253.25406880775125, 253.37073547441125, 253.48740214107124, 253.60406880773124, 253.72073547439123, 253.83740214105123, 253.95406880771122, 254.07073547437122, 254.1874021410312, 254.3040688076912, 254.4207354743512, 254.5374021410112, 254.6540688076712, 254.88740214100451]	2021_Jan_29_1119	59.9509164221302	1	0.375
15	43	FALSE	NN	a	['N', 'J', 'M', 'G', 'W', 'R', 'S', 'Z', 'H', 'U', 'P', 'K', 'B', 'T', 'C', 'E']	[1335, 1029, 1224, 944, 2448, 1587, 1731, 2911, 986, 2059, 1456, 1122, 760, 1888, 829, 904]	11	Absent	NA	NA	ABSENT	0.4770078659057617	256.8687229156494	258.8724219799042	259.8057641346716	260.1557662804188	262.99127101898193	4.118849039077759	[256.89028096199036, 257.0072491168976, 257.97459506988525, 258.15840101242065, 258.9090030193329, 259.02577209472656, 259.1425709724426, 259.2595090866089, 259.37640595436096, 259.4930009841919, 259.6097340583801, 259.72700095176697, 259.84344601631165, 259.96080207824707, 260.07703614234924, 260.1938011646271, 260.31052112579346, 260.427344083786, 260.5440790653229, 260.6608290672302, 260.7777931690216, 260.9912819862366]	[256.8874021410045, 257.0040688076645, 257.9870688076645, 258.1537688076645, 258.9037688076645, 259.02043547432453, 259.13710214098455, 259.2537688076446, 259.3704354743046, 259.4871021409646, 259.60376880762465, 259.72043547428467, 259.8371021409447, 259.9537688076047, 260.07043547426474, 260.18710214092476, 260.3037688075848, 260.4204354742448, 260.53710214090484, 260.65376880756486, 260.7704354742249, 261.00376880755823]	2021_Jan_29_1119	59.9509164221302	1	0.375
15	44	FALSE	NN	a	['U', 'T', 'W', 'K', 'Z', 'Y', 'E', 'P', 'M', 'B', 'H', 'S', 'J', 'G', 'A', 'V']	[2059, 1888, 2448, 1122, 2911, 2670, 904, 1456, 1224, 760, 986, 1731, 1029, 944, 697, 2245]	13	Absent	NA	NA	ABSENT	0.4422261714935303	262.975026845932	264.9888279438019	266.1555015245407	266.5055036702879	269.10763812065125	4.118810176849365	[262.99658608436584, 263.1134181022644, 264.09096002578735, 264.26458501815796, 265.0154039859772, 265.13242411613464, 265.2490670681, 265.36573910713196, 265.48256611824036, 265.5996129512787, 265.7163419723511, 265.8329219818115, 265.9499990940094, 266.06661915779114, 266.1835720539093, 266.30014514923096, 266.4170880317688, 266.5336811542511, 266.65055894851685, 266.7674789428711, 266.8842339515686, 267.10763812065125]	[263.00376880755823, 263.12043547421825, 264.10343547421826, 264.27013547421825, 265.02013547421825, 265.1368021408783, 265.2534688075383, 265.3701354741983, 265.48680214085834, 265.60346880751837, 265.7201354741784, 265.8368021408384, 265.95346880749844, 266.07013547415846, 266.1868021408185, 266.3034688074785, 266.42013547413853, 266.53680214079856, 266.6534688074586, 266.7701354741186, 266.8868021407786, 267.120135474112]	2021_Jan_29_1119	59.9509164221302	1	0.375
15	45	FALSE	VA	a	['A', 'T', 'E', 'M', 'S', 'C', 'Z', 'B', 'surprise', 'W', 'Y', 'X', 'P', 'J', 'G', 'N']	[697, 1888, 904, 1224, 1731, 829, 2911, 760, 'stimAuditory/all_stimAuditory/107.wav', 2448, 2670, 4000, 1456, 1029, 944, 1335]	12	Present	NA	NA	PRESENT	0.23896312713623047	269.09840083122253	271.1050980091095	272.1551049231883	272.5051068305169	275.22400403022766	4.118906021118164	[269.11995911598206, 269.23683404922485, 270.20732617378235, 270.3883571624756, 271.13872504234314, 271.25559306144714, 271.3723051548004, 271.48896312713623, 271.6057381629944, 271.72271704673767, 271.83925199508667, 271.9568190574646, 272.0730540752411, 272.18978905677795, 272.3065960407257, 272.4234540462494, 272.54006910324097, 272.6570551395416, 272.77367901802063, 272.89049196243286, 273.0073981285095, 273.22400403022766]	[269.120135474112, 269.236802140772, 270.219802140772, 270.386502140772, 271.136502140772, 271.253168807432, 271.36983547409204, 271.48650214075207, 271.6031688074121, 271.7198354740721, 271.83650214073214, 271.95316880739216, 272.0698354740522, 272.1865021407122, 272.30316880737223, 272.41983547403225, 272.5365021406923, 272.6531688073523, 272.7698354740123, 272.88650214067235, 273.0031688073324, 273.2365021406657]	2021_Jan_29_1119	59.9509164221302	1	0.375
15	46	FALSE	NA	a	['J', 'B', 'Y', 'N', 'Z', 'K', 'V', 'R', 'M', 'T', 'X', 'E', 'S', 'G', 'C', 'W']	[1029, 760, 2670, 1335, 2911, 1122, 2245, 1587, 1224, 1888, 4000, 904, 1731, 944, 829, 2448]	11	Present	NA	NA	PRESENT	0.19624805450439453	275.2214980125427	277.22125792503357	278.1545993645453	278.50460127187387	281.3403699398041	4.119112014770508	[275.243057012558, 275.3598680496216, 276.3236939907074, 276.5111529827118, 277.26187896728516, 277.3617639541626, 277.47862815856934, 277.59538412094116, 277.71220302581787, 277.8289940357208, 277.94573497772217, 278.0625250339508, 278.1792850494385, 278.29607009887695, 278.412878036499, 278.52969312667847, 278.6466209888458, 278.7634060382843, 278.88015508651733, 278.9969470500946, 279.1139099597931, 279.3403699398041]	[275.2365021406657, 275.35316880732574, 276.33616880732575, 276.50286880732574, 277.25286880732574, 277.36953547398576, 277.4862021406458, 277.6028688073058, 277.71953547396583, 277.83620214062586, 277.9528688072859, 278.0695354739459, 278.18620214060593, 278.30286880726595, 278.419535473926, 278.536202140586, 278.652868807246, 278.76953547390605, 278.88620214056607, 279.0028688072261, 279.1195354738861, 279.35286880721947]	2021_Jan_29_1119	59.9509164221302	1	0.375
15	47	FALSE	NV	a	['E', 'G', 'V', 'H', 'N', 'U', 'R', 'W', 'X', 'C', 'M', 'Z', 'Y', 'S', 'A', 'K']	[904, 944, 2245, 986, 1335, 2059, 1587, 2448, 4000, 829, 1224, 2911, 2670, 1731, 697, 1122]	9	Present	NA	NA	PRESENT	0.144636869430542	281.3282778263092	283.3375358581543	284.0375430106717	284.3875449180003	287.4567379951477	4.119202136993408	[281.3498361110687, 281.4662940502167, 282.4400589466095, 282.61759209632874, 283.36829710006714, 283.48515796661377, 283.60193395614624, 283.7185299396515, 283.8352921009064, 283.9522399902344, 284.0691900253296, 284.18573212623596, 284.30274295806885, 284.41945600509644, 284.53620195388794, 284.65303111076355, 284.76968812942505, 284.8865580558777, 285.0032320022583, 285.1201250553131, 285.2368850708008, 285.4567379951477]	[281.35286880721947, 281.4695354738795, 282.4525354738795, 282.6192354738795, 283.3692354738795, 283.4859021405395, 283.60256880719953, 283.71923547385956, 283.8359021405196, 283.9525688071796, 284.0692354738396, 284.18590214049965, 284.3025688071597, 284.4192354738197, 284.5359021404797, 284.65256880713974, 284.76923547379977, 284.8859021404598, 285.0025688071198, 285.11923547377984, 285.23590214043986, 285.4692354737732]	2021_Jan_29_1119	59.9509164221302	1	0.375
15	48	FALSE	NA	a	['W', 'M', 'H', 'Y', 'U', 'T', 'V', 'J', 'S', 'X', 'C', 'A', 'B', 'Z', 'N', 'E']	[2448, 1224, 986, 2670, 2059, 1888, 2245, 1029, 1731, 4000, 829, 697, 760, 2911, 1335, 904]	10	Present	NA	NA	PRESENT	0.1092081069946289	287.4512598514557	289.4541618824005	290.2708357015779	290.6208376089065	293.573105096817	4.118943214416504	[287.4728190898895, 287.5893931388855, 288.5564270019531, 288.7407419681549, 289.49137806892395, 289.6082661151886, 289.7251560688019, 289.8419280052185, 289.95892214775085, 290.0754699707031, 290.1921100616455, 290.30908608436584, 290.4256241321564, 290.54240703582764, 290.65967297554016, 290.77623200416565, 290.8929400444031, 291.009770154953, 291.1265389919281, 291.24339413642883, 291.36001110076904, 291.573105096817]	[287.4692354737732, 287.58590214043323, 288.56890214043324, 288.73560214043323, 289.48560214043323, 289.60226880709325, 289.7189354737533, 289.8356021404133, 289.9522688070733, 290.06893547373335, 290.18560214039337, 290.3022688070534, 290.4189354737134, 290.53560214037344, 290.65226880703347, 290.7689354736935, 290.8856021403535, 291.00226880701354, 291.11893547367356, 291.2356021403336, 291.3522688069936, 291.58560214032696]	2021_Jan_29_1119	59.9509164221302	1	0.375
15	49	FALSE	NA	a	['B', 'N', 'C', 'K', 'G', 'A', 'U', 'Z', 'Y', 'X', 'R', 'V', 'S', 'P', 'E', 'H']	[760, 1335, 829, 1122, 944, 697, 2059, 2911, 2670, 4000, 1587, 2245, 1731, 1456, 904, 986]	10	Present	NA	NA	PRESENT	0.06649208068847656	293.5574448108673	295.57071900367737	296.38739258443616	296.7373944917648	299.68947100639343	4.1187520027160645	[293.5790150165558, 293.69571805000305, 294.67279410362244, 294.8470251560211, 295.5977449417114, 295.71477699279785, 295.8315441608429, 295.94821095466614, 296.06522703170776, 296.1818311214447, 296.29853415489197, 296.4153211116791, 296.53235816955566, 296.6488461494446, 296.7658669948578, 296.8826470375061, 296.99928617477417, 297.1161000728607, 297.23285603523254, 297.3497109413147, 297.46658396720886, 297.6894690990448]	[293.58560214032696, 293.702268806987, 294.685268806987, 294.851968806987, 295.601968806987, 295.718635473647, 295.835302140307, 295.95196880696705, 296.06863547362707, 296.1853021402871, 296.3019688069471, 296.41863547360714, 296.53530214026716, 296.6519688069272, 296.7686354735872, 296.88530214024723, 297.00196880690726, 297.1186354735673, 297.2353021402273, 297.3519688068873, 297.46863547354735, 297.7019688068807]	2021_Jan_29_1119	59.9509164221302	1	0.375
15	50	FALSE	NV	a	['U', 'W', 'P', 'E', 'Y', 'R', 'V', 'T', 'Z', 'H', 'N', 'A', 'J', 'X', 'K', 'G']	[2059, 2448, 1456, 904, 2670, 1587, 2245, 1888, 2911, 986, 1335, 697, 1029, 4000, 1122, 944]	14	Present	NA	NA	PRESENT	0.17525196075439453	299.68070101737976	301.6868579387665	302.97019818616525	303.3202003319125	305.80583810806274	4.118980169296265	[299.702260017395, 299.8190610408783, 300.78915905952454, 300.97053503990173, 301.7209930419922, 301.8378460407257, 301.95474100112915, 302.07142996788025, 302.188246011734, 302.3050310611725, 302.421669960022, 302.5384840965271, 302.65544509887695, 302.7721891403198, 302.88877415657043, 303.0058400630951, 303.12254214286804, 303.23940801620483, 303.35620498657227, 303.4729120731354, 303.58964014053345, 303.80583596229553]	[299.7019688068807, 299.8186354735407, 300.8016354735407, 300.9683354735407, 301.7183354735407, 301.83500214020074, 301.95166880686077, 302.0683354735208, 302.1850021401808, 302.30166880684084, 302.41833547350086, 302.5350021401609, 302.6516688068209, 302.76833547348093, 302.88500214014095, 303.001668806801, 303.118335473461, 303.235002140121, 303.35166880678105, 303.4683354734411, 303.5850021401011, 303.81833547343444]	2021_Jan_29_1119	59.9509164221302	1	0.375
15	51	FALSE	NV	a	['K', 'W', 'T', 'R', 'E', 'H', 'A', 'Y', 'S', 'V', 'X', 'G', 'M', 'U', 'J', 'C']	[1122, 2448, 1888, 1587, 904, 986, 697, 2670, 1731, 2245, 4000, 944, 1224, 2059, 1029, 829]	11	Present	NA	NA	PRESENT	0.13245391845703125	305.8037819862366	307.8031849861145	308.73652618720763	309.0865271408619	311.92220401763916	4.119019031524658	[305.8253400325775, 305.9422080516815, 306.9055290222168, 307.0932950973511, 307.8440589904785, 307.94416213035583, 308.0608501434326, 308.17766404151917, 308.29446601867676, 308.41126799583435, 308.5280590057373, 308.6449179649353, 308.7617449760437, 308.87874603271484, 308.9952881336212, 309.1120491027832, 309.22897696495056, 309.345703125, 309.46241307258606, 309.57924699783325, 309.6960289478302, 309.92220306396484]	[305.81833547343444, 305.93500214009447, 306.9180021400945, 307.08470214009446, 307.83470214009446, 307.9513688067545, 308.0680354734145, 308.18470214007453, 308.30136880673456, 308.4180354733946, 308.5347021400546, 308.65136880671463, 308.76803547337465, 308.8847021400347, 309.0013688066947, 309.1180354733547, 309.23470214001475, 309.35136880667477, 309.4680354733348, 309.5847021399948, 309.70136880665484, 309.9347021399882]	2021_Jan_29_1119	59.9509164221302	1	0.375
15	52	FALSE	NV	a	['Y', 'U', 'J', 'N', 'S', 'H', 'R', 'M', 'A', 'B', 'V', 'Z', 'P', 'X', 'K', 'C']	[2670, 2059, 1029, 1335, 1731, 986, 1587, 1224, 697, 760, 2245, 2911, 1456, 4000, 1122, 829]	14	Present	NA	NA	PRESENT	0.05689716339111328	311.9106798171997	313.91949701309204	315.2028382141651	315.55284035991235	318.0385711193085	4.119074106216431	[311.93223905563354, 312.0485279560089, 313.0218951702118, 313.1999580860138, 313.9506371021271, 314.06753396987915, 314.1843111515045, 314.30108308792114, 314.41759610176086, 314.53451013565063, 314.6513600349426, 314.7682020664215, 314.8848741054535, 315.0017240047455, 315.1183650493622, 315.2352330684662, 315.3521809577942, 315.4688310623169, 315.58551597595215, 315.7025201320648, 315.81928515434265, 316.0385711193085]	[311.9347021399882, 312.0513688066482, 313.0343688066482, 313.2010688066482, 313.9510688066482, 314.06773547330823, 314.18440213996826, 314.3010688066283, 314.4177354732883, 314.5344021399483, 314.65106880660835, 314.7677354732684, 314.8844021399284, 315.0010688065884, 315.11773547324844, 315.23440213990847, 315.3510688065685, 315.4677354732285, 315.58440213988854, 315.70106880654856, 315.8177354732086, 316.05106880654193]	2021_Jan_29_1119	59.9509164221302	1	0.375
15	53	FALSE	NA	a	['C', 'T', 'Z', 'P', 'B', 'U', 'E', 'A', 'S', 'G', 'R', 'W', 'J', 'X', 'N', 'Y']	[829, 1888, 2911, 1456, 760, 2059, 904, 697, 1731, 944, 1587, 2448, 1029, 4000, 1335, 2670]	14	Present	NA	NA	PRESENT	0.07752799987792969	318.0335388183594	320.0358889102936	321.31923034978524	321.6692322571139	324.1549370288849	4.119048118591309	[318.0550980567932, 318.1716630458832, 319.1382610797882, 319.32302808761597, 320.07374596595764, 320.1906011104584, 320.30734515190125, 320.4241831302643, 320.5409679412842, 320.65780901908875, 320.7744381427765, 320.8911509513855, 321.0081191062927, 321.1249141693115, 321.2416560649872, 321.35834097862244, 321.47519612312317, 321.5921411514282, 321.7091600894928, 321.82556414604187, 321.94246006011963, 322.1549391746521]	[318.05106880654193, 318.16773547320196, 319.15073547320196, 319.31743547320195, 320.06743547320195, 320.184102139862, 320.300768806522, 320.417435473182, 320.53410213984205, 320.6507688065021, 320.7674354731621, 320.8841021398221, 321.00076880648214, 321.11743547314217, 321.2341021398022, 321.3507688064622, 321.46743547312224, 321.58410213978226, 321.7007688064423, 321.8174354731023, 321.93410213976233, 322.1674354730957]	2021_Jan_29_1119	59.9509164221302	1	0.375
15	54	FALSE	NA	a	['Z', 'N', 'R', 'C', 'J', 'Y', 'W', 'S', 'K', 'X', 'V', 'U', 'H', 'A', 'E', 'M']	[2911, 1335, 1587, 829, 1029, 2670, 2448, 1731, 1122, 4000, 2245, 2059, 986, 697, 904, 1224]	10	Present	NA	NA	PRESENT	0.09076905250549316	324.1396758556366	326.1524889469147	326.96916252767346	327.3191646734207	330.2713041305542	4.118815183639526	[324.16123509407043, 324.2780821323395, 325.25462794303894, 325.4294641017914, 326.1801669597626, 326.29686999320984, 326.4138581752777, 326.5304970741272, 326.6473970413208, 326.7640850543976, 326.88097310066223, 326.9977090358734, 327.11460399627686, 327.23118901252747, 327.34816813468933, 327.46476912498474, 327.58158016204834, 327.698527097702, 327.81518816947937, 327.9321839809418, 328.0488109588623, 328.2713041305542]	[324.1674354730957, 324.2841021397557, 325.2671021397557, 325.4338021397557, 326.1838021397557, 326.3004688064157, 326.41713547307575, 326.53380213973577, 326.6504688063958, 326.7671354730558, 326.88380213971584, 327.00046880637586, 327.1171354730359, 327.2338021396959, 327.35046880635593, 327.46713547301596, 327.583802139676, 327.700468806336, 327.81713547299603, 327.93380213965605, 328.0504688063161, 328.2838021396494]	2021_Jan_29_1119	59.9509164221302	1	0.375
15	55	FALSE	NA	a	['H', 'A', 'U', 'C', 'M', 'K', 'W', 'N', 'X', 'P', 'E', 'R', 'Z', 'V', 'T', 'J']	[986, 697, 2059, 829, 1224, 1122, 2448, 1335, 4000, 1456, 904, 1587, 2911, 2245, 1888, 1029]	9	Present	NA	NA	PRESENT	0.07137894630432129	330.263023853302	332.2687499523163	332.9687568664151	333.3187590121623	336.3876700401306	4.118920087814331	[330.2845821380615, 330.4012930393219, 331.37099504470825, 331.55262207984924, 332.30357599258423, 332.42023611068726, 332.5369291305542, 332.65378403663635, 332.7704620361328, 332.8871741294861, 333.0042459964752, 333.1208839416504, 333.23774909973145, 333.3545391559601, 333.47118496894836, 333.5880801677704, 333.7046661376953, 333.8214509487152, 333.93847012519836, 334.0552890300751, 334.17205595970154, 334.3876690864563]	[330.2838021396494, 330.40046880630945, 331.38346880630945, 331.55016880630944, 332.30016880630944, 332.41683547296947, 332.5335021396295, 332.6501688062895, 332.76683547294954, 332.88350213960956, 333.0001688062696, 333.1168354729296, 333.23350213958963, 333.35016880624966, 333.4668354729097, 333.5835021395697, 333.7001688062297, 333.81683547288975, 333.9335021395498, 334.0501688062098, 334.1668354728698, 334.40016880620317]	2021_Jan_29_1119	59.9509164221302	1	0.375
15	56	FALSE	NA	a	['Y', 'H', 'W', 'S', 'N', 'P', 'T', 'V', 'A', 'M', 'R', 'C', 'Z', 'X', 'E', 'G']	[2670, 986, 2448, 1731, 1335, 1456, 1888, 2245, 697, 1224, 1587, 829, 2911, 4000, 904, 944]	14	Present	NA	NA	PRESENT	0.11673617362976074	336.3860800266266	338.3849799633026	339.6683211643757	340.0183233101229	342.50403809547424	4.119058132171631	[336.40763902664185, 336.52456998825073, 337.4873631000519, 337.65892696380615, 338.4264290332794, 338.5264141559601, 338.6432411670685, 338.7601339817047, 338.87689995765686, 338.9937810897827, 339.11054706573486, 339.22725009918213, 339.3441309928894, 339.46083211898804, 339.57760310173035, 339.6944351196289, 339.811320066452, 339.9280891418457, 340.0447151660919, 340.1616439819336, 340.2784330844879, 340.50403904914856]	[336.40016880620317, 336.5168354728632, 337.4998354728632, 337.6665354728632, 338.4165354728632, 338.5332021395232, 338.64986880618324, 338.76653547284326, 338.8832021395033, 338.9998688061633, 339.11653547282333, 339.23320213948335, 339.3498688061434, 339.4665354728034, 339.5832021394634, 339.69986880612345, 339.81653547278347, 339.9332021394435, 340.0498688061035, 340.16653547276354, 340.28320213942357, 340.5165354727569]	2021_Jan_29_1119	59.9509164221302	1	0.375
15	57	FALSE	VV	a	['V', 'N', 'K', 'E', 'A', 'R', 'U', 'T', 'J', 'C', 'surprise', 'M', 'S', 'X', 'B', 'G']	[2245, 1335, 1122, 904, 697, 1587, 2059, 1888, 1029, 829, 'stimAuditory/all_stimAuditory/122.wav', 1224, 1731, 4000, 760, 944]	14	Present	NA	NA	PRESENT	0.6572520732879639	342.49298191070557	344.50138902664185	345.78473022771493	346.13473118136926	348.620404958725	4.11901593208313	[342.5145399570465, 342.6308319568634, 343.603728055954, 343.78213715553284, 344.53275299072266, 344.649729013443, 344.7664999961853, 344.8833210468292, 345.0000989437103, 345.11680603027344, 345.23358511924744, 345.35029697418213, 345.46761417388916, 345.5841021537781, 345.70081996917725, 345.8176519870758, 345.9344389438629, 346.0513470172882, 346.1679940223694, 346.28488302230835, 346.4015619754791, 346.620404958725]	[342.5165354727569, 342.63320213941694, 343.61620213941694, 343.78290213941693, 344.53290213941693, 344.64956880607696, 344.766235472737, 344.882902139397, 344.999568806057, 345.11623547271705, 345.2329021393771, 345.3495688060371, 345.4662354726971, 345.58290213935715, 345.69956880601717, 345.8162354726772, 345.9329021393372, 346.04956880599724, 346.16623547265726, 346.2829021393173, 346.3995688059773, 346.63290213931066]	2021_Jan_29_1119	59.9509164221302	1	0.375
15	58	FALSE	NV	a	['C', 'N', 'W', 'V', 'E', 'H', 'U', 'T', 'Y', 'X', 'Z', 'B', 'S', 'R', 'J', 'A']	[829, 1335, 2448, 2245, 904, 986, 2059, 1888, 2670, 4000, 2911, 760, 1731, 1587, 1029, 697]	10	Present	NA	NA	ABSENT	0.5586409568786621	348.6157178878784	350.617604970932	351.4342785516908	351.784280697438	354.73677015304565	4.1191651821136475	[348.63727712631226, 348.7540340423584, 349.72009110450745, 349.9051160812378, 350.6558909416199, 350.7729260921478, 350.88974595069885, 351.0063600540161, 351.12330508232117, 351.24004316329956, 351.35694909095764, 351.47363901138306, 351.59048295021057, 351.7076859474182, 351.82395911216736, 351.940593957901, 352.0576400756836, 352.17414903640747, 352.29123306274414, 352.4078121185303, 352.5249321460724, 352.73677015304565]	[348.63290213931066, 348.7495688059707, 349.7325688059707, 349.8992688059707, 350.6492688059707, 350.7659354726307, 350.8826021392907, 350.99926880595075, 351.1159354726108, 351.2326021392708, 351.3492688059308, 351.46593547259084, 351.58260213925087, 351.6992688059109, 351.8159354725709, 351.93260213923094, 352.04926880589096, 352.165935472551, 352.282602139211, 352.39926880587103, 352.51593547253105, 352.7492688058644]	2021_Jan_29_1119	59.9509164221302	1	0.375
15	59	FALSE	NA	a	['K', 'S', 'Z', 'M', 'V', 'R', 'Y', 'W', 'T', 'A', 'J', 'N', 'B', 'X', 'E', 'U']	[1122, 1731, 2911, 1224, 2245, 1587, 2670, 2448, 1888, 697, 1029, 1335, 760, 4000, 904, 2059]	14	Present	NA	NA	PRESENT	0.3309900760650635	354.72204780578613	356.73412799835205	358.01746919942514	358.36747134517236	360.8531379699707	4.119009971618652	[354.74360609054565, 354.86041617393494, 355.836462020874, 356.0116651058197, 356.76243710517883, 356.879408121109, 356.9961380958557, 357.1127960681915, 357.22961711883545, 357.3463981151581, 357.46326899528503, 357.5799181461334, 357.69674015045166, 357.81368017196655, 357.93036794662476, 358.04729104042053, 358.16407799720764, 358.2809009552002, 358.3974950313568, 358.51442408561707, 358.6310451030731, 358.8531370162964]	[354.7492688058644, 354.8659354725244, 355.84893547252443, 356.0156354725244, 356.7656354725244, 356.88230213918445, 356.99896880584447, 357.1156354725045, 357.2323021391645, 357.34896880582454, 357.46563547248456, 357.5823021391446, 357.6989688058046, 357.81563547246463, 357.93230213912466, 358.0489688057847, 358.1656354724447, 358.28230213910473, 358.39896880576475, 358.5156354724248, 358.6323021390848, 358.86563547241815]	2021_Jan_29_1119	59.9509164221302	1	0.375
15	60	FALSE	AN	a	['M', 'Y', 'U', 'V', 'T', 'K', 'A', 'E', 'R', 'surprise', 'J', 'C', 'P', 'Z', 'H', 'W']	[1224, 2670, 2059, 2245, 1888, 1122, 697, 904, 1587, 'stimAuditory/all_stimAuditory/115.wav', 1029, 829, 1456, 2911, 986, 2448]	13	Absent	stimAuditory/all_stimAuditory/220.wav	NA	ABSENT	0.7196040153503418	360.8451588153839	362.85032081604	364.01699558887174	364.3669974962004	366.9695041179657	4.119183301925659	[360.86671805381775, 360.9835431575775, 361.95282912254333, 362.13528299331665, 362.8856780529022, 363.0025010108948, 363.11910605430603, 363.2360460758209, 363.35276198387146, 363.46959114074707, 363.5863151550293, 363.70321106910706, 363.8199291229248, 363.9367940425873, 364.0534391403198, 364.1702811717987, 364.28718996047974, 364.40392899513245, 364.520446062088, 364.6375069618225, 364.7542929649353, 364.96950602531433]	[360.86563547241815, 360.9823021390782, 361.9653021390782, 362.13200213907817, 362.88200213907817, 362.9986688057382, 363.1153354723982, 363.23200213905824, 363.34866880571826, 363.4653354723783, 363.5820021390383, 363.69866880569833, 363.81533547235836, 363.9320021390184, 364.0486688056784, 364.1653354723384, 364.28200213899845, 364.3986688056585, 364.5153354723185, 364.6320021389785, 364.74866880563854, 364.9820021389719]	2021_Jan_29_1119	59.9509164221302	1	0.375
15	61	FALSE	NV	a	['N', 'B', 'W', 'C', 'V', 'E', 'Y', 'Z', 'A', 'R', 'T', 'H', 'X', 'G', 'K', 'S']	[1335, 760, 2448, 829, 2245, 904, 2670, 2911, 697, 1587, 1888, 986, 4000, 944, 1122, 1731]	13	Present	NA	NA	PRESENT	0.11683392524719238	366.96827602386475	368.96684980392456	370.13352457675626	370.4835264840849	373.0858700275421	4.119020223617554	[366.98983502388, 367.10660099983215, 368.06919598579407, 368.24121499061584, 369.00876808166504, 369.108834028244, 369.22558212280273, 369.34243416786194, 369.4590730667114, 369.5761151313782, 369.6927180290222, 369.80968499183655, 369.9264750480652, 370.0431070327759, 370.1599910259247, 370.27676916122437, 370.3934180736542, 370.5103499889374, 370.6269919872284, 370.74401116371155, 370.860808134079, 371.08587098121643]	[366.9820021389719, 367.0986688056319, 368.0816688056319, 368.2483688056319, 368.9983688056319, 369.11503547229194, 369.23170213895196, 369.348368805612, 369.465035472272, 369.58170213893203, 369.69836880559205, 369.8150354722521, 369.9317021389121, 370.0483688055721, 370.16503547223215, 370.2817021388922, 370.3983688055522, 370.5150354722122, 370.63170213887224, 370.74836880553227, 370.8650354721923, 371.09836880552564]	2021_Jan_29_1119	59.9509164221302	1	0.375
15	62	FALSE	NV	a	['B', 'P', 'N', 'E', 'Y', 'A', 'W', 'V', 'T', 'X', 'J', 'U', 'C', 'M', 'R', 'H']	[760, 1456, 1335, 904, 2670, 697, 2448, 2245, 1888, 4000, 1029, 2059, 829, 1224, 1587, 986]	10	Present	NA	NA	ABSENT	0.6495211124420166	373.075021982193	375.0834000110626	375.9000745454957	376.25007669124295	379.20223808288574	4.11883807182312	[373.09658098220825, 373.21323013305664, 374.18555998802185, 374.3644721508026, 375.1151371002197, 375.23192405700684, 375.34872913360596, 375.46563696861267, 375.58224296569824, 375.69920897483826, 375.8159680366516, 375.9327621459961, 376.0494430065155, 376.1663911342621, 376.2830469608307, 376.39999413490295, 376.51668095588684, 376.63355803489685, 376.75033497810364, 376.8670001029968, 376.98376297950745, 377.2022371292114]	[373.09836880552564, 373.21503547218566, 374.19803547218567, 374.36473547218566, 375.11473547218566, 375.2314021388457, 375.3480688055057, 375.4647354721657, 375.58140213882575, 375.6980688054858, 375.8147354721458, 375.9314021388058, 376.04806880546585, 376.16473547212587, 376.2814021387859, 376.3980688054459, 376.51473547210594, 376.63140213876596, 376.748068805426, 376.864735472086, 376.98140213874603, 377.2147354720794]	2021_Jan_29_1119	59.9509164221302	1	0.375
15	63	FALSE	NV	a	['A', 'M', 'K', 'E', 'R', 'W', 'Z', 'X', 'V', 'T', 'J', 'N', 'B', 'Y', 'U', 'P']	[697, 1224, 1122, 904, 1587, 2448, 2911, 4000, 2245, 1888, 1029, 1335, 760, 2670, 2059, 1456]	8	Present	NA	NA	PRESENT	0.14296507835388184	379.1981549263001	381.1995148658752	381.78285725908125	382.1328591664099	385.3186049461365	4.1190900802612305	[379.219712972641, 379.3364360332489, 380.30192613601685, 380.48754715919495, 381.2383439540863, 381.3552689552307, 381.47205114364624, 381.5887379646301, 381.7054991722107, 381.8222529888153, 381.93917894363403, 382.0560221672058, 382.17272305488586, 382.2895760536194, 382.4063560962677, 382.52303194999695, 382.64043712615967, 382.73973202705383, 382.8565671443939, 382.97341203689575, 383.09018206596375, 383.31860399246216]	[379.2147354720794, 379.3314021387394, 380.3144021387394, 380.4811021387394, 381.2311021387394, 381.3477688053994, 381.46443547205945, 381.5811021387195, 381.6977688053795, 381.8144354720395, 381.93110213869954, 382.04776880535957, 382.1644354720196, 382.2811021386796, 382.39776880533964, 382.51443547199966, 382.6311021386597, 382.7477688053197, 382.86443547197973, 382.98110213863976, 383.0977688052998, 383.3311021386331]	2021_Jan_29_1119	59.9509164221302	1	0.375
15	64	FALSE	NN	a	['H', 'J', 'S', 'M', 'Y', 'K', 'N', 'V', 'B', 'G', 'R', 'P', 'E', 'Z', 'T', 'U']	[986, 1029, 1731, 1224, 2670, 1122, 1335, 2245, 760, 944, 1587, 1456, 904, 2911, 1888, 2059]	12	Absent	NA	NA	ABSENT	0.45954084396362305	385.3046078681946	387.31577587127686	388.3657830237742	388.71578493110286	391.4349710941314	4.119195222854614	[385.3261671066284, 385.4429359436035, 386.4182929992676, 386.5941369533539, 387.3449161052704, 387.4616861343384, 387.5785119533539, 387.69525814056396, 387.8121280670166, 387.92890310287476, 388.0455319881439, 388.16249108314514, 388.2792670726776, 388.3960211277008, 388.51281809806824, 388.62966108322144, 388.74626302719116, 388.86316108703613, 388.9799439907074, 389.09670996665955, 389.2135429382324, 389.43497109413147]	[385.3311021386331, 385.44776880529315, 386.43076880529316, 386.59746880529315, 387.34746880529315, 387.46413547195317, 387.5808021386132, 387.6974688052732, 387.81413547193324, 387.93080213859326, 388.0474688052533, 388.1641354719133, 388.28080213857334, 388.39746880523336, 388.5141354718934, 388.6308021385534, 388.74746880521343, 388.86413547187345, 388.9808021385335, 389.0974688051935, 389.2141354718535, 389.4474688051869]	2021_Jan_29_1119	59.9509164221302	1	0.375
15	65	FALSE	NV	a	['S', 'W', 'Z', 'A', 'V', 'J', 'N', 'Y', 'T', 'E', 'K', 'P', 'U', 'X', 'R', 'H']	[1731, 2448, 2911, 697, 2245, 1029, 1335, 2670, 1888, 904, 1122, 1456, 2059, 4000, 1587, 986]	14	Present	NA	NA	PRESENT	0.21581196784973145	391.42762780189514	393.4323499202728	394.7156913597645	395.06569326709314	397.5513379573822	4.118988037109375	[391.4491901397705, 391.56599497795105, 392.5346610546112, 392.71752095222473, 393.46788597106934, 393.5849461555481, 393.70159697532654, 393.8184549808502, 393.9352171421051, 394.05215311050415, 394.1688771247864, 394.28571605682373, 394.4023630619049, 394.51985907554626, 394.6359169483185, 394.752818107605, 394.8694381713867, 394.98640608787537, 395.103178024292, 395.21996808052063, 395.33683705329895, 395.5513391494751]	[391.4474688051869, 391.5641354718469, 392.5471354718469, 392.7138354718469, 393.4638354718469, 393.5805021385069, 393.69716880516694, 393.81383547182696, 393.930502138487, 394.047168805147, 394.16383547180703, 394.28050213846706, 394.3971688051271, 394.5138354717871, 394.6305021384471, 394.74716880510715, 394.8638354717672, 394.9805021384272, 395.0971688050872, 395.21383547174725, 395.33050213840727, 395.5638354717406]	2021_Jan_29_1119	59.9509164221302	1	0.375
15	66	FALSE	NA	a	['G', 'K', 'R', 'B', 'M', 'A', 'W', 'Z', 'V', 'H', 'S', 'C', 'X', 'P', 'U', 'T']	[944, 1122, 1587, 760, 1224, 697, 2448, 2911, 2245, 986, 1731, 829, 4000, 1456, 2059, 1888]	13	Present	NA	NA	PRESENT	0.085147857666015625	397.55092883110046	399.548535823822	400.7152105966537	401.0652125039824	403.6677041053772	4.119168281555176	[397.5724880695343, 397.6891360282898, 398.6510269641876, 398.8235580921173, 399.5911719799042, 399.69141006469727, 399.8080379962921, 399.9248969554901, 400.0418391227722, 400.15851306915283, 400.27515602111816, 400.39211916923523, 400.5088851451874, 400.6257390975952, 400.7424590587616, 400.8592791557312, 400.97592210769653, 401.0928521156311, 401.20968103408813, 401.3263940811157, 401.443284034729, 401.66770601272583]	[397.5638354717406, 397.68050213840064, 398.66350213840064, 398.83020213840064, 399.58020213840064, 399.69686880506066, 399.8135354717207, 399.9302021383807, 400.04686880504073, 400.16353547170075, 400.2802021383608, 400.3968688050208, 400.5135354716808, 400.63020213834085, 400.7468688050009, 400.8635354716609, 400.9802021383209, 401.09686880498094, 401.21353547164097, 401.330202138301, 401.446868804961, 401.68020213829436]	2021_Jan_29_1119	59.9509164221302	1	0.375
15	67	FALSE	NV	a	['Y', 'N', 'K', 'T', 'B', 'P', 'J', 'V', 'W', 'R', 'U', 'S', 'X', 'M', 'C', 'A']	[2670, 1335, 1122, 1888, 760, 1456, 1029, 2245, 2448, 1587, 2059, 1731, 4000, 1224, 829, 697]	13	Present	NA	NA	PRESENT	0.08985710144042969	403.6576838493347	405.66502380371094	406.83169857654264	407.1817004838713	409.7840700149536	4.119046211242676	[403.67924213409424, 403.7957401275635, 404.76739406585693, 404.94688415527344, 405.6976959705353, 405.81456303596497, 405.9312369823456, 406.04799699783325, 406.1648931503296, 406.28157806396484, 406.3984351158142, 406.51521611213684, 406.6320390701294, 406.74890995025635, 406.8655321598053, 406.98232316970825, 407.0991940498352, 407.2160360813141, 407.33290696144104, 407.44975209236145, 407.5664210319519, 407.7840700149536]	[403.68020213829436, 403.7968688049544, 404.7798688049544, 404.9465688049544, 405.6965688049544, 405.8132354716144, 405.92990213827443, 406.04656880493445, 406.1632354715945, 406.2799021382545, 406.3965688049145, 406.51323547157455, 406.62990213823457, 406.7465688048946, 406.8632354715546, 406.97990213821464, 407.09656880487466, 407.2132354715347, 407.3299021381947, 407.44656880485473, 407.56323547151476, 407.7965688048481]	2021_Jan_29_1119	59.9509164221302	1	0.375
15	68	FALSE	NV	a	['W', 'H', 'R', 'P', 'M', 'N', 'A', 'B', 'T', 'J', 'X', 'K', 'E', 'V', 'G', 'U']	[2448, 986, 1587, 1456, 1224, 1335, 697, 760, 1888, 1029, 4000, 1122, 904, 2245, 944, 2059]	11	Present	NA	NA	PRESENT	0.2312681674957275	409.78062200546265	411.78143191337585	412.7147733528875	413.06477430654184	415.9004380702973	4.119006156921387	[409.8021800518036, 409.9190151691437, 410.88376116752625, 411.0700330734253, 411.82083797454834, 411.9376151561737, 412.0545611381531, 412.17124605178833, 412.28812193870544, 412.40495705604553, 412.52169609069824, 412.63834500312805, 412.75506806373596, 412.85515093803406, 412.9720380306244, 413.08874106407166, 413.2055711746216, 413.32236099243164, 413.43918013572693, 413.55593705177307, 413.6730201244354, 413.9004371166229]	[409.7965688048481, 409.91323547150813, 410.89623547150813, 411.0629354715081, 411.8129354715081, 411.92960213816815, 412.0462688048282, 412.1629354714882, 412.2796021381482, 412.39626880480824, 412.51293547146827, 412.6296021381283, 412.7462688047883, 412.86293547144834, 412.97960213810836, 413.0962688047684, 413.2129354714284, 413.32960213808843, 413.44626880474846, 413.5629354714085, 413.6796021380685, 413.91293547140185]	2021_Jan_29_1119	59.9509164221302	1	0.375
15	69	FALSE	AA	a	['C', 'Z', 'M', 'N', 'E', 'B', 'surprise', 'S', 'J', 'X', 'H', 'P', 'K', 'G', 'Y', 'R']	[829, 2911, 1224, 1335, 904, 760, 'stimAuditory/all_stimAuditory/223.wav', 1731, 1029, 4000, 986, 1456, 1122, 944, 2670, 1587]	10	Present	stimAuditory/all_stimAuditory/106.wav	NA	PRESENT	0.3473830223083496	415.8870918750763	417.8977298736572	418.7144046465089	419.0644065538376	422.01680397987366	4.119074106216431	[415.90865111351013, 416.025484085083, 417.000128030777, 417.1767020225525, 417.92736411094666, 418.04422402381897, 418.16087198257446, 418.2778260707855, 418.3944821357727, 418.51149010658264, 418.6280641555786, 418.7450661659241, 418.86161613464355, 418.9785420894623, 419.09528708457947, 419.212110042572, 419.3287191390991, 419.445748090744, 419.5624771118164, 419.679358959198, 419.7961540222168, 420.01680517196655]	[415.91293547140185, 416.0296021380619, 417.0126021380619, 417.17930213806187, 417.92930213806187, 418.0459688047219, 418.1626354713819, 418.27930213804194, 418.39596880470197, 418.512635471362, 418.629302138022, 418.74596880468204, 418.86263547134206, 418.9793021380021, 419.0959688046621, 419.21263547132213, 419.32930213798215, 419.4459688046422, 419.5626354713022, 419.6793021379622, 419.79596880462225, 420.0293021379556]	2021_Jan_29_1119	59.9509164221302	1	0.375
15	70	FALSE	NA	a	['B', 'P', 'H', 'N', 'K', 'A', 'J', 'X', 'R', 'T', 'C', 'E', 'M', 'S', 'G', 'Z']	[760, 1456, 986, 1335, 1122, 697, 1029, 4000, 1587, 1888, 829, 904, 1224, 1731, 944, 2911]	8	Present	NA	NA	PRESENT	0.17625808715820312	422.01005601882935	424.0140588283539	424.5974002678856	424.9474021752142	428.13317012786865	4.1191112995147705	[422.0316159725189, 422.1486110687256, 423.1164951324463, 423.29959511756897, 424.05081701278687, 424.1674201488495, 424.28427505493164, 424.40091013908386, 424.51761507987976, 424.6344909667969, 424.75126600265503, 424.8681221008301, 424.98475909233093, 425.1016070842743, 425.2185161113739, 425.33520007133484, 425.4520671367645, 425.56893610954285, 425.6857430934906, 425.8024990558624, 425.9191851615906, 426.13317108154297]	[422.0293021379556, 422.1459688046156, 423.1289688046156, 423.2956688046156, 424.0456688046156, 424.16233547127564, 424.27900213793566, 424.3956688045957, 424.5123354712557, 424.62900213791573, 424.74566880457576, 424.8623354712358, 424.9790021378958, 425.0956688045558, 425.21233547121585, 425.3290021378759, 425.4456688045359, 425.5623354711959, 425.67900213785595, 425.79566880451597, 425.912335471176, 426.14566880450934]	2021_Jan_29_1119	59.9509164221302	1	0.375
15	71	FALSE	NA	a	['J', 'R', 'Y', 'U', 'C', 'B', 'H', 'P', 'W', 'Z', 'N', 'X', 'T', 'S', 'E', 'A']	[1029, 1587, 2670, 2059, 829, 760, 986, 1456, 2448, 2911, 1335, 4000, 1888, 1731, 904, 697]	12	Present	NA	NA	PRESENT	0.25346899032592773	428.1333909034729	430.13047885894775	431.1804860114451	431.53048791877376	434.2495379447937	4.119059085845947	[428.15495014190674, 428.25489115715027, 429.2328600883484, 429.4062910079956, 430.1569170951843, 430.2738301753998, 430.3906509876251, 430.5074610710144, 430.6244411468506, 430.740993976593, 430.8577971458435, 430.9747140407562, 431.09149408340454, 431.2081501483917, 431.324844121933, 431.4418411254883, 431.5584840774536, 431.67546916007996, 431.79211711883545, 431.90900897979736, 432.0256850719452, 432.2495369911194]	[428.14566880450934, 428.26233547116937, 429.24533547116937, 429.41203547116936, 430.16203547116936, 430.2787021378294, 430.3953688044894, 430.51203547114943, 430.62870213780946, 430.7453688044695, 430.8620354711295, 430.9787021377895, 431.09536880444955, 431.2120354711096, 431.3287021377696, 431.4453688044296, 431.56203547108964, 431.67870213774967, 431.7953688044097, 431.9120354710697, 432.02870213772974, 432.2620354710631]	2021_Jan_29_1119	59.9509164221302	1	0.375
15	72	FALSE	NN	a	['Y', 'C', 'B', 'G', 'U', 'T', 'P', 'N', 'M', 'E', 'W', 'V', 'H', 'R', 'A', 'K']	[2670, 829, 760, 944, 2059, 1888, 1456, 1335, 1224, 904, 2448, 2245, 986, 1587, 697, 1122]	9	Absent	NA	NA	ABSENT	0.46596193313598633	434.24007081985474	436.2470629215241	436.94706983562287	437.2970719813701	440.3659040927887	4.118841171264648	[434.2616300582886, 434.37833309173584, 435.3492250442505, 435.5292179584503, 436.2800371646881, 436.3970639705658, 436.51385498046875, 436.6304860115051, 436.74733805656433, 436.86425495147705, 436.98099303245544, 437.0979199409485, 437.2145869731903, 437.33122515678406, 437.44827103614807, 437.5649311542511, 437.68173694610596, 437.7983729839325, 437.9153661727905, 438.0321321487427, 438.14888215065, 438.3659040927887]	[434.2620354710631, 434.3787021377231, 435.3617021377231, 435.5284021377231, 436.2784021377231, 436.39506880438313, 436.51173547104315, 436.6284021377032, 436.7450688043632, 436.8617354710232, 436.97840213768325, 437.09506880434327, 437.2117354710033, 437.3284021376633, 437.44506880432334, 437.56173547098336, 437.6784021376434, 437.7950688043034, 437.91173547096344, 438.02840213762346, 438.1450688042835, 438.37840213761683]	2021_Jan_29_1119	59.9509164221302	1	0.375
15	73	FALSE	NV	a	['Y', 'K', 'H', 'A', 'R', 'T', 'G', 'W', 'C', 'E', 'B', 'X', 'M', 'S', 'Z', 'U']	[2670, 1122, 986, 697, 1587, 1888, 944, 2448, 829, 904, 760, 4000, 1224, 1731, 2911, 2059]	12	Present	NA	NA	PRESENT	0.1513819694519043	440.3631248474121	442.363224029541	443.4132309436198	443.7632328509485	446.48227095603943	4.119046926498413	[440.38468313217163, 440.5015661716461, 441.46559500694275, 441.65265417099, 442.40337800979614, 442.5201849937439, 442.6201629638672, 442.73697304725647, 442.8537509441376, 442.9705300331116, 443.08730816841125, 443.2040870189667, 443.32087111473083, 443.43770003318787, 443.55447816848755, 443.67148995399475, 443.78799414634705, 443.90489315986633, 444.02167105674744, 444.1383910179138, 444.2552890777588, 444.4822721481323]	[440.37840213761683, 440.49506880427685, 441.47806880427686, 441.64476880427685, 442.39476880427685, 442.5114354709369, 442.6281021375969, 442.7447688042569, 442.86143547091694, 442.97810213757697, 443.094768804237, 443.211435470897, 443.32810213755704, 443.44476880421706, 443.5614354708771, 443.6781021375371, 443.79476880419713, 443.91143547085716, 444.0281021375172, 444.1447688041772, 444.2614354708372, 444.4947688041706]	2021_Jan_29_1119	59.9509164221302	1	0.375
15	74	FALSE	AV	a	['U', 'P', 'W', 'A', 'E', 'Z', 'G', 'N', 'R', 'surprise', 'J', 'S', 'X', 'T', 'Y', 'M']	[2059, 1456, 2448, 697, 904, 2911, 944, 1335, 1587, 'stimAuditory/all_stimAuditory/212.wav', 1029, 1731, 4000, 1888, 2670, 1224]	13	Present	stimAuditory/all_stimAuditory/114.wav	NA	ABSENT	0.3879098892211914	446.469605922699	448.47992181777954	449.6465965906112	449.9965975442656	452.59863805770874	4.118716239929199	[446.4911651611328, 446.607754945755, 447.58196210861206, 447.7591960430145, 448.5098111629486, 448.6267890930176, 448.74336099624634, 448.8602681159973, 448.977098941803, 449.09383606910706, 449.21050810813904, 449.32742714881897, 449.44423604011536, 449.5610611438751, 449.67777705192566, 449.7946310043335, 449.9114770889282, 450.02817010879517, 450.1449921131134, 450.2618110179901, 450.37853598594666, 450.59863805770874]	[446.4947688041706, 446.6114354708306, 447.5944354708306, 447.7611354708306, 448.5111354708306, 448.6278021374906, 448.74446880415064, 448.86113547081067, 448.9778021374707, 449.0944688041307, 449.21113547079074, 449.32780213745076, 449.4444688041108, 449.5611354707708, 449.67780213743083, 449.79446880409085, 449.9111354707509, 450.0278021374109, 450.1444688040709, 450.26113547073095, 450.377802137391, 450.6111354707243]	2021_Jan_29_1119	59.9509164221302	1	0.375
15	75	FALSE	NN	a	['J', 'K', 'Z', 'U', 'H', 'P', 'B', 'Y', 'E', 'C', 'T', 'G', 'A', 'S', 'R', 'N']	[1029, 1122, 2911, 2059, 986, 1456, 760, 2670, 904, 829, 1888, 944, 697, 1731, 1587, 1335]	12	Absent	NA	NA	ABSENT	0.5924050807952881	452.5925178527832	454.5960040092468	455.6460118769999	455.99601402274715	458.7150039672851	4.11899995803833	[452.6140761375427, 452.7310359477997, 453.69832706451416, 453.8824551105499, 454.632915019989, 454.7498879432678, 454.86657094955444, 454.9835031032562, 455.1002690792084, 455.216933965683, 455.33384895324707, 455.4508430957794, 455.5675251483917, 455.68408203125, 455.8009841442108, 455.9175989627838, 456.0346169471741, 456.1513500213623, 456.26829504966736, 456.38476395606995, 456.50171303749084, 456.71500396728516]	[452.6111354707243, 452.72780213738434, 453.71080213738435, 453.87750213738434, 454.62750213738434, 454.74416880404436, 454.8608354707044, 454.9775021373644, 455.09416880402443, 455.21083547068446, 455.3275021373445, 455.4441688040045, 455.56083547066453, 455.67750213732455, 455.7941688039846, 455.9108354706446, 456.0275021373046, 456.14416880396465, 456.26083547062467, 456.3775021372847, 456.4941688039447, 456.72750213727807]	2021_Jan_29_1119	59.9509164221302	1	0.375
15	76	FALSE	NN	a	['H', 'W', 'T', 'S', 'G', 'B', 'C', 'P', 'U', 'R', 'E', 'M', 'Y', 'K', 'J', 'A']	[986, 2448, 1888, 1731, 944, 760, 829, 1456, 2059, 1587, 904, 1224, 2670, 1122, 1029, 697]	8	Absent	NA	NA	ABSENT	0.16567087173461914	458.7159059047699	460.7121980190277	461.2955382664665	461.6455401737951	464.83137106895447	4.119173049926758	[458.73746514320374, 458.83740305900574, 459.8146941661835, 459.9887900352478, 460.73931908607483, 460.85621309280396, 460.97293496131897, 461.08990001678467, 461.20687198638916, 461.3234910964966, 461.4401071071625, 461.55719804763794, 461.67386198043823, 461.7907521724701, 461.9073669910431, 462.0243589878082, 462.1409521102905, 462.2577979564667, 462.37449407577515, 462.4914300441742, 462.6081030368805, 462.83137011528015]	[458.72750213727807, 458.8441688039381, 459.8271688039381, 459.9938688039381, 460.7438688039381, 460.8605354705981, 460.97720213725813, 461.09386880391816, 461.2105354705782, 461.3272021372382, 461.4438688038982, 461.56053547055825, 461.6772021372183, 461.7938688038783, 461.9105354705383, 462.02720213719834, 462.14386880385837, 462.2605354705184, 462.3772021371784, 462.49386880383844, 462.61053547049846, 462.8438688038318]	2021_Jan_29_1119	59.9509164221302	1	0.375
15	77	FALSE	NV	a	['Y', 'Z', 'E', 'A', 'N', 'T', 'W', 'X', 'K', 'B', 'H', 'J', 'C', 'R', 'G', 'M']	[2670, 2911, 904, 697, 1335, 1888, 2448, 4000, 1122, 760, 986, 1029, 829, 1587, 944, 1224]	8	Present	NA	NA	PRESENT	0.20155715942382812	464.82272481918335	466.8286898136139	467.4120312531456	467.76203316047423	470.9477369785309	4.119047164916992	[464.8442840576172, 464.9606521129608, 465.93105912208557, 466.1118121147156, 466.8626871109009, 466.97953701019287, 467.096223115921, 467.2131509780884, 467.3298771381378, 467.4465320110321, 467.56356716156006, 467.68022894859314, 467.79706716537476, 467.91385316848755, 468.03067207336426, 468.14738607406616, 468.26420497894287, 468.38087010383606, 468.49784803390503, 468.6145980358124, 468.73146200180054, 468.9477381706238]	[464.8438688038318, 464.96053547049183, 465.94353547049184, 466.11023547049183, 466.86023547049183, 466.97690213715185, 467.0935688038119, 467.2102354704719, 467.3269021371319, 467.44356880379195, 467.56023547045197, 467.676902137112, 467.793568803772, 467.91023547043204, 468.02690213709207, 468.1435688037521, 468.2602354704121, 468.37690213707214, 468.49356880373216, 468.6102354703922, 468.7269021370522, 468.96023547038556]	2021_Jan_29_1119	59.9509164221302	1	0.375
15	78	FALSE	NA	a	['Z', 'J', 'V', 'E', 'K', 'B', 'C', 'G', 'T', 'A', 'X', 'W', 'R', 'P', 'H', 'M']	[2911, 1029, 2245, 904, 1122, 760, 829, 944, 1888, 697, 4000, 2448, 1587, 1456, 986, 1224]	11	Present	NA	NA	PRESENT	0.3996009826660156	470.9456729888916	472.9453299045563	473.878671344068	474.2286732513966	477.0641031265259	4.1187732219696045	[470.96723198890686, 471.0838749408722, 472.0474281311035, 472.2352900505066, 472.9857611656189, 473.08589601516724, 473.2026650905609, 473.31938195228577, 473.43625116348267, 473.55296897888184, 473.66974902153015, 473.7867090702057, 473.90336894989014, 474.02031207084656, 474.1368930339813, 474.2539019584656, 474.37057304382324, 474.48740911483765, 474.6041829586029, 474.7211320400238, 474.8377649784088, 475.0641040802002]	[470.96023547038556, 471.0769021370456, 472.0599021370456, 472.2266021370456, 472.9766021370456, 473.0932688037056, 473.2099354703656, 473.32660213702565, 473.44326880368567, 473.5599354703457, 473.6766021370057, 473.79326880366574, 473.90993547032576, 474.0266021369858, 474.1432688036458, 474.25993547030583, 474.37660213696586, 474.4932688036259, 474.6099354702859, 474.7266021369459, 474.84326880360595, 475.0766021369393]	2021_Jan_29_1119	59.9509164221302	1	0.375
15	79	FALSE	VV	a	['Y', 'H', 'J', 'A', 'W', 'N', 'C', 'M', 'P', 'surprise', 'Z', 'T', 'X', 'G', 'K', 'V']	[2670, 986, 1029, 697, 2448, 1335, 829, 1224, 1456, 'stimAuditory/all_stimAuditory/203.wav', 2911, 1888, 4000, 944, 1122, 2245]	13	Present	NA	NA	ABSENT	0.42003393173217773	477.051990032196	479.0614378452301	480.2281116643875	480.5781135717162	483.1804699897766	4.119032144546509	[477.0735490322113, 477.1903409957886, 478.1637930870056, 478.3416111469269, 479.09228897094727, 479.2091860771179, 479.3258430957794, 479.4427740573883, 479.5594229698181, 479.6763529777527, 479.79311513900757, 479.90987610816956, 480.02667593955994, 480.14334201812744, 480.2602641582489, 480.376935005188, 480.4938530921936, 480.6106641292572, 480.727432012558, 480.8440430164337, 480.9609251022339, 481.1804709434509]	[477.0766021369393, 477.1932688035993, 478.1762688035993, 478.3429688035993, 479.0929688035993, 479.20963547025934, 479.32630213691937, 479.4429688035794, 479.5596354702394, 479.67630213689944, 479.79296880355946, 479.9096354702195, 480.0263021368795, 480.14296880353953, 480.25963547019956, 480.3763021368596, 480.4929688035196, 480.6096354701796, 480.72630213683965, 480.8429688034997, 480.9596354701597, 481.19296880349305]	2021_Jan_29_1119	59.9509164221302	1	0.375
