participant	trial_num	practice	task	condition	RSVP	RAP	probePos	probe_presence	surprise_sound	surprise_img	probe_response	probe_resp_time	first_fixation_time	trial_start_time	surprise_start_time	probe_start_time	trial_end_time	trial_duration	actualEventTimes	plannedEventTimes	date	framerate	marker_vol	RAP_vol
6	1	FALSE	NV	v	['N', 'G', 'P', 'U', 'B', 'C', 'V', 'H', 'X', 'K', 'S', 'M', 'Z', 'E', 'J', 'Y']	[1335, 944, 1456, 2059, 760, 829, 2245, 986, 4000, 1122, 1731, 1224, 2911, 904, 1029, 2670]	9	Present	NA	NA	PRESENT	0.28131699562072754	2.86102294921875e-6	1.988297939300537	2.686837911605835	3.036646842956543	6.103869915008545	4.115571975708008	[0.02124500274658203, 0.12096095085144043, 1.1055238246917725, 1.2720749378204346, 2.022812843322754, 2.1395559310913086, 2.256453037261963, 2.373438835144043, 2.4900619983673096, 2.606916904449463, 2.723712921142578, 2.8405518531799316, 2.9573028087615967, 3.074199914932251, 3.190915822982788, 3.3077549934387207, 3.4244768619537354, 3.5411949157714844, 3.658115863800049, 3.774833917617798, 3.89153790473938, 4.1038689613342285]	[9.5367431640625e-07, 0.11666762034098306, 1.099667620340983, 1.266367620340983, 2.016367620340983, 2.1330342870076495, 2.249700953674316, 2.366367620340983, 2.4830342870076496, 2.5997009536743163, 2.716367620340983, 2.8330342870076497, 2.9497009536743164, 3.066367620340983, 3.18303428700765, 3.2997009536743165, 3.416367620340983, 3.53303428700765, 3.6497009536743166, 3.7663676203409833, 3.88303428700765, 4.116367620340983]	2020_Nov_27_1140	59.93232738911751	1	1
6	2	FALSE	NV	v	['M', 'B', 'R', 'A', 'P', 'C', 'W', 'S', 'N', 'Z', 'V', 'K', 'G', 'X', 'H', 'T']	[1224, 760, 1587, 697, 1456, 829, 2448, 1731, 1335, 2911, 2245, 1122, 944, 4000, 986, 1888]	14	Present	NA	NA	PRESENT	0.2227458953857422	6.08929181098938	8.1018218994140625	9.385450839996338	9.735359907150269	12.220237016677856	4.118415117263794	[6.110532999038696, 6.2272868156433105, 7.2117438316345215, 7.378541946411133, 8.14617395401001, 8.246153831481934, 8.362831830978394, 8.479698896408081, 8.596473932266235, 8.713411808013916, 8.830091953277588, 8.946924924850464, 9.063854932785034, 9.180676937103271, 9.297489881515503, 9.414184808731079, 9.530858993530273, 9.64815092086792, 9.764456033706665, 9.881467819213867, 9.997982025146484, 10.220237016677856]	[6.116367620340983, 6.23303428700765, 7.216034287007649, 7.382734287007649, 8.132734287007649, 8.249400953674316, 8.366067620340983, 8.48273428700765, 8.599400953674317, 8.716067620340985, 8.832734287007652, 8.949400953674319, 9.066067620340986, 9.182734287007653, 9.29940095367432, 9.416067620340987, 9.532734287007655, 9.649400953674322, 9.766067620340989, 9.882734287007656, 9.999400953674323, 10.232734287007656]	2020_Nov_27_1140	59.93232738911751	1	1
6	3	FALSE	NN	v	['K', 'V', 'M', 'T', 'R', 'H', 'S', 'A', 'C', 'E', 'W', 'N', 'B', 'P', 'Z', 'J']	[1122, 2245, 1224, 1888, 1587, 986, 1731, 697, 829, 904, 2448, 1335, 760, 1456, 2911, 1029]	9	Absent	NA	NA	ABSENT	0.3230769634246826	12.212446928024292	14.218042850494385	14.918353796005247	15.26834487915039	18.336602926254272	4.118560075759888	[12.23368787765503, 12.350630044937134, 13.335114002227783, 13.501916885375977, 14.25249981880188, 14.36938190460205, 14.486111879348755, 14.60291600227356, 14.71967887878418, 14.836658954620361, 14.953297853469849, 15.070021867752075, 15.186836004257202, 15.30384087562561, 15.420583009719849, 15.53735899925232, 15.654109001159668, 15.770995855331421, 15.887714862823486, 16.004498958587646, 16.12120485305786, 16.336601972579956]	[12.232734287007656, 12.349400953674323, 13.332400953674323, 13.499100953674324, 14.249100953674324, 14.365767620340991, 14.482434287007658, 14.599100953674325, 14.715767620340992, 14.83243428700766, 14.949100953674327, 15.065767620340994, 15.182434287007661, 15.299100953674328, 15.415767620340995, 15.532434287007662, 15.64910095367433, 15.765767620340997, 15.882434287007664, 15.999100953674331, 16.115767620340996, 16.34910095367433]	2020_Nov_27_1140	59.93232738911751	1	1
6	4	FALSE	NA	v	['U', 'K', 'V', 'P', 'A', 'G', 'H', 'C', 'N', 'X', 'J', 'Y', 'R', 'W', 'B', 'M']	[2059, 1122, 2245, 1456, 697, 944, 986, 829, 1335, 4000, 1029, 2670, 1587, 2448, 760, 1224]	10	Present	NA	NA	PRESENT	0.27265501022338867	18.33569598197937	20.334367990493774	21.151415824890137	21.50136685371399	24.452970027923584	4.11860203742981	[18.356936931610107, 18.473570823669434, 19.441375017166138, 19.608446836471558, 20.375646829605103, 20.492581844329834, 20.609288930892944, 20.726094007492065, 20.842952966690063, 20.959625005722046, 21.076658964157104, 21.193192958831787, 21.310057878494263, 21.426985025405884, 21.543808937072754, 21.643620014190674, 21.760457038879395, 21.877290964126587, 21.994046926498413, 22.1108078956604, 22.2278048992157, 22.45296883583069]	[18.34910095367433, 18.465767620340998, 19.448767620341, 19.615467620340997, 20.365467620340997, 20.482134287007664, 20.59880095367433, 20.715467620341, 20.832134287007666, 20.948800953674333, 21.065467620341, 21.182134287007667, 21.298800953674334, 21.415467620341, 21.53213428700767, 21.648800953674336, 21.765467620341003, 21.88213428700767, 21.998800953674337, 22.115467620341004, 22.23213428700767, 22.465467620341006]	2020_Nov_27_1140	59.93232738911751	1	1
6	5	FALSE	VV	v	['N', 'J', 'S', 'H', 'Y', 'surprise', 'B', 'R', 'X', 'Z', 'E', 'T', 'P', 'A', 'M', 'G']	[1335, 1029, 1731, 986, 2670, 'stimAuditory/all_stimAuditory/216.wav', 760, 1587, 4000, 2911, 904, 1888, 1456, 697, 1224, 944]	9	Present	NA	stimVisual/all_stimVisual/205.jpg	ABSENT	0.3010220527648926	24.44226098060608	26.450880765914917	27.15139389038086	27.50135087966919	30.569336891174316	4.118456125259399	[24.463501930236816, 24.580119848251343, 25.56473684310913, 25.731530904769897, 26.48220181465149, 26.599031925201416, 26.715664863586426, 26.832597970962524, 26.949431896209717, 27.08288884162903, 27.18285894393921, 27.29993987083435, 27.416494846343994, 27.533475875854492, 27.65021800994873, 27.766999006271362, 27.88378596305847, 28.00063681602478, 28.117311000823975, 28.234290838241577, 28.351011991500854, 28.5693359375]	[24.465467620341006, 24.582134287007673, 25.565134287007673, 25.731834287007672, 26.481834287007672, 26.59850095367434, 26.715167620341006, 26.831834287007673, 26.94850095367434, 27.065167620341008, 27.181834287007675, 27.298500953674342, 27.41516762034101, 27.531834287007676, 27.648500953674343, 27.76516762034101, 27.881834287007678, 27.998500953674345, 28.115167620341012, 28.23183428700768, 28.348500953674346, 28.58183428700768]	2020_Nov_27_1140	59.93232738911751	1	1
6	6	FALSE	NN	v	['P', 'V', 'R', 'H', 'K', 'A', 'Z', 'N', 'T', 'M', 'C', 'S', 'W', 'E', 'J', 'U']	[1456, 2245, 1587, 986, 1122, 697, 2911, 1335, 1888, 1224, 829, 1731, 2448, 904, 1029, 2059]	12	Absent	NA	NA	ABSENT	0.5864589214324951	30.56590890884399	32.56757187843323	33.61749792098999	33.96743583679199	36.68570399284363	4.1181321144104	[30.587150812149048, 30.703475952148438, 31.6878080368042, 31.854617834091187, 32.60537791252136, 32.72211980819702, 32.8389630317688, 32.95589780807495, 33.072489976882935, 33.189430952072144, 33.30627989768982, 33.42295694351196, 33.53991103172302, 33.65660095214844, 33.77354598045349, 33.89026999473572, 34.00692391395569, 34.12374401092529, 34.2405948638916, 34.35737085342407, 34.45735001564026, 34.68570399284363]	[30.58183428700768, 30.698500953674348, 31.681500953674348, 31.848200953674347, 32.59820095367435, 32.71486762034102, 32.831534287007685, 32.94820095367435, 33.06486762034102, 33.181534287007686, 33.29820095367435, 33.41486762034102, 33.53153428700769, 33.648200953674355, 33.76486762034102, 33.88153428700769, 33.998200953674356, 34.11486762034102, 34.23153428700769, 34.34820095367436, 34.464867620341025, 34.69820095367436]	2020_Nov_27_1140	59.93232738911751	1	1
6	7	FALSE	NV	v	['T', 'E', 'N', 'R', 'C', 'K', 'Z', 'H', 'M', 'A', 'W', 'G', 'X', 'S', 'B', 'P']	[1888, 904, 1335, 1587, 829, 1122, 2911, 986, 1224, 697, 2448, 944, 4000, 1731, 760, 1456]	13	Present	NA	NA	PRESENT	0.13490986824035645	36.67175579071045	38.68344283103943	39.850531816482544	40.20041584968567	42.80206894874573	4.118626117706299	[36.69299793243408, 36.809809923172, 37.79427790641785, 37.96123194694519, 38.72864389419556, 38.828733921051025, 38.945302963256836, 39.06231904029846, 39.178930044174194, 39.295892000198364, 39.4125030040741, 39.52950692176819, 39.6464958190918, 39.76311683654785, 39.87978792190552, 39.996788024902344, 40.11330604553223, 40.23021388053894, 40.34707498550415, 40.46377086639404, 40.58051085472107, 40.80206894874573]	[36.69820095367436, 36.814867620341026, 37.79786762034102, 37.96456762034102, 38.71456762034102, 38.83123428700769, 38.947900953674356, 39.06456762034102, 39.18123428700769, 39.29790095367436, 39.414567620341025, 39.53123428700769, 39.64790095367436, 39.764567620341026, 39.88123428700769, 39.99790095367436, 40.11456762034103, 40.231234287007695, 40.34790095367436, 40.46456762034103, 40.581234287007696, 40.81456762034103]	2020_Nov_27_1140	59.93232738911751	1	1
6	8	FALSE	NA	v	['N', 'T', 'U', 'C', 'R', 'S', 'G', 'Y', 'W', 'X', 'M', 'B', 'K', 'P', 'H', 'V']	[1335, 1888, 2059, 829, 1587, 1731, 944, 2670, 2448, 4000, 1224, 760, 1122, 1456, 986, 2245]	10	Present	NA	NA	PRESENT	0.2514030933380127	42.79500389099121	44.80001187324524	45.617124795913696	45.967002868652344	48.918437004089355	4.118425130844116	[42.81624484062195, 42.9330849647522, 43.9175009727478, 44.084270000457764, 44.83506798744202, 44.951836824417114, 45.068596839904785, 45.18556785583496, 45.30217885971069, 45.41905903816223, 45.53583002090454, 45.652668952941895, 45.76943302154541, 45.88620901107788, 46.003095865249634, 46.119799852371216, 46.23656892776489, 46.35351896286011, 46.47019290924072, 46.58705186843872, 46.7038140296936, 46.91843581199646]	[42.81456762034103, 42.9312342870077, 43.914234287007694, 44.08093428700769, 44.83093428700769, 44.94760095367436, 45.06426762034103, 45.180934287007695, 45.29760095367436, 45.41426762034103, 45.530934287007696, 45.64760095367436, 45.76426762034103, 45.8809342870077, 45.997600953674365, 46.11426762034103, 46.2309342870077, 46.347600953674366, 46.46426762034103, 46.5809342870077, 46.69760095367437, 46.9309342870077]	2020_Nov_27_1140	59.93232738911751	1	1
6	9	FALSE	AV	v	['E', 'N', 'C', 'V', 'Y', 'Z', 'J', 'K', 'W', 'surprise', 'T', 'P', 'X', 'B', 'G', 'A']	[904, 1335, 829, 2245, 2670, 2911, 1029, 1122, 2448, 'stimAuditory/all_stimAuditory/104.wav', 1888, 1456, 4000, 760, 944, 697]	13	Present	stimAuditory/all_stimAuditory/216.wav	stimVisual/all_stimVisual/120.jpg	PRESENT	0.2328970432281494	48.91827988624573	50.91614198684693	52.08326077461243	52.4333918094635	55.03480291366577	4.118660926818848	[48.93952989578247, 49.056145906448364, 50.02410387992859, 50.190598011016846, 50.9584858417511, 51.07541298866272, 51.19175386428833, 51.30856204032898, 51.42541289329529, 51.52534484863281, 51.64212203025818, 51.75884389877319, 51.87571382522583, 52.00930881500244, 52.10930395126343, 52.22608494758606, 52.342901945114136, 52.459709882736206, 52.57655882835388, 52.693262815475464, 52.81019902229309, 53.034801959991455]	[48.9309342870077, 49.04760095367437, 50.030600953674366, 50.197300953674365, 50.947300953674365, 51.06396762034103, 51.1806342870077, 51.297300953674366, 51.41396762034103, 51.5306342870077, 51.64730095367437, 51.763967620341035, 51.8806342870077, 51.99730095367437, 52.113967620341036, 52.2306342870077, 52.34730095367437, 52.46396762034104, 52.580634287007705, 52.69730095367437, 52.81396762034104, 53.04730095367437]	2020_Nov_27_1140	59.93232738911751	1	1
6	10	FALSE	NV	v	['B', 'A', 'E', 'G', 'W', 'Y', 'U', 'T', 'M', 'X', 'V', 'N', 'H', 'P', 'C', 'J']	[760, 697, 904, 944, 2448, 2670, 2059, 1888, 1224, 4000, 2245, 1335, 986, 1456, 829, 1029]	10	Present	NA	NA	PRESENT	0.29342198371887207	55.02466893196106	57.03266382217407	57.84952092170715	58.19992184638977	61.15116882324219	4.118505001068115	[55.0459098815918, 55.162811040878296, 56.147066831588745, 56.3138530254364, 57.064631938934326, 57.181577920913696, 57.29828596115112, 57.4151029586792, 57.53187799453735, 57.64869689941406, 57.76546382904053, 57.882128953933716, 57.99893283843994, 58.11584186553955, 58.23269486427307, 58.34945297241211, 58.466253995895386, 58.58287787437439, 58.699846029281616, 58.81650400161743, 58.93339490890503, 59.15117001533508]	[55.04730095367437, 55.16396762034104, 56.14696762034104, 56.313667620341036, 57.063667620341036, 57.1803342870077, 57.29700095367437, 57.41366762034104, 57.530334287007705, 57.64700095367437, 57.76366762034104, 57.880334287007706, 57.99700095367437, 58.11366762034104, 58.23033428700771, 58.347000953674375, 58.46366762034104, 58.58033428700771, 58.697000953674376, 58.81366762034104, 58.93033428700771, 59.163667620341045]	2020_Nov_27_1140	59.93232738911751	1	1
6	11	FALSE	NV	v	['Z', 'R', 'T', 'H', 'K', 'G', 'N', 'V', 'W', 'X', 'J', 'Y', 'B', 'S', 'E', 'M']	[2911, 1587, 1888, 986, 1122, 944, 1335, 2245, 2448, 4000, 1029, 2670, 760, 1731, 904, 1224]	10	Present	NA	NA	PRESENT	0.2507309913635254	61.14811086654663	63.14910697937012	63.96598982810974	64.31592679023743	67.26753687858582	4.118429899215698	[61.169353008270264, 61.285945892333984, 62.270373821258545, 62.43708682060242, 63.187872886657715, 63.30479598045349, 63.42160081863403, 63.53824782371521, 63.6551468372345, 63.77168583869934, 63.88865089416504, 64.0052878856659, 64.12230896949768, 64.23905491828918, 64.35584282875061, 64.47248697280884, 64.5894148349762, 64.70607304573059, 64.82308292388916, 64.93991684913635, 65.039705991745, 65.26753687858582]	[61.163667620341045, 61.28033428700771, 62.26333428700771, 62.43003428700771, 63.18003428700771, 63.296700953674375, 63.41336762034104, 63.53003428700771, 63.646700953674376, 63.76336762034104, 63.88003428700771, 63.99670095367438, 64.11336762034104, 64.2300342870077, 64.34670095367436, 64.46336762034102, 64.58003428700768, 64.69670095367434, 64.813367620341, 64.93003428700766, 65.04670095367432, 65.28003428700765]	2020_Nov_27_1140	59.93232738911751	1	1
6	12	FALSE	NV	v	['R', 'E', 'P', 'W', 'Z', 'V', 'S', 'H', 'C', 'Y', 'N', 'U', 'X', 'J', 'M', 'A']	[1587, 904, 1456, 2448, 2911, 2245, 1731, 986, 829, 2670, 1335, 2059, 4000, 1029, 1224, 697]	13	Present	NA	NA	PRESENT	0.07110786437988281	67.25446796417236	69.26555180549622	70.43228387832642	70.78230500221252	73.38390398025513	4.118352174758911	[67.27570986747742, 67.39229989051819, 68.37674283981323, 68.54366993904114, 69.29421186447144, 69.41137886047363, 69.52809381484985, 69.64491701126099, 69.76151990890503, 69.87842392921448, 69.99511694908142, 70.11201095581055, 70.22861194610596, 70.34547281265259, 70.46219396591187, 70.57913398742676, 70.69611597061157, 70.81276893615723, 70.92943382263184, 71.04638600349426, 71.16309881210327, 71.38390398025513]	[67.28003428700765, 67.39670095367431, 68.37970095367432, 68.54640095367432, 69.29640095367432, 69.41306762034098, 69.52973428700764, 69.6464009536743, 69.76306762034096, 69.87973428700762, 69.99640095367428, 70.11306762034094, 70.2297342870076, 70.34640095367426, 70.46306762034092, 70.57973428700758, 70.69640095367424, 70.8130676203409, 70.92973428700756, 71.04640095367422, 71.16306762034088, 71.39640095367422]	2020_Nov_27_1140	59.93232738911751	1	1
6	13	FALSE	VA	v	['C', 'V', 'W', 'H', 'G', 'surprise', 'N', 'T', 'X', 'S', 'R', 'A', 'B', 'P', 'Y', 'M']	[829, 2245, 2448, 986, 944, 'stimAuditory/all_stimAuditory/221.wav', 1335, 1888, 4000, 1731, 1587, 697, 760, 1456, 2670, 1224]	9	Present	NA	stimVisual/all_stimVisual/123.jpg	PRESENT	0.03580498695373535	73.37751984596252	75.38164687156677	76.08244395256042	76.43201398849487	79.50026988983154	4.1186230182647705	[73.39876103401184, 73.51572704315186, 74.4999418258667, 74.66665291786194, 75.41743993759155, 75.5341739654541, 75.6510968208313, 75.76793098449707, 75.88479995727539, 76.00142002105713, 76.11827182769775, 76.23513603210449, 76.40192294120789, 76.46858191490173, 76.58542799949646, 76.70234394073486, 76.81912302970886, 76.93579983711243, 77.05262398719788, 77.1693799495697, 77.28632187843323, 77.50026798248291]	[73.39640095367422, 73.51306762034088, 74.49606762034088, 74.66276762034089, 75.41276762034089, 75.52943428700755, 75.6461009536742, 75.76276762034087, 75.87943428700753, 75.99610095367419, 76.11276762034085, 76.2294342870075, 76.34610095367417, 76.46276762034083, 76.57943428700749, 76.69610095367415, 76.81276762034081, 76.92943428700747, 77.04610095367413, 77.16276762034079, 77.27943428700745, 77.51276762034078]	2020_Nov_27_1140	59.93232738911751	1	1
6	14	FALSE	NV	v	['U', 'E', 'Y', 'V', 'T', 'R', 'W', 'Z', 'X', 'S', 'N', 'M', 'B', 'J', 'G', 'C']	[2059, 904, 2670, 2245, 1888, 1587, 2448, 2911, 4000, 1731, 1335, 1224, 760, 1029, 944, 829]	9	Present	NA	NA	PRESENT	0.2649068832397461	79.50088691711426	81.4980878829956	82.19852876663208	82.54877376556396	85.61663603782654	4.118548154830933	[79.522127866745, 79.62185382843018, 80.60665488243103, 80.77307391166687, 81.54069089889526, 81.64071798324585, 81.75745987892151, 81.87428283691406, 81.99108982086182, 82.10788297653198, 82.22473287582397, 82.34140491485596, 82.45825004577637, 82.57501292228699, 82.69176888465881, 82.80853796005249, 82.92551803588867, 83.04219698905945, 83.15908288955688, 83.27576804161072, 83.39274001121521, 83.61663699150085]	[79.51276762034078, 79.62943428700744, 80.61243428700745, 80.77913428700745, 81.52913428700745, 81.64580095367411, 81.76246762034077, 81.87913428700743, 81.99580095367409, 82.11246762034075, 82.22913428700741, 82.34580095367407, 82.46246762034073, 82.57913428700739, 82.69580095367405, 82.81246762034071, 82.92913428700737, 83.04580095367403, 83.16246762034069, 83.27913428700735, 83.39580095367401, 83.62913428700735]	2020_Nov_27_1140	59.93232738911751	1	1
6	15	FALSE	NV	v	['V', 'T', 'G', 'U', 'A', 'Z', 'M', 'H', 'X', 'R', 'B', 'N', 'J', 'C', 'S', 'E']	[2245, 1888, 944, 2059, 697, 2911, 1224, 986, 4000, 1587, 760, 1335, 1029, 829, 1731, 904]	9	Present	NA	NA	PRESENT	0.15746188163757324	85.60701584815979	87.61463785171509	88.31482481956482	88.66493797302246	91.73300290107728	4.118365049362183	[85.62825798988342, 85.74531602859497, 86.72963380813599, 86.89635396003723, 87.64706897735596, 87.76411890983582, 87.8808159828186, 87.9976818561554, 88.11429786682129, 88.2311098575592, 88.34799790382385, 88.46484184265137, 88.5814299583435, 88.69821882247925, 88.81511092185974, 88.93171691894531, 89.04877400398254, 89.16549181938171, 89.28223896026611, 89.39896893501282, 89.51588988304138, 89.73300290107727]	[85.62913428700735, 85.745800953674, 86.72880095367401, 86.89550095367402, 87.64550095367402, 87.76216762034068, 87.87883428700734, 87.995500953674, 88.11216762034066, 88.22883428700732, 88.34550095367398, 88.46216762034064, 88.5788342870073, 88.69550095367396, 88.81216762034062, 88.92883428700728, 89.04550095367394, 89.1621676203406, 89.27883428700726, 89.39550095367392, 89.51216762034058, 89.74550095367391]	2020_Nov_27_1140	59.93232738911751	1	1
6	16	FALSE	NV	v	['Y', 'J', 'H', 'S', 'R', 'K', 'M', 'G', 'Z', 'N', 'X', 'A', 'P', 'V', 'C', 'U']	[2670, 1029, 986, 1731, 1587, 1122, 1224, 944, 2911, 1335, 4000, 697, 1456, 2245, 829, 2059]	11	Present	NA	NA	PRESENT	1.2908129692077637	91.7305519580841	93.73094582557678	94.66450595855711	95.01446199417114	97.84937000274658	4.1184241771698	[91.75179290771484, 91.86827993392944, 92.8526599407196, 93.01968693733215, 93.77041888237, 93.88725590705872, 94.00394988059998, 94.12086987495422, 94.23766899108887, 94.35436701774597, 94.47110104560852, 94.58789992332458, 94.70484185218811, 94.8213279247284, 94.93835186958313, 95.05509686470032, 95.17182397842407, 95.28865694999695, 95.40542984008789, 95.52240085601807, 95.62226390838623, 95.84937000274658]	[91.74550095367391, 91.86216762034057, 92.84516762034058, 93.01186762034058, 93.76186762034058, 93.87853428700724, 93.9952009536739, 94.11186762034056, 94.22853428700722, 94.34520095367388, 94.46186762034054, 94.5785342870072, 94.69520095367386, 94.81186762034052, 94.92853428700718, 95.04520095367384, 95.1618676203405, 95.27853428700716, 95.39520095367382, 95.51186762034048, 95.62853428700714, 95.86186762034048]	2020_Nov_27_1140	59.93232738911751	1	1
6	17	FALSE	NV	v	['Z', 'A', 'Y', 'B', 'S', 'M', 'V', 'U', 'G', 'C', 'X', 'K', 'J', 'E', 'T', 'P']	[2911, 697, 2670, 760, 1731, 1224, 2245, 2059, 944, 829, 4000, 1122, 1029, 904, 1888, 1456]	11	Present	NA	NA	PRESENT	0.8552818298339844	97.83683395385742	99.8474259376526	100.78076982498168	101.13105988502502	103.96573686599731	4.118310928344727	[97.85807490348816, 97.97489190101624, 98.95933294296265, 99.12607789039612, 99.8767569065094, 99.99372982978821, 100.1104109287262, 100.22724986076355, 100.34393286705017, 100.46071791648865, 100.57761883735657, 100.69449090957642, 100.81132197380066, 100.92779994010925, 101.04469895362854, 101.16165781021118, 101.27841782569885, 101.39500689506531, 101.51203393936157, 101.62904787063599, 101.74562287330627, 101.96573686599731]	[97.86186762034048, 97.97853428700714, 98.96153428700714, 99.12823428700715, 99.87823428700715, 99.9949009536738, 100.11156762034047, 100.22823428700713, 100.34490095367379, 100.46156762034045, 100.5782342870071, 100.69490095367377, 100.81156762034043, 100.92823428700709, 101.04490095367375, 101.1615676203404, 101.27823428700707, 101.39490095367373, 101.51156762034039, 101.62823428700705, 101.7449009536737, 101.97823428700704]	2020_Nov_27_1140	59.93232738911751	1	1
6	18	FALSE	NA	v	['B', 'Y', 'Z', 'V', 'R', 'K', 'C', 'S', 'G', 'P', 'J', 'X', 'M', 'A', 'N', 'H']	[760, 2670, 2911, 2245, 1587, 1122, 829, 1731, 944, 1456, 1029, 4000, 1224, 697, 1335, 986]	12	Present	NA	NA	PRESENT	0.4601149559020996	103.95990300178528	105.96376490592957	107.0138349533081	107.36382794380188	110.08210396766664	4.1183390617370605	[103.98114490509033, 104.09800100326538, 105.08233404159546, 105.24919295310974, 105.99992990493774, 106.11670589447021, 106.23366689682007, 106.35045504570007, 106.46732091903687, 106.58399701118469, 106.70084881782532, 106.81753993034363, 106.93452286720276, 107.05093383789062, 107.16799187660217, 107.28466486930847, 107.40130090713501, 107.51833391189575, 107.63511991500854, 107.75198197364807, 107.86860799789429, 108.08210396766663]	[103.97823428700704, 104.0949009536737, 105.0779009536737, 105.24460095367371, 105.99460095367371, 106.11126762034037, 106.22793428700703, 106.34460095367369, 106.46126762034035, 106.57793428700701, 106.69460095367367, 106.81126762034033, 106.92793428700699, 107.04460095367365, 107.16126762034031, 107.27793428700697, 107.39460095367363, 107.51126762034029, 107.62793428700695, 107.74460095367361, 107.86126762034027, 108.0946009536736]	2020_Nov_27_1140	59.93232738911751	1	1
6	19	FALSE	NV	v	['W', 'A', 'C', 'G', 'H', 'Z', 'V', 'S', 'R', 'Y', 'X', 'K', 'E', 'N', 'P', 'T']	[2448, 697, 829, 944, 986, 2911, 2245, 1731, 1587, 2670, 4000, 1122, 904, 1335, 1456, 1888]	11	Present	NA	NA	PRESENT	0.3052809238433838	110.06635284423828	112.0800769329071	113.01360988616943	113.36349081993104	116.19846987724304	4.1183929443359375	[110.0875940322876, 110.20428490638733, 111.18892693519592, 111.35553002357483, 112.12355303764343, 112.22312998771667, 112.3399498462677, 112.45675897598267, 112.57360982894897, 112.69031095504761, 112.80720090866089, 112.92392992973328, 113.04079604148865, 113.15753102302551, 113.27433681488037, 113.39105701446533, 113.50784301757812, 113.62479186058044, 113.74144697189331, 113.85841298103333, 113.97515296936035, 114.19847083091736]	[110.0946009536736, 110.21126762034027, 111.19426762034027, 111.36096762034028, 112.11096762034028, 112.22763428700694, 112.3443009536736, 112.46096762034026, 112.57763428700692, 112.69430095367358, 112.81096762034024, 112.9276342870069, 113.04430095367356, 113.16096762034022, 113.27763428700688, 113.39430095367354, 113.5109676203402, 113.62763428700686, 113.74430095367352, 113.86096762034018, 113.97763428700684, 114.21096762034017]	2020_Nov_27_1140	59.93232738911751	1	1
6	20	FALSE	NV	v	['G', 'B', 'T', 'V', 'Z', 'K', 'U', 'A', 'X', 'R', 'Y', 'E', 'H', 'J', 'M', 'W']	[944, 760, 1888, 2245, 2911, 1122, 2059, 697, 4000, 1587, 2670, 904, 986, 1029, 1224, 2448]	9	Present	NA	NA	PRESENT	0.3420090675354004	116.18952989578248	118.19644379615784	118.89665198326112	119.24675583839417	122.31483697891235	4.118393182754517	[116.2107720375061, 116.3277678489685, 117.31218600273132, 117.4787209033966, 118.22966289520264, 118.3463659286499, 118.46323585510254, 118.58014798164368, 118.69692587852478, 118.81353783607483, 118.93047881126404, 119.04705691337585, 119.16413187980652, 119.28083181381226, 119.3976378440857, 119.51422786712646, 119.63121795654297, 119.7479829788208, 119.86477494239807, 119.98147892951965, 120.09812998771667, 120.31483697891235]	[116.21096762034017, 116.32763428700683, 117.31063428700683, 117.47733428700684, 118.22733428700684, 118.3440009536735, 118.46066762034016, 118.57733428700682, 118.69400095367348, 118.81066762034014, 118.9273342870068, 119.04400095367346, 119.16066762034012, 119.27733428700678, 119.39400095367344, 119.5106676203401, 119.62733428700676, 119.74400095367342, 119.86066762034008, 119.97733428700674, 120.0940009536734, 120.32733428700674]	2020_Nov_27_1140	59.93232738911751	1	1
6	21	FALSE	NV	v	['Y', 'Z', 'S', 'A', 'B', 'J', 'T', 'C', 'U', 'G', 'X', 'P', 'V', 'M', 'N', 'H']	[2670, 2911, 1731, 697, 760, 1029, 1888, 829, 2059, 944, 4000, 1456, 2245, 1224, 1335, 986]	11	Present	NA	NA	PRESENT	0.2750370502471924	122.31300282478333	124.31277894973756	125.24647188186646	125.5966329574585	128.43120288848877	4.118423938751221	[122.33424496650696, 122.45072793960571, 123.43516492843628, 123.60201096534729, 124.35296392440796, 124.46952700614929, 124.58649897575378, 124.70326399803162, 124.82012486457825, 124.93694686889648, 125.05370783805847, 125.17041683197021, 125.28720998764038, 125.40398097038269, 125.52087187767029, 125.6375470161438, 125.75441884994507, 125.87113785743713, 125.9879150390625, 126.10466289520264, 126.20484399795532, 126.43120288848877]	[122.32733428700674, 122.4440009536734, 123.4270009536734, 123.5937009536734, 124.3437009536734, 124.46036762034007, 124.57703428700673, 124.69370095367339, 124.81036762034005, 124.9270342870067, 125.04370095367337, 125.16036762034003, 125.27703428700669, 125.39370095367335, 125.51036762034, 125.62703428700667, 125.74370095367333, 125.86036762033999, 125.97703428700665, 126.0937009536733, 126.21036762033997, 126.4437009536733]	2020_Nov_27_1140	59.93232738911751	1	1
6	22	FALSE	NA	v	['N', 'H', 'E', 'V', 'P', 'C', 'R', 'X', 'J', 'U', 'B', 'T', 'S', 'A', 'Y', 'G']	[1335, 986, 904, 2245, 1456, 829, 1587, 4000, 1029, 2059, 760, 1888, 1731, 697, 2670, 944]	8	Present	NA	NA	PRESENT	0.2557680606842041	128.41932082176208	130.4293189048767	131.01293396949768	131.3626139163971	134.54756999015808	4.118251085281372	[128.44056296348572, 128.55735301971436, 129.54175400733948, 129.70848393440247, 130.4591088294983, 130.5760359764099, 130.6928780078888, 130.80973601341248, 130.92652988433838, 131.0431308746338, 131.1601710319519, 131.276957988739, 131.39382982254028, 131.51039290428162, 131.62771892547607, 131.74416303634644, 131.86088299751282, 131.97768688201904, 132.0943329334259, 132.21107983589172, 132.32803201675415, 132.54756903648376]	[128.4437009536733, 128.56036762033997, 129.54336762033998, 129.71006762033997, 130.46006762033997, 130.57673428700664, 130.69340095367332, 130.81006762034, 130.92673428700667, 131.04340095367334, 131.16006762034002, 131.2767342870067, 131.39340095367336, 131.51006762034004, 131.6267342870067, 131.7434009536734, 131.86006762034006, 131.97673428700674, 132.0934009536734, 132.21006762034008, 132.32673428700676, 132.56006762034008]	2020_Nov_27_1140	59.93232738911751	1	1
6	23	FALSE	NA	v	['K', 'G', 'M', 'Y', 'A', 'J', 'P', 'X', 'V', 'N', 'E', 'Z', 'T', 'C', 'U', 'H']	[1122, 944, 1224, 2670, 697, 1029, 1456, 4000, 2245, 1335, 904, 2911, 1888, 829, 2059, 986]	8	Present	NA	NA	PRESENT	0.23635101318359375	134.5424427986145	136.54551482200625	137.12924599647522	137.47896480560303	140.6639368534088	4.118422031402588	[134.56368398666382, 134.68039894104004, 135.6650288105011, 135.8317949771881, 136.58244395256042, 136.69921898841858, 136.81608891487122, 136.93281292915344, 137.04970288276672, 137.1665530204773, 137.28323984146118, 137.40000581741333, 137.51688504219055, 137.63374400138855, 137.7505898475647, 137.86724400520325, 137.98408699035645, 138.1006019115448, 138.21753096580505, 138.3344168663025, 138.451171875, 138.6639380455017]	[134.56006762034008, 134.67673428700675, 135.65973428700676, 135.82643428700675, 136.57643428700675, 136.69310095367342, 136.8097676203401, 136.92643428700677, 137.04310095367345, 137.15976762034012, 137.2764342870068, 137.39310095367347, 137.50976762034014, 137.62643428700682, 137.7431009536735, 137.85976762034016, 137.97643428700684, 138.0931009536735, 138.2097676203402, 138.32643428700686, 138.44310095367354, 138.67643428700686]	2020_Nov_27_1140	59.93232738911751	1	1
6	24	FALSE	NN	v	['Y', 'U', 'V', 'G', 'T', 'W', 'E', 'J', 'H', 'S', 'Z', 'R', 'A', 'M', 'B', 'K']	[2670, 2059, 2245, 944, 1888, 2448, 904, 1029, 986, 1731, 2911, 1587, 697, 1224, 760, 1122]	10	Absent	NA	NA	ABSENT	0.31354379653930664	140.64883685112	142.66213488578796	143.47888898849487	143.8288209438324	146.78030395507812	4.118169069290161	[140.6700780391693, 140.78698182106018, 141.77171802520752, 141.9381639957428, 142.70566082000732, 142.80568289756775, 142.92242002487183, 143.0392119884491, 143.15606784820557, 143.27286291122437, 143.38967394828796, 143.50637292861938, 143.6233308315277, 143.74001002311707, 143.8569359779358, 143.97355389595032, 144.09041595458984, 144.2072880268097, 144.32402992248535, 144.44079399108887, 144.55768704414368, 144.78030395507812]	[140.67643428700686, 140.79310095367353, 141.77610095367353, 141.94280095367353, 142.69280095367353, 142.8094676203402, 142.92613428700687, 143.04280095367355, 143.15946762034022, 143.2761342870069, 143.39280095367357, 143.50946762034025, 143.62613428700692, 143.7428009536736, 143.85946762034027, 143.97613428700694, 144.09280095367362, 144.2094676203403, 144.32613428700697, 144.44280095367364, 144.5594676203403, 144.79280095367363]	2020_Nov_27_1140	59.93232738911751	1	1
6	25	FALSE	AA	v	['Y', 'J', 'E', 'B', 'R', 'H', 'K', 'A', 'surprise', 'W', 'U', 'X', 'S', 'C', 'T', 'N']	[2670, 1029, 904, 760, 1587, 986, 1122, 697, 'stimAuditory/all_stimAuditory/224.wav', 2448, 2059, 4000, 1731, 829, 1888, 1335]	12	Present	stimAuditory/all_stimAuditory/104.wav	stimVisual/all_stimVisual/202.jpg	PRESENT	0.31823086738586426	146.7719578742981	148.77813696861267	149.82850790023804	150.17857885360718	152.89666986465454	4.11853289604187	[146.79320693016052, 146.91011691093445, 147.8946509361267, 148.06135296821594, 148.81207990646362, 148.92879986763, 149.04575181007385, 149.16247987747192, 149.2793459892273, 149.39596581459045, 149.51304483413696, 149.62974500656128, 149.76320791244507, 149.86343383789062, 149.97999787330627, 150.09692883491516, 150.21368288993835, 150.3304488658905, 150.44729590415955, 150.56402397155762, 150.68081498146057, 150.89666891098022]	[146.79280095367363, 146.9094676203403, 147.8924676203403, 148.0591676203403, 148.8091676203403, 148.92583428700698, 149.04250095367365, 149.15916762034033, 149.275834287007, 149.39250095367368, 149.50916762034035, 149.62583428700702, 149.7425009536737, 149.85916762034037, 149.97583428700705, 150.09250095367372, 150.2091676203404, 150.32583428700707, 150.44250095367374, 150.55916762034042, 150.6758342870071, 150.9091676203404]	2020_Nov_27_1140	59.93232738911751	1	1
6	26	FALSE	NA	v	['V', 'Z', 'C', 'A', 'S', 'N', 'W', 'K', 'Y', 'E', 'J', 'P', 'X', 'R', 'B', 'M']	[2245, 2911, 829, 697, 1731, 1335, 2448, 1122, 2670, 904, 1029, 1456, 4000, 1587, 760, 1224]	13	Present	NA	NA	PRESENT	0.2675027847290039	152.8956389427185	154.89479279518127	156.0616319179535	156.41145992279053	159.01303696632385	4.118244171142578	[152.91688203811646, 153.0333709716797, 154.0008499622345, 154.16768193244934, 154.9353039264679, 155.05224800109863, 155.16875886917114, 155.28570890426636, 155.4026370048523, 155.51935482025146, 155.63619995117188, 155.7528669834137, 155.8697829246521, 155.98652601242065, 156.10335493087769, 156.22012281417847, 156.33679294586182, 156.45370602607727, 156.55364084243774, 156.68721890449524, 156.78731298446655, 157.01303601264954]	[152.9091676203404, 153.0258342870071, 154.0088342870071, 154.17553428700708, 154.92553428700708, 155.04220095367376, 155.15886762034043, 155.2755342870071, 155.39220095367378, 155.50886762034045, 155.62553428700713, 155.7422009536738, 155.85886762034048, 155.97553428700715, 156.09220095367382, 156.2088676203405, 156.32553428700717, 156.44220095367385, 156.55886762034052, 156.6755342870072, 156.79220095367387, 157.0255342870072]	2020_Nov_27_1140	59.93232738911751	1	1
6	27	FALSE	NV	v	['E', 'V', 'S', 'G', 'A', 'C', 'W', 'X', 'R', 'B', 'H', 'P', 'Z', 'U', 'N', 'J']	[904, 2245, 1731, 944, 697, 829, 2448, 4000, 1587, 760, 986, 1456, 2911, 2059, 1335, 1029]	8	Present	NA	NA	PRESENT	0.22386789321899417	159.0016849040985	161.0109269618988	161.594703912735	161.94463396072388	165.12940287590027	4.118475914001465	[159.02292704582214, 159.13990688323975, 160.12402296066284, 160.29103899002075, 161.04166102409363, 161.1586549282074, 161.2753369808197, 161.3922200202942, 161.50900602340698, 161.62568593025208, 161.74257588386536, 161.85940980911255, 161.97614288330078, 162.0928339958191, 162.20973300933838, 162.32643795013428, 162.44336795806885, 162.56021881103516, 162.6772918701172, 162.79361295700073, 162.9104290008545, 163.12940382957458]	[159.0255342870072, 159.14220095367386, 160.12520095367387, 160.29190095367386, 161.04190095367386, 161.15856762034053, 161.2752342870072, 161.39190095367388, 161.50856762034056, 161.62523428700723, 161.7419009536739, 161.85856762034058, 161.97523428700725, 162.09190095367393, 162.2085676203406, 162.32523428700728, 162.44190095367395, 162.55856762034063, 162.6752342870073, 162.79190095367397, 162.90856762034065, 163.14190095367397]	2020_Nov_27_1140	59.93232738911751	1	1
6	28	FALSE	NN	v	['N', 'W', 'E', 'P', 'B', 'G', 'T', 'M', 'Z', 'K', 'R', 'C', 'U', 'J', 'H', 'Y']	[1335, 2448, 904, 1456, 760, 944, 1888, 1224, 2911, 1122, 1587, 829, 2059, 1029, 986, 2670]	11	Absent	NA	NA	ABSENT	0.25342512130737305	165.12485885620117	167.12734293937683	168.06115698814392	168.41089177131653	171.24576997756958	4.118427038192749	[165.1461009979248, 165.26288294792175, 166.24742889404297, 166.41425895690918, 167.1649739742279, 167.28186583518982, 167.39864587783813, 167.51518893241882, 167.63225889205933, 167.7488648891449, 167.86585187911987, 167.98266696929932, 168.09933280944824, 168.2160840034485, 168.33294987678528, 168.44974088668823, 168.56651902198792, 168.68326783180237, 168.80017685890198, 168.9169569015503, 169.03356885910034, 169.2457709312439]	[165.14190095367397, 165.25856762034064, 166.24156762034065, 166.40826762034064, 167.15826762034064, 167.2749342870073, 167.391600953674, 167.50826762034066, 167.62493428700733, 167.741600953674, 167.85826762034068, 167.97493428700736, 168.09160095367403, 168.2082676203407, 168.32493428700738, 168.44160095367405, 168.55826762034073, 168.6749342870074, 168.79160095367408, 168.90826762034075, 169.02493428700743, 169.25826762034075]	2020_Nov_27_1140	59.93232738911751	1	1
6	29	FALSE	NV	v	['N', 'U', 'G', 'B', 'R', 'H', 'K', 'J', 'M', 'V', 'T', 'W', 'X', 'P', 'S', 'Y']	[1335, 2059, 944, 760, 1587, 986, 1122, 1029, 1224, 2245, 1888, 2448, 4000, 1456, 1731, 2670]	13	Present	NA	NA	PRESENT	0.2017819881439209	171.2314109802246	173.2437629699707	174.41068577766418	174.7605757713318	177.3621368408203	4.118373870849609	[171.25265192985535, 171.3695089817047, 172.35368084907532, 172.52052783966064, 173.288409948349, 173.38831686973572, 173.50494503974915, 173.62176895141602, 173.7384970188141, 173.85550594329834, 173.97223591804504, 174.0890998840332, 174.20576882362366, 174.32266283035278, 174.43938398361206, 174.55627584457397, 174.67302703857422, 174.7896568775177, 174.906574010849, 175.02330088615417, 175.14022994041443, 175.362135887146]	[171.25826762034075, 171.37493428700742, 172.35793428700742, 172.52463428700742, 173.27463428700742, 173.3913009536741, 173.50796762034076, 173.62463428700744, 173.7413009536741, 173.8579676203408, 173.97463428700746, 174.09130095367414, 174.2079676203408, 174.32463428700748, 174.44130095367416, 174.55796762034083, 174.6746342870075, 174.79130095367418, 174.90796762034086, 175.02463428700753, 175.1413009536742, 175.37463428700752]	2020_Nov_27_1140	59.93232738911751	1	1
6	30	FALSE	NA	v	['E', 'T', 'W', 'V', 'H', 'Y', 'J', 'N', 'U', 'B', 'S', 'K', 'X', 'P', 'G', 'M']	[904, 1888, 2448, 2245, 986, 2670, 1029, 1335, 2059, 760, 1731, 1122, 4000, 1456, 944, 1224]	13	Present	NA	NA	PRESENT	0.1982932090759277	177.3545858860016	179.36016082763672	180.5268998146057	180.8768630027771	183.4785039424896	4.118343114852905	[177.37582802772522, 177.49261784553528, 178.47700381278992, 178.64388799667358, 179.39452695846558, 179.51143503189087, 179.6282458305359, 179.7450189590454, 179.86189103126526, 179.97851300239563, 180.09534692764282, 180.21212792396545, 180.32906293869019, 180.44580602645874, 180.56261801719666, 180.67937397956848, 180.79623699188232, 180.91293096542358, 181.02958583831787, 181.14642095565796, 181.26337790489197, 181.478502035141]	[177.37463428700752, 177.4913009536742, 178.4743009536742, 178.6410009536742, 179.3910009536742, 179.50766762034087, 179.62433428700754, 179.74100095367422, 179.8576676203409, 179.97433428700757, 180.09100095367424, 180.2076676203409, 180.3243342870076, 180.44100095367426, 180.55766762034094, 180.6743342870076, 180.79100095367428, 180.90766762034096, 181.02433428700763, 181.1410009536743, 181.25766762034098, 181.4910009536743]	2020_Nov_27_1140	59.93232738911751	1	1
6	31	FALSE	AV	v	['Y', 'R', 'B', 'H', 'G', 'surprise', 'M', 'A', 'X', 'N', 'S', 'T', 'J', 'P', 'C', 'Z']	[2670, 1587, 760, 986, 944, 'stimAuditory/all_stimAuditory/217.wav', 1224, 697, 4000, 1335, 1731, 1888, 1029, 1456, 829, 2911]	9	Present	stimAuditory/all_stimAuditory/221.wav	stimVisual/all_stimVisual/104.jpg	PRESENT	0.27571797370910645	183.47812390327456	185.47647380828855	186.17686200141907	186.5267210006714	189.59486985206604	4.118396043777466	[183.49936604499817, 183.61568784713745, 184.58335399627686, 184.75022101402283, 185.51776695251465, 185.63459491729736, 185.751482963562, 185.86814284324646, 185.98484802246094, 186.10174298286438, 186.21856999397278, 186.3356249332428, 186.45194292068481, 186.56941890716553, 186.6688449382782, 186.8024468421936, 186.90252900123596, 187.0192048549652, 187.13608193397522, 187.25284004211426, 187.36981081962585, 187.59487104415894]	[183.4910009536743, 183.60766762034098, 184.59066762034098, 184.75736762034097, 185.50736762034097, 185.62403428700765, 185.74070095367432, 185.857367620341, 185.97403428700767, 186.09070095367434, 186.20736762034102, 186.3240342870077, 186.44070095367437, 186.55736762034104, 186.67403428700771, 186.7907009536744, 186.90736762034106, 187.02403428700774, 187.1407009536744, 187.25736762034109, 187.37403428700776, 187.60736762034108]	2020_Nov_27_1140	59.93232738911751	1	1
6	32	FALSE	NN	v	['B', 'S', 'J', 'W', 'M', 'G', 'T', 'P', 'N', 'E', 'H', 'Y', 'V', 'Z', 'A', 'R']	[760, 1731, 1029, 2448, 1224, 944, 1888, 1456, 1335, 904, 986, 2670, 2245, 2911, 697, 1587]	9	Absent	NA	NA	ABSENT	0.30411696434020996	189.58425092697144	191.59292578697205	192.29313683509827	192.6433198451996	195.71123695373535	4.118311166763306	[189.6054928302765, 189.72221493721008, 190.70665001869202, 190.87349796295166, 191.62428402900696, 191.7411298751831, 191.85787296295166, 191.97467684745789, 192.09149503707886, 192.20806503295898, 192.3250389099121, 192.44169998168945, 192.55864596366882, 192.6755838394165, 192.7922978401184, 192.90891194343567, 193.0258560180664, 193.14259099960327, 193.25948786735535, 193.37626385688782, 193.49287390708923, 193.71123790740967]	[189.60736762034108, 189.72403428700775, 190.70703428700776, 190.87373428700775, 191.62373428700775, 191.74040095367442, 191.8570676203411, 191.97373428700777, 192.09040095367445, 192.20706762034112, 192.3237342870078, 192.44040095367447, 192.55706762034114, 192.67373428700782, 192.7904009536745, 192.90706762034117, 193.02373428700784, 193.14040095367451, 193.2570676203412, 193.37373428700786, 193.49040095367454, 193.72373428700786]	2020_Nov_27_1140	59.93232738911751	1	1
6	33	FALSE	NA	v	['W', 'Z', 'E', 'K', 'N', 'C', 'S', 'J', 'R', 'M', 'P', 'V', 'T', 'X', 'G', 'Y']	[2448, 2911, 904, 1122, 1335, 829, 1731, 1029, 1587, 1224, 1456, 2245, 1888, 4000, 944, 2670]	14	Present	NA	NA	PRESENT	0.2534651756286621	195.7074768543243	197.70915293693545	198.9928088188171	199.34264588356015	201.82760190963745	4.118448972702026	[195.72871899604797, 195.84546184539795, 196.8297209739685, 196.996572971344, 197.74745082855225, 197.86428785324097, 197.9810609817505, 198.0977749824524, 198.21459984779358, 198.3313958644867, 198.44802594184875, 198.56500387191772, 198.6818380355835, 198.7985680103302, 198.915452003479, 199.03220295906067, 199.14888095855713, 199.2658519744873, 199.382465839386, 199.49940586090088, 199.59934496879578, 199.82760286331177]	[195.72373428700786, 195.84040095367453, 196.82340095367454, 196.99010095367453, 197.74010095367453, 197.8567676203412, 197.97343428700788, 198.09010095367455, 198.20676762034122, 198.3234342870079, 198.44010095367457, 198.55676762034125, 198.67343428700792, 198.7901009536746, 198.90676762034127, 199.02343428700794, 199.14010095367462, 199.2567676203413, 199.37343428700797, 199.49010095367464, 199.60676762034132, 199.84010095367464]	2020_Nov_27_1140	59.93232738911751	1	1
6	34	FALSE	NA	v	['J', 'Y', 'Z', 'S', 'G', 'P', 'C', 'N', 'H', 'A', 'M', 'W', 'U', 'X', 'R', 'V']	[1029, 2670, 2911, 1731, 944, 1456, 829, 1335, 986, 697, 1224, 2448, 2059, 4000, 1587, 2245]	14	Present	NA	NA	PRESENT	0.2499330043792725	201.81377577781677	203.82539796829224	205.10920596122745	205.4592559337616	207.94396996498108	4.118571996688843	[201.8350179195404, 201.95195293426514, 202.93665385246277, 203.10306191444397, 203.85370993614197, 203.9705789089203, 204.08733081817627, 204.2041130065918, 204.32111287117004, 204.43792295455933, 204.5547330379486, 204.67130589485168, 204.78834700584412, 204.9049198627472, 205.02190399169922, 205.13854598999023, 205.25547099113464, 205.37217783927917, 205.4889898300171, 205.60579586029053, 205.72252297401428, 205.94396901130676]	[201.84010095367464, 201.9567676203413, 202.9397676203413, 203.1064676203413, 203.8564676203413, 203.97313428700798, 204.08980095367465, 204.20646762034133, 204.323134287008, 204.43980095367468, 204.55646762034135, 204.67313428700803, 204.7898009536747, 204.90646762034137, 205.02313428700805, 205.13980095367472, 205.2564676203414, 205.37313428700807, 205.48980095367475, 205.60646762034142, 205.7231342870081, 205.9564676203414]	2020_Nov_27_1140	59.93232738911751	1	1
6	35	FALSE	NN	v	['Y', 'J', 'P', 'W', 'N', 'S', 'E', 'H', 'T', 'B', 'V', 'R', 'Z', 'C', 'G', 'U']	[2670, 1029, 1456, 2448, 1335, 1731, 904, 986, 1888, 760, 2245, 1587, 2911, 829, 944, 2059]	13	Absent	NA	NA	ABSENT	0.3024630546569824	207.937047958374	209.94172286987305	211.10916686058044	211.45875787734985	214.0603368282318	4.118613958358765	[207.95828986167908, 208.07509183883667, 209.05938982963562, 209.2264518737793, 209.97714591026306, 210.09375882148743, 210.21060490608215, 210.3273220062256, 210.44429993629456, 210.5610408782959, 210.6776988506317, 210.79466104507446, 210.9112458229065, 211.02812385559082, 211.1449408531189, 211.261785030365, 211.37845182418823, 211.4953818321228, 211.61224102973938, 211.7290380001068, 211.8456790447235, 212.0603368282318]	[207.9564676203414, 208.0731342870081, 209.0561342870081, 209.22283428700808, 209.97283428700808, 210.08950095367476, 210.20616762034143, 210.3228342870081, 210.43950095367478, 210.55616762034145, 210.67283428700813, 210.7895009536748, 210.90616762034148, 211.02283428700815, 211.13950095367483, 211.2561676203415, 211.37283428700817, 211.48950095367485, 211.60616762034152, 211.7228342870082, 211.83950095367487, 212.0728342870082]	2020_Nov_27_1140	59.93232738911751	1	1
6	36	FALSE	NA	v	['U', 'C', 'R', 'A', 'T', 'P', 'Y', 'V', 'X', 'S', 'N', 'M', 'E', 'K', 'Z', 'B']	[2059, 829, 1587, 697, 1888, 1456, 2670, 2245, 4000, 1731, 1335, 1224, 904, 1122, 2911, 760]	9	Present	NA	NA	PRESENT	0.4517021179199219	214.06053185462952	216.0584897994995	216.75846195220947	217.1085147857666	220.17670392990112	4.118214130401611	[214.08177495002747, 214.1983768939972, 215.16584396362305, 215.33271288871765, 216.10025596618652, 216.21714901924133, 216.33374500274658, 216.45086884498596, 216.5505440235138, 216.6840648651123, 216.78410291671753, 216.9009439945221, 217.01774382591248, 217.13455200195312, 217.25135493278503, 217.36808896064758, 217.48491597175598, 217.60171389579773, 217.71847581863403, 217.83530402183533, 217.9520788192749, 218.17670488357544]	[214.0728342870082, 214.18950095367487, 215.17250095367487, 215.33920095367486, 216.08920095367486, 216.20586762034154, 216.3225342870082, 216.43920095367488, 216.55586762034156, 216.67253428700823, 216.7892009536749, 216.90586762034158, 217.02253428700826, 217.13920095367493, 217.2558676203416, 217.37253428700828, 217.48920095367495, 217.60586762034163, 217.7225342870083, 217.83920095367498, 217.95586762034165, 218.18920095367497]	2020_Nov_27_1140	59.93232738911751	1	1
6	37	FALSE	NV	v	['M', 'P', 'H', 'V', 'U', 'G', 'Z', 'B', 'K', 'X', 'Y', 'T', 'J', 'C', 'S', 'N']	[1224, 1456, 986, 2245, 2059, 944, 2911, 760, 1122, 4000, 2670, 1888, 1029, 829, 1731, 1335]	10	Present	NA	NA	PRESENT	0.2326149940490723	220.16673684120175	222.1746368408203	222.9915018081665	223.34155678749084	226.2930688858032	4.11843204498291	[220.18797993659973, 220.30485081672668, 221.28922486305237, 221.45594596862793, 222.20670890808105, 222.32367587089539, 222.44047093391418, 222.55711698532104, 222.67391896247864, 222.79079699516296, 222.9074878692627, 223.02421689033508, 223.14108800888062, 223.25781393051147, 223.37455081939697, 223.49145793914795, 223.60852694511414, 223.72507786750793, 223.8417329788208, 223.9587368965149, 224.0754029750824, 224.29306983947754]	[220.18920095367497, 220.30586762034164, 221.28886762034165, 221.45556762034164, 222.20556762034164, 222.3222342870083, 222.438900953675, 222.55556762034166, 222.67223428700834, 222.788900953675, 222.90556762034169, 223.02223428700836, 223.13890095367503, 223.2555676203417, 223.37223428700838, 223.48890095367506, 223.60556762034173, 223.7222342870084, 223.83890095367508, 223.95556762034175, 224.07223428700843, 224.30556762034175]	2020_Nov_27_1140	59.93232738911751	1	1
6	38	FALSE	VV	v	['Y', 'R', 'U', 'B', 'surprise', 'A', 'N', 'X', 'J', 'T', 'C', 'W', 'E', 'V', 'S', 'M']	[2670, 1587, 2059, 760, 'stimAuditory/all_stimAuditory/211.wav', 697, 1335, 4000, 1029, 1888, 829, 2448, 904, 2245, 1731, 1224]	8	Present	NA	stimVisual/all_stimVisual/212.jpg	PRESENT	0.26978087425231934	226.2898018360138	228.29110193252563	228.87474083900452	229.22496581077576	232.40943694114685	4.118335008621216	[226.31104397773743, 226.4279489517212, 227.41219282150269, 227.57894802093506, 228.32995891571045, 228.44669699668884, 228.56359481811523, 228.6803858280182, 228.79701495170593, 228.91395783424377, 229.0307698249817, 229.14753198623657, 229.2643129825592, 229.38112688064575, 229.49778699874878, 229.6146628856659, 229.73140788078308, 229.84830594062805, 229.9648790359497, 230.08180284500122, 230.18181085586548, 230.40943598747253]	[226.30556762034175, 226.42223428700842, 227.40523428700843, 227.57193428700842, 228.32193428700842, 228.4386009536751, 228.55526762034177, 228.67193428700844, 228.78860095367511, 228.9052676203418, 229.02193428700846, 229.13860095367514, 229.2552676203418, 229.3719342870085, 229.48860095367516, 229.60526762034183, 229.7219342870085, 229.83860095367518, 229.95526762034186, 230.07193428700853, 230.1886009536752, 230.42193428700853]	2020_Nov_27_1140	59.93232738911751	1	1
6	39	FALSE	NV	v	['Z', 'W', 'B', 'G', 'Y', 'M', 'S', 'J', 'H', 'X', 'E', 'T', 'U', 'V', 'A', 'C']	[2911, 2448, 760, 944, 2670, 1224, 1731, 1029, 986, 4000, 904, 1888, 2059, 2245, 697, 829]	10	Present	NA	NA	PRESENT	0.6022050380706787	232.39628982543945	234.40714478492737	235.22450995445251	235.57505893707275	238.52580285072327	4.118658065795898	[232.4175319671631, 232.53451204299927, 233.51878094673157, 233.6859359741211, 234.43625903129578, 234.55326890945435, 234.67002487182617, 234.78680396080017, 234.90363597869873, 235.0203218460083, 235.13713693618774, 235.25383281707764, 235.3705859184265, 235.48743987083435, 235.60415387153625, 235.7210350036621, 235.83793592453003, 235.95471286773682, 236.0713288784027, 236.18833899497986, 236.30493783950806, 236.52580404281616]	[232.42193428700853, 232.5386009536752, 233.5216009536752, 233.6883009536752, 234.4383009536752, 234.55496762034187, 234.67163428700854, 234.78830095367522, 234.9049676203419, 235.02163428700857, 235.13830095367524, 235.25496762034192, 235.3716342870086, 235.48830095367526, 235.60496762034194, 235.7216342870086, 235.8383009536753, 235.95496762034196, 236.07163428700864, 236.1883009536753, 236.30496762034198, 236.5383009536753]	2020_Nov_27_1140	59.93232738911751	1	1
6	40	FALSE	NN	v	['U', 'B', 'Y', 'E', 'V', 'T', 'P', 'M', 'S', 'K', 'G', 'W', 'R', 'Z', 'C', 'J']	[2059, 760, 2670, 904, 2245, 1888, 1456, 1224, 1731, 1122, 944, 2448, 1587, 2911, 829, 1029]	9	Absent	NA	NA	PRESENT	0.3110470771789551	238.51958084106445	240.5234658718109	241.22412991523743	241.57407879829407	244.64216899871823	4.118703126907349	[238.5408239364624, 238.65751194953918, 239.64180493354797, 239.80866384506226, 240.55960202217102, 240.67636704444885, 240.79309487342834, 240.91009187698364, 241.02683782577515, 241.14348196983337, 241.26033401489258, 241.3770649433136, 241.4938669204712, 241.6105978488922, 241.7274968624115, 241.84422993659973, 241.9609739780426, 242.0779149532318, 242.1947078704834, 242.31145787239075, 242.42822790145874, 242.64216995239258]	[238.5383009536753, 238.65496762034198, 239.63796762034198, 239.80466762034197, 240.55466762034197, 240.67133428700865, 240.78800095367532, 240.904667620342, 241.02133428700867, 241.13800095367534, 241.25466762034202, 241.3713342870087, 241.48800095367537, 241.60466762034204, 241.72133428700872, 241.8380009536754, 241.95466762034206, 242.07133428700874, 242.1880009536754, 242.3046676203421, 242.42133428700876, 242.65466762034208]	2020_Nov_27_1140	59.93232738911751	1	1
6	41	FALSE	AV	v	['C', 'U', 'K', 'P', 'R', 'S', 'A', 'G', 'N', 'surprise', 'H', 'W', 'X', 'V', 'Z', 'T']	[829, 2059, 1122, 1456, 1587, 1731, 697, 944, 1335, 'stimAuditory/all_stimAuditory/115.wav', 986, 2448, 4000, 2245, 2911, 1888]	13	Present	stimAuditory/all_stimAuditory/224.wav	stimVisual/all_stimVisual/116.jpg	PRESENT	0.14006900787353516	244.6429579257965	246.64008283615112	247.80697798728943	248.15706992149353	250.7585368156433	4.1184539794921875	[244.66419982910156, 244.76397395133972, 245.7482888698578, 245.91529202461243, 246.68275094032288, 246.78267002105713, 246.8995168209076, 247.01637291908264, 247.13304996490479, 247.24989199638367, 247.3666868209839, 247.4833698272705, 247.60018491744995, 247.73388385772705, 247.833753824234, 247.95056796073914, 248.06744194030762, 248.18417692184448, 248.30103087425232, 248.41789603233337, 248.53475403785706, 248.7585380077362]	[244.65466762034208, 244.77133428700876, 245.75433428700876, 245.92103428700875, 246.67103428700875, 246.78770095367543, 246.9043676203421, 247.02103428700877, 247.13770095367545, 247.25436762034212, 247.3710342870088, 247.48770095367547, 247.60436762034215, 247.72103428700882, 247.8377009536755, 247.95436762034217, 248.07103428700884, 248.18770095367552, 248.3043676203422, 248.42103428700887, 248.53770095367554, 248.77103428700886]	2020_Nov_27_1140	59.93232738911751	1	1
6	42	FALSE	NA	v	['U', 'R', 'Z', 'T', 'E', 'S', 'K', 'A', 'Y', 'N', 'P', 'W', 'X', 'J', 'M', 'C']	[2059, 1587, 2911, 1888, 904, 1731, 1122, 697, 2670, 1335, 1456, 2448, 4000, 1029, 1224, 829]	13	Present	NA	NA	PRESENT	0.1606919765472412	250.749253988266	252.75671076774597	253.92325091362	254.27335691452024	256.8749039173126	4.11819314956665	[250.77049589157104, 250.887051820755, 251.87140583992004, 252.03849601745605, 252.78916382789612, 252.906005859375, 253.02288794517517, 253.1397750377655, 253.2564628124237, 253.37319588661194, 253.49011898040771, 253.60675287246704, 253.72338390350342, 253.8403398990631, 253.95703196525574, 254.0739688873291, 254.19060802459717, 254.30762600898743, 254.42435598373413, 254.54111289978027, 254.65830302238464, 254.8749029636383]	[250.77103428700886, 250.88770095367553, 251.87070095367554, 252.03740095367553, 252.78740095367553, 252.9040676203422, 253.02073428700888, 253.13740095367555, 253.25406762034223, 253.3707342870089, 253.48740095367558, 253.60406762034225, 253.72073428700892, 253.8374009536756, 253.95406762034227, 254.07073428700895, 254.18740095367562, 254.3040676203423, 254.42073428700897, 254.53740095367564, 254.65406762034232, 254.88740095367564]	2020_Nov_27_1140	59.93232738911751	1	1
6	43	FALSE	NV	v	['Z', 'Y', 'N', 'G', 'B', 'K', 'T', 'H', 'X', 'S', 'C', 'M', 'R', 'A', 'P', 'E']	[2911, 2670, 1335, 944, 760, 1122, 1888, 986, 4000, 1731, 829, 1224, 1587, 697, 1456, 904]	9	Present	NA	NA	PRESENT	0.2779819965362549	256.87238097190857	258.87278485298157	259.5730719566345	259.9229779243469	262.99126982688904	4.118484973907471	[256.8936228752136, 257.01037883758545, 257.9947419166565, 258.16172885894775, 258.9122748374939, 259.02926993370056, 259.14612102508545, 259.2628378868103, 259.37947392463684, 259.4964928627014, 259.6133060455322, 259.72999382019043, 259.8466708660126, 259.9635589122772, 260.08041501045227, 260.19711089134216, 260.3139159679413, 260.430743932724, 260.5475239753723, 260.664363861084, 260.7641808986664, 260.99126982688904]	[256.88740095367564, 257.0040676203423, 257.9870676203423, 258.1537676203423, 258.9037676203423, 259.020434287009, 259.13710095367566, 259.25376762034233, 259.370434287009, 259.4871009536757, 259.60376762034235, 259.720434287009, 259.8371009536757, 259.9537676203424, 260.07043428700905, 260.1871009536757, 260.3037676203424, 260.4204342870091, 260.53710095367575, 260.6537676203424, 260.7704342870091, 261.00376762034244]	2020_Nov_27_1140	59.93232738911751	1	1
6	44	FALSE	NN	v	['G', 'V', 'S', 'K', 'W', 'H', 'C', 'T', 'R', 'E', 'Z', 'A', 'U', 'Y', 'P', 'M']	[944, 2245, 1731, 1122, 2448, 986, 829, 1888, 1587, 904, 2911, 697, 2059, 2670, 1456, 1224]	9	Absent	NA	NA	ABSENT	0.28262901306152344	262.97872400283813	264.9890158176422	265.6895709037781	266.03952288627625	269.10763692855835	4.118621110916138	[262.9999659061432, 263.1169488430023, 264.10113286972046, 264.2680628299713, 265.01901292800903, 265.1355290412903, 265.2525599002838, 265.3691759109497, 265.4861409664154, 265.60277104377747, 265.71956491470337, 265.83632802963257, 265.953320980072, 266.0698459148407, 266.1868028640747, 266.3034338951111, 266.42034697532654, 266.53715991973877, 266.6540529727936, 266.77073788642883, 266.8875458240509, 267.10763692855835]	[263.00376762034244, 263.1204342870091, 264.1034342870091, 264.2701342870091, 265.0201342870091, 265.1368009536758, 265.25346762034246, 265.37013428700914, 265.4868009536758, 265.6034676203425, 265.72013428700916, 265.83680095367583, 265.9534676203425, 266.0701342870092, 266.18680095367586, 266.30346762034253, 266.4201342870092, 266.5368009536759, 266.65346762034255, 266.7701342870092, 266.8868009536759, 267.12013428700925]	2020_Nov_27_1140	59.93232738911751	1	1
6	45	FALSE	NA	v	['S', 'K', 'M', 'C', 'R', 'N', 'A', 'J', 'U', 'W', 'B', 'G', 'X', 'E', 'V', 'T']	[1731, 1122, 1224, 829, 1587, 1335, 697, 1029, 2059, 2448, 760, 944, 4000, 904, 2245, 1888]	13	Present	NA	NA	PRESENT	0.11914706230163574	269.10208797454834	271.10560488700867	272.27253580093384	272.6224708557129	275.22400403022766	4.118399143218994	[269.1233298778534, 269.23994398117065, 270.22437500953674, 270.39124393463135, 271.14199781417847, 271.25896286964417, 271.37553191185, 271.4925899505615, 271.6090958118439, 271.72602796554565, 271.8428599834442, 271.9597198963165, 272.076308965683, 272.1933059692383, 272.30987191200256, 272.42670583724976, 272.54345893859863, 272.6603879928589, 272.7771189212799, 272.8940088748932, 273.0106928348541, 273.22400283813477]	[269.12013428700925, 269.2368009536759, 270.21980095367593, 270.3865009536759, 271.1365009536759, 271.2531676203426, 271.36983428700927, 271.48650095367594, 271.6031676203426, 271.7198342870093, 271.83650095367597, 271.95316762034264, 272.0698342870093, 272.186500953676, 272.30316762034266, 272.41983428700934, 272.536500953676, 272.6531676203427, 272.76983428700936, 272.88650095367603, 273.0031676203427, 273.23650095367606]	2020_Nov_27_1140	59.93232738911751	1	1
6	46	FALSE	NA	v	['H', 'B', 'R', 'W', 'A', 'P', 'V', 'J', 'S', 'T', 'G', 'M', 'X', 'C', 'Z', 'Y']	[986, 760, 1587, 2448, 697, 1456, 2245, 1029, 1731, 1888, 944, 1224, 4000, 829, 2911, 2670]	13	Present	NA	NA	PRESENT	0.7243890762329102	275.20860981941223	277.22202587127686	278.38897585868835	278.73893880844116	281.3403699398041	4.118344068527222	[275.22985196113586, 275.34655594825745, 276.3309769630432, 276.49761295318604, 277.26518297195435, 277.3651878833771, 277.48192381858826, 277.59876585006714, 277.71551489830017, 277.83242297172546, 277.94913601875305, 278.0659580230713, 278.18271493911743, 278.2998058795929, 278.4164888858795, 278.533047914505, 278.65008091926575, 278.76689291000366, 278.883633852005, 279.00038599967957, 279.1172218322754, 279.34036898612976]	[275.23650095367606, 275.35316762034273, 276.33616762034274, 276.5028676203427, 277.2528676203427, 277.3695342870094, 277.4862009536761, 277.60286762034275, 277.7195342870094, 277.8362009536761, 277.9528676203428, 278.06953428700945, 278.1862009536761, 278.3028676203428, 278.41953428700947, 278.53620095367614, 278.6528676203428, 278.7695342870095, 278.88620095367617, 279.00286762034284, 279.1195342870095, 279.35286762034286]	2020_Nov_27_1140	59.93232738911751	1	1
6	47	FALSE	NN	v	['J', 'M', 'C', 'A', 'N', 'G', 'T', 'P', 'E', 'H', 'U', 'S', 'Y', 'K', 'Z', 'B']	[1029, 1224, 829, 697, 1335, 944, 1888, 1456, 904, 986, 2059, 1731, 2670, 1122, 2911, 760]	9	Absent	NA	NA	ABSENT	0.5449478626251221	281.33176279067993	283.3383038043976	284.0385317802429	284.3888099193573	287.4567370414734	4.118433237075806	[281.35300493240356, 281.4696099758148, 282.4540078639984, 282.62100982666016, 283.37159991264343, 283.48850989341736, 283.6053898334503, 283.72209882736206, 283.8389630317688, 283.9557409286499, 284.0724530220032, 284.18939304351807, 284.30595898628235, 284.4229609966278, 284.5395369529724, 284.6566870212555, 284.7732398509979, 284.88993287086487, 285.0065829753876, 285.12358689308167, 285.24022793769836, 285.4567370414734]	[281.35286762034286, 281.46953428700954, 282.45253428700954, 282.61923428700953, 283.36923428700953, 283.4859009536762, 283.6025676203429, 283.71923428700956, 283.83590095367623, 283.9525676203429, 284.0692342870096, 284.18590095367625, 284.3025676203429, 284.4192342870096, 284.5359009536763, 284.65256762034295, 284.7692342870096, 284.8859009536763, 285.002567620343, 285.11923428700965, 285.2359009536763, 285.46923428700967]	2020_Nov_27_1140	59.93232738911751	1	1
6	48	FALSE	NV	v	['M', 'B', 'K', 'E', 'J', 'Z', 'A', 'W', 'S', 'G', 'Y', 'U', 'N', 'X', 'T', 'R']	[1224, 760, 1122, 904, 1029, 2911, 697, 2448, 1731, 944, 2670, 2059, 1335, 4000, 1888, 1587]	14	Present	NA	NA	PRESENT	0.2542450428009033	287.4548659324646	289.4545888900757	290.73854184150696	291.08841586112976	293.5731029510498	4.118514060974121	[287.47610688209534, 287.5927200317383, 288.5772969722748, 288.7440299987793, 289.49478697776794, 289.6117420196533, 289.72857689857483, 289.8452889919281, 289.96211791038513, 290.07876682281494, 290.19560194015503, 290.3125548362732, 290.4293370246887, 290.54586601257324, 290.6629469394684, 290.77972197532654, 290.896311044693, 291.0131449699402, 291.1299819946289, 291.24673795700073, 291.3468668460846, 291.5731039047241]	[287.46923428700967, 287.58590095367634, 288.56890095367635, 288.73560095367634, 289.48560095367634, 289.602267620343, 289.7189342870097, 289.83560095367636, 289.95226762034304, 290.0689342870097, 290.1856009536764, 290.30226762034306, 290.41893428700973, 290.5356009536764, 290.6522676203431, 290.76893428700976, 290.88560095367643, 291.0022676203431, 291.1189342870098, 291.23560095367645, 291.3522676203431, 291.5856009536765]	2020_Nov_27_1140	59.93232738911751	1	1
6	49	FALSE	NA	v	['P', 'Z', 'V', 'C', 'Y', 'U', 'J', 'N', 'X', 'G', 'E', 'M', 'R', 'H', 'T', 'S']	[1456, 2911, 2245, 829, 2670, 2059, 1029, 1335, 4000, 944, 904, 1224, 1587, 986, 1888, 1731]	9	Present	NA	NA	ABSENT	0.41081714630126953	293.5614128112793	295.5709638595581	296.271253824234	296.6213037967682	299.68946981430054	4.118505954742432	[293.5826539993286, 293.6992039680481, 294.6840510368347, 294.8506758213043, 295.6013159751892, 295.71811604499817, 295.8348309993744, 295.95168685913086, 296.06845593452454, 296.18527603149414, 296.3020520210266, 296.4189200401306, 296.5355279445648, 296.6525490283966, 296.7693250179291, 296.88613200187683, 297.0026478767395, 297.1197078227997, 297.2363169193268, 297.35331892967224, 297.4699409008026, 297.68947100639343]	[293.5856009536765, 293.70226762034315, 294.68526762034315, 294.85196762034315, 295.60196762034315, 295.7186342870098, 295.8353009536765, 295.95196762034317, 296.06863428700984, 296.1853009536765, 296.3019676203432, 296.41863428700987, 296.53530095367654, 296.6519676203432, 296.7686342870099, 296.88530095367656, 297.00196762034324, 297.1186342870099, 297.2353009536766, 297.35196762034326, 297.46863428700993, 297.7019676203433]	2020_Nov_27_1140	59.93232738911751	1	1
6	50	FALSE	NN	v	['J', 'R', 'V', 'Y', 'S', 'T', 'K', 'W', 'U', 'C', 'B', 'P', 'N', 'G', 'M', 'A']	[1029, 1587, 2245, 2670, 1731, 1888, 1122, 2448, 2059, 829, 760, 1456, 1335, 944, 1224, 697]	11	Absent	NA	NA	ABSENT	0.3273770809173584	299.68449783325195	301.6873688697815	302.62100887298584	302.9708888530731	305.80583691596985	4.1184680461883545	[299.7057399749756, 299.82245087623596, 300.8069100379944, 300.97380781173706, 301.72442984580994, 301.8413739204407, 301.9579749107361, 302.0749568939209, 302.1916379928589, 302.3084888458252, 302.4252619743347, 302.5421528816223, 302.65882086753845, 302.77575302124023, 302.89254689216614, 303.0093710422516, 303.1259388923645, 303.24284386634827, 303.3596649169922, 303.47640204429626, 303.59321093559265, 303.80583691596985]	[299.7019676203433, 299.81863428700996, 300.80163428700996, 300.96833428700995, 301.71833428700995, 301.8350009536766, 301.9516676203433, 302.06833428701, 302.18500095367665, 302.3016676203433, 302.41833428701, 302.5350009536767, 302.65166762034335, 302.76833428701, 302.8850009536767, 303.00166762034337, 303.11833428701004, 303.2350009536767, 303.3516676203434, 303.46833428701007, 303.58500095367674, 303.8183342870101]	2020_Nov_27_1140	59.93232738911751	1	1
6	51	FALSE	NN	v	['A', 'K', 'G', 'S', 'W', 'M', 'J', 'C', 'Y', 'B', 'T', 'R', 'H', 'V', 'P', 'E']	[697, 1122, 944, 1731, 2448, 1224, 1029, 829, 2670, 760, 1888, 1587, 986, 2245, 1456, 904]	13	Absent	NA	NA	ABSENT	0.2847719192504883	305.79106879234314	307.80385279655457	308.97067880630493	309.3206830024719	311.92220401763916	4.118351221084595	[305.81230998039246, 305.92887902259827, 306.9132180213928, 307.08029794692993, 307.84761595726013, 307.94761180877686, 308.0643608570099, 308.18125081062317, 308.29807901382446, 308.4149558544159, 308.5317118167877, 308.6485459804535, 308.7652049064636, 308.88216495513916, 308.99901700019836, 309.1157579421997, 309.23239302635193, 309.34932804107666, 309.4659798145294, 309.58268690109253, 309.69954800605774, 309.92220282554626]	[305.8183342870101, 305.93500095367676, 306.91800095367677, 307.08470095367676, 307.83470095367676, 307.95136762034343, 308.0680342870101, 308.1847009536768, 308.30136762034346, 308.41803428701013, 308.5347009536768, 308.6513676203435, 308.76803428701015, 308.8847009536768, 309.0013676203435, 309.1180342870102, 309.23470095367685, 309.3513676203435, 309.4680342870102, 309.5847009536769, 309.70136762034355, 309.9347009536769]	2020_Nov_27_1140	59.93232738911751	1	1
6	52	FALSE	AA	v	['G', 'J', 'V', 'Z', 'T', 'R', 'W', 'E', 'P', 'surprise', 'N', 'U', 'X', 'M', 'A', 'S']	[944, 1029, 2245, 2911, 1888, 1587, 2448, 904, 1456, 'stimAuditory/all_stimAuditory/222.wav', 1335, 2059, 4000, 1224, 697, 1731]	13	Present	stimAuditory/all_stimAuditory/217.wav	stimVisual/all_stimVisual/224.jpg	PRESENT	0.3211851119995117	311.91420793533325	313.92024183273315	315.0872359275818	315.4371118545532	318.03856897354126	4.1183271408081055	[311.935448884964, 312.05208802223206, 313.0365059375763, 313.2032859325409, 313.954039812088, 314.07087302207947, 314.1877930164337, 314.30459094047546, 314.4214940071106, 314.5380759239197, 314.65480303764343, 314.77170181274414, 314.88840103149414, 315.0220060348511, 315.1219849586487, 315.2388789653778, 315.35562896728516, 315.4725909233093, 315.5891330242157, 315.7063510417938, 315.8228130340576, 316.0385699272156]	[311.9347009536769, 312.05136762034357, 313.0343676203436, 313.20106762034357, 313.95106762034357, 314.06773428701024, 314.1844009536769, 314.3010676203436, 314.41773428701026, 314.53440095367694, 314.6510676203436, 314.7677342870103, 314.88440095367696, 315.00106762034363, 315.1177342870103, 315.234400953677, 315.35106762034366, 315.46773428701033, 315.584400953677, 315.7010676203437, 315.81773428701035, 316.0510676203437]	2020_Nov_27_1140	59.93232738911751	1	1
6	53	FALSE	NN	v	['J', 'G', 'B', 'N', 'Y', 'V', 'C', 'H', 'R', 'M', 'E', 'T', 'U', 'W', 'S', 'Z']	[1029, 944, 760, 1335, 2670, 2245, 829, 986, 1587, 1224, 904, 1888, 2059, 2448, 1731, 2911]	14	Absent	NA	NA	ABSENT	0.3825070858001709	318.03734397888184	320.0363359451294	321.3200409412384	321.6702239513397	324.154935836792	4.118599891662598	[318.0585858821869, 318.17543482780457, 319.14287185668945, 319.3097460269928, 320.0772190093994, 320.19418692588806, 320.3109860420227, 320.4277629852295, 320.5445919036865, 320.6613550186157, 320.7780878543854, 320.8947389125824, 321.01169896125793, 321.1285858154297, 321.24527192115784, 321.36196184158325, 321.4789628982544, 321.59567284584045, 321.7126109600067, 321.81235003471375, 321.92914485931396, 322.1549370288849]	[318.0510676203437, 318.1677342870104, 319.1507342870104, 319.31743428701037, 320.06743428701037, 320.18410095367705, 320.3007676203437, 320.4174342870104, 320.53410095367707, 320.65076762034374, 320.7674342870104, 320.8841009536771, 321.00076762034377, 321.11743428701044, 321.2341009536771, 321.3507676203438, 321.46743428701046, 321.58410095367714, 321.7007676203438, 321.8174342870105, 321.93410095367716, 322.1674342870105]	2020_Nov_27_1140	59.93232738911751	1	1
6	54	FALSE	NA	v	['E', 'V', 'C', 'U', 'P', 'M', 'A', 'R', 'J', 'K', 'T', 'Z', 'X', 'G', 'S', 'H']	[904, 2245, 829, 2059, 1456, 1224, 697, 1587, 1029, 1122, 1888, 2911, 4000, 944, 1731, 986]	13	Present	NA	NA	PRESENT	0.09908294677734376	324.1436469554901	326.15256786346436	327.3196678161621	327.6697609424591	330.2713029384613	4.118735074996948	[324.1648898124695, 324.2815840244293, 325.26608991622925, 325.43295884132385, 326.1841118335724, 326.30062890052795, 326.41738986968994, 326.534126996994, 326.65080404281616, 326.7677400112152, 326.88460302352905, 327.0013768672943, 327.11819195747375, 327.23503494262695, 327.3516800403595, 327.4686028957367, 327.585245847702, 327.7022249698639, 327.8188579082489, 327.9358718395233, 328.0524218082428, 328.271301984787]	[324.1674342870105, 324.2841009536772, 325.2671009536772, 325.4338009536772, 326.1838009536772, 326.30046762034385, 326.4171342870105, 326.5338009536772, 326.6504676203439, 326.76713428701055, 326.8838009536772, 327.0004676203439, 327.1171342870106, 327.23380095367725, 327.3504676203439, 327.4671342870106, 327.58380095367727, 327.70046762034394, 327.8171342870106, 327.9338009536773, 328.05046762034397, 328.2838009536773]	2020_Nov_27_1140	59.93232738911751	1	1
6	55	FALSE	NA	v	['Z', 'S', 'U', 'C', 'Y', 'E', 'R', 'V', 'A', 'N', 'X', 'B', 'P', 'M', 'J', 'W']	[2911, 1731, 2059, 829, 2670, 904, 1587, 2245, 697, 1335, 4000, 760, 1456, 1224, 1029, 2448]	11	Present	NA	NA	PRESENT	0.2486259937286377	330.2669677734375	332.2692217826843	333.2031548023224	333.5528509616852	336.3876700401306	4.118448257446289	[330.2882089614868, 330.405061006546, 331.38926887512207, 331.5562698841095, 332.30690002441406, 332.42385697364807, 332.5406048297882, 332.6573679447174, 332.7742278575897, 332.89105582237244, 333.0077118873596, 333.1246829032898, 333.2412450313568, 333.3581659793854, 333.47500491142273, 333.5917809009552, 333.7086269855499, 333.8253450393677, 333.94204688072205, 334.05898690223694, 334.1756718158722, 334.3876700401306]	[330.2838009536773, 330.400467620344, 331.383467620344, 331.550167620344, 332.300167620344, 332.41683428701066, 332.53350095367733, 332.650167620344, 332.7668342870107, 332.88350095367736, 333.00016762034403, 333.1168342870107, 333.2335009536774, 333.35016762034405, 333.4668342870107, 333.5835009536774, 333.7001676203441, 333.81683428701075, 333.9335009536774, 334.0501676203441, 334.1668342870108, 334.4001676203441]	2020_Nov_27_1140	59.93232738911751	1	1
6	56	FALSE	VA	v	['C', 'U', 'W', 'S', 'J', 'N', 'B', 'surprise', 'P', 'G', 'X', 'M', 'H', 'E', 'V', 'R']	[829, 2059, 2448, 1731, 1029, 1335, 760, 'stimAuditory/all_stimAuditory/111.wav', 1456, 944, 4000, 1224, 986, 904, 2245, 1587]	11	Present	NA	stimVisual/all_stimVisual/221.jpg	PRESENT	0.19689702987670896	336.37377977371216	338.38542199134827	339.31918597221375	339.66947388648987	342.50403594970703	4.118613958358765	[336.3950219154358, 336.51151394844055, 337.4957559108734, 337.66272592544556, 338.43017196655273, 338.5300588607788, 338.6470949649811, 338.76368284225464, 338.88060784339905, 338.9973659515381, 339.1140789985657, 339.2476508617401, 339.34787583351135, 339.46465492248535, 339.58118891716003, 339.6982719898224, 339.81502294540405, 339.9318108558655, 340.0484049320221, 340.16538095474243, 340.2820918560028, 340.50403594970703]	[336.4001676203441, 336.5168342870108, 337.4998342870108, 337.6665342870108, 338.4165342870108, 338.53320095367746, 338.64986762034414, 338.7665342870108, 338.8832009536775, 338.99986762034416, 339.11653428701084, 339.2332009536775, 339.3498676203442, 339.46653428701086, 339.58320095367753, 339.6998676203442, 339.8165342870109, 339.93320095367756, 340.04986762034423, 340.1665342870109, 340.2832009536776, 340.5165342870109]	2020_Nov_27_1140	59.93232738911751	1	1
6	57	FALSE	NN	v	['E', 'Z', 'A', 'B', 'H', 'M', 'V', 'T', 'W', 'R', 'S', 'K', 'G', 'C', 'Y', 'J']	[904, 2911, 697, 760, 986, 1224, 2245, 1888, 2448, 1587, 1731, 1122, 944, 829, 2670, 1029]	14	Absent	NA	NA	ABSENT	0.24953794479370117	342.49664187431335	344.5019428730011	345.7854998111725	346.13559198379517	348.62040400505066	4.1184611320495605	[342.517884016037, 342.63448691368103, 343.6190619468689, 343.78588485717773, 344.5365529060364, 344.6533968448639, 344.77005791664124, 344.8869688510895, 345.0036358833313, 345.12055492401123, 345.2373058795929, 345.35425901412964, 345.47097301483154, 345.58759093284607, 345.70473194122314, 345.8213028907776, 345.9381618499756, 346.05498600006104, 346.1717369556427, 346.28867387771606, 346.40526390075684, 346.620404958725]	[342.5165342870109, 342.6332009536776, 343.6162009536776, 343.7829009536776, 344.5329009536776, 344.64956762034427, 344.76623428701095, 344.8829009536776, 344.9995676203443, 345.11623428701097, 345.23290095367764, 345.3495676203443, 345.466234287011, 345.58290095367767, 345.69956762034434, 345.816234287011, 345.9329009536777, 346.04956762034436, 346.16623428701104, 346.2829009536777, 346.3995676203444, 346.63290095367773]	2020_Nov_27_1140	59.93232738911751	1	1
6	58	FALSE	NA	v	['W', 'H', 'E', 'R', 'S', 'V', 'U', 'P', 'N', 'J', 'B', 'X', 'T', 'G', 'A', 'Z']	[2448, 986, 904, 1587, 1731, 2245, 2059, 1456, 1335, 1029, 760, 4000, 1888, 944, 697, 2911]	12	Present	NA	NA	PRESENT	0.1667311191558838	348.6197979450226	350.6184868812561	351.6689338684082	352.0186369419098	354.7367699146271	4.118283033370972	[348.6410388946533, 348.757896900177, 349.7253818511963, 349.89214301109314, 350.6597788333893, 350.7766909599304, 350.8935618400574, 351.0102229118347, 351.12702798843384, 351.2438018321991, 351.36049485206604, 351.4772639274597, 351.594202041626, 351.71094584465027, 351.8278160095215, 351.9277379512787, 352.0445439815521, 352.1613428592682, 352.27813696861267, 352.39491987228394, 352.5119149684906, 352.7367708683014]	[348.63290095367773, 348.7495676203444, 349.7325676203444, 349.8992676203444, 350.6492676203444, 350.7659342870111, 350.88260095367775, 350.9992676203444, 351.1159342870111, 351.2326009536778, 351.34926762034445, 351.4659342870111, 351.5826009536778, 351.6992676203445, 351.81593428701115, 351.9326009536778, 352.0492676203445, 352.16593428701117, 352.28260095367784, 352.3992676203445, 352.5159342870112, 352.74926762034454]	2020_Nov_27_1140	59.93232738911751	1	1
6	59	FALSE	NV	v	['U', 'V', 'C', 'S', 'P', 'H', 'A', 'J', 'X', 'W', 'N', 'Z', 'M', 'G', 'T', 'B']	[2059, 2245, 829, 1731, 1456, 986, 697, 1029, 4000, 2448, 1335, 2911, 1224, 944, 1888, 760]	9	Present	NA	NA	PRESENT	0.4594399929046631	354.72613978385925	356.73466897010803	357.4350788593292	357.7849209308624	360.8531358242035	4.118466854095459	[354.7473819255829, 354.8642029762268, 355.8488278388977, 356.01563596725464, 356.7661678791046, 356.8830499649048, 356.9997079372406, 357.11671781539917, 357.23335003852844, 357.35036993026733, 357.46710681915283, 357.5839068889618, 357.70056080818176, 357.81751585006714, 357.93420481681824, 358.0509638786316, 358.1676788330078, 358.2845289707184, 358.4012529850006, 358.5182750225067, 358.63495683670044, 358.8531370162964]	[354.74926762034454, 354.8659342870112, 355.8489342870112, 356.0156342870112, 356.7656342870112, 356.8823009536779, 356.99896762034456, 357.11563428701123, 357.2323009536779, 357.3489676203446, 357.46563428701126, 357.58230095367793, 357.6989676203446, 357.8156342870113, 357.93230095367795, 358.0489676203446, 358.1656342870113, 358.282300953678, 358.39896762034465, 358.5156342870113, 358.632300953678, 358.86563428701135]	2020_Nov_27_1140	59.93232738911751	1	1
6	60	FALSE	NV	v	['M', 'C', 'P', 'T', 'S', 'H', 'N', 'A', 'Y', 'X', 'B', 'Z', 'R', 'U', 'V', 'J']	[1224, 829, 1456, 1888, 1731, 986, 1335, 697, 2670, 4000, 760, 2911, 1587, 2059, 2245, 1029]	10	Present	NA	NA	PRESENT	0.12880682945251465	360.8495697975158	362.8510408401489	363.66909098625183	364.01920199394226	366.9695019721985	4.1184611320495605	[360.8708109855652, 360.98748087882996, 361.97194480895996, 362.13865089416504, 362.88944602012634, 363.006413936615, 363.1229929924011, 363.23978996276855, 363.35666584968567, 363.47334384918213, 363.5901699066162, 363.70688796043396, 363.823912858963, 363.94060802459717, 364.05736899375916, 364.17403388023376, 364.2909948825836, 364.4078438282013, 364.5246238708496, 364.6411919593811, 364.74128699302673, 364.9695029258728]	[360.86563428701135, 360.982300953678, 361.965300953678, 362.132000953678, 362.882000953678, 362.9986676203447, 363.11533428701136, 363.23200095367804, 363.3486676203447, 363.4653342870114, 363.58200095367806, 363.69866762034474, 363.8153342870114, 363.9320009536781, 364.04866762034476, 364.16533428701143, 364.2820009536781, 364.3986676203448, 364.51533428701146, 364.63200095367813, 364.7486676203448, 364.98200095367815]	2020_Nov_27_1140	59.93232738911751	1	1
6	61	FALSE	NV	v	['N', 'R', 'Y', 'S', 'T', 'G', 'E', 'X', 'P', 'C', 'H', 'K', 'U', 'J', 'Z', 'M']	[1335, 1587, 2670, 1731, 1888, 944, 904, 4000, 1456, 829, 986, 1122, 2059, 1029, 2911, 1224]	8	Present	NA	NA	PRESENT	0.26924920082092285	366.9562859535218	368.9675757884979	369.5511977672577	369.901095867157	373.0858700275421	4.1182942390441895	[366.97752690315247, 367.09383392333984, 368.0781559944153, 368.2452528476715, 369.01253485679626, 369.11273288726807, 369.2294819355011, 369.3463978767395, 369.4631359577179, 369.57989287376404, 369.6967079639435, 369.8134980201721, 369.93026900291443, 370.04703092575073, 370.16389298439026, 370.2806239128113, 370.3973309993744, 370.5143790245056, 370.630982875824, 370.7479808330536, 370.86457681655884, 371.08587098121643]	[366.98200095367815, 367.0986676203448, 368.08166762034483, 368.2483676203448, 368.9983676203448, 369.1150342870115, 369.23170095367817, 369.34836762034485, 369.4650342870115, 369.5817009536782, 369.69836762034487, 369.81503428701154, 369.9317009536782, 370.0483676203449, 370.16503428701157, 370.28170095367824, 370.3983676203449, 370.5150342870116, 370.63170095367826, 370.74836762034494, 370.8650342870116, 371.09836762034496]	2020_Nov_27_1140	59.93232738911751	1	1
6	62	FALSE	NA	v	['E', 'N', 'M', 'Y', 'P', 'J', 'H', 'U', 'T', 'R', 'W', 'V', 'B', 'X', 'Z', 'C']	[904, 1335, 1224, 2670, 1456, 1029, 986, 2059, 1888, 1587, 2448, 2245, 760, 4000, 2911, 829]	14	Present	NA	NA	PRESENT	0.14563512802124023	373.0791358947754	375.0840449333191	376.3673679828644	376.7176938056946	379.2022359371186	4.1181910037994385	[373.1003768444061, 373.2170720100403, 374.2015378475189, 374.3682289123535, 375.1189959049225, 375.2358980178833, 375.3527510166168, 375.46943497657776, 375.5862319469452, 375.7031309604645, 375.8198208808899, 375.9366309642792, 376.0534768104553, 376.1703519821167, 376.28709602355957, 376.40392684936523, 376.5206708908081, 376.63784885406494, 376.75411796569824, 376.8710210323334, 376.9878439903259, 377.20223689079285]	[373.09836762034496, 373.21503428701163, 374.19803428701164, 374.36473428701163, 375.11473428701163, 375.2314009536783, 375.348067620345, 375.46473428701165, 375.5814009536783, 375.698067620345, 375.8147342870117, 375.93140095367835, 376.048067620345, 376.1647342870117, 376.28140095367837, 376.39806762034505, 376.5147342870117, 376.6314009536784, 376.74806762034507, 376.86473428701174, 376.9814009536784, 377.21473428701177]	2020_Nov_27_1140	59.93232738911751	1	1
6	63	FALSE	AA	v	['C', 'M', 'T', 'Z', 'P', 'A', 'B', 'H', 'W', 'U', 'surprise', 'K', 'Y', 'X', 'G', 'S']	[829, 1224, 1888, 2911, 1456, 697, 760, 986, 2448, 2059, 'stimAuditory/all_stimAuditory/110.wav', 1122, 2670, 4000, 944, 1731]	14	Present	stimAuditory/all_stimAuditory/211.wav	stimVisual/all_stimVisual/203.jpg	PRESENT	0.22299814224243164	379.2022798061371	381.200217962265	382.4837508201599	382.8337969779968	385.31860303878784	4.118385076522827	[379.22354388237, 379.3404018878937, 380.30778193473816, 380.4746608734131, 381.2423679828644, 381.3592128753662, 381.4759478569031, 381.5927219390869, 381.70943903923035, 381.82613801956177, 381.94304394721985, 382.0429849624634, 382.1597969532013, 382.27659702301025, 382.41027784347534, 382.51019382476807, 382.6270008087158, 382.7437708377838, 382.8605179786682, 382.977334022522, 383.09427094459534, 383.31860184669495]	[379.21473428701177, 379.33140095367844, 380.31440095367844, 380.48110095367844, 381.23110095367844, 381.3477676203451, 381.4644342870118, 381.58110095367846, 381.69776762034513, 381.8144342870118, 381.9311009536785, 382.04776762034516, 382.16443428701183, 382.2811009536785, 382.3977676203452, 382.51443428701185, 382.6311009536785, 382.7477676203452, 382.8644342870119, 382.98110095367855, 383.0977676203452, 383.3311009536786]	2020_Nov_27_1140	59.93232738911751	1	1
6	64	FALSE	NA	v	['N', 'R', 'K', 'V', 'P', 'G', 'M', 'E', 'T', 'H', 'Z', 'S', 'X', 'A', 'Y', 'W']	[1335, 1587, 1122, 2245, 1456, 944, 1224, 904, 1888, 986, 2911, 1731, 4000, 697, 2670, 2448]	13	Present	NA	NA	PRESENT	0.2915329933166504	385.30857491493225	387.3165018558502	388.4838728904724	388.8334197998047	391.4349699020386	4.1184680461883545	[385.329815864563, 385.4467890262604, 386.43106985092163, 386.5981979370117, 387.3487648963928, 387.46572399139404, 387.58222103118896, 387.6992738246918, 387.8159158229828, 387.93276596069336, 388.0493838787079, 388.1661388874054, 388.28310990333557, 388.3997800350189, 388.51682782173157, 388.6334400177002, 388.75032591819763, 388.86709690093994, 388.9838409423828, 389.1006498336792, 389.21754693984985, 389.4349699020386]	[385.3311009536786, 385.44776762034525, 386.43076762034525, 386.59746762034524, 387.34746762034524, 387.4641342870119, 387.5808009536786, 387.69746762034526, 387.81413428701194, 387.9308009536786, 388.0474676203453, 388.16413428701196, 388.28080095367864, 388.3974676203453, 388.514134287012, 388.63080095367866, 388.74746762034533, 388.864134287012, 388.9808009536787, 389.09746762034536, 389.21413428701203, 389.4474676203454]	2020_Nov_27_1140	59.93232738911751	1	1
6	65	FALSE	NV	v	['A', 'G', 'M', 'C', 'Z', 'J', 'E', 'H', 'P', 'W', 'R', 'Y', 'N', 'X', 'B', 'V']	[697, 944, 1224, 829, 2911, 1029, 904, 986, 1456, 2448, 1587, 2670, 1335, 4000, 760, 2245]	14	Present	NA	NA	PRESENT	0.2570219039916992	391.4319398403168	393.4325919151306	394.71664595603943	395.06659483909607	397.5513370037079	4.1187450885772705	[391.4531819820404, 391.57006096839905, 392.5541830062866, 392.7210998535156, 393.4721169471741, 393.588693857193, 393.70563888549805, 393.82236194610596, 393.939090013504, 394.05600094795227, 394.1725158691406, 394.28951382637024, 394.40630888938904, 394.5230779647827, 394.63984203338623, 394.7565448284149, 394.8734998703003, 394.9902698993683, 395.1070969104767, 395.22393798828125, 395.3238158226013, 395.551335811615]	[391.4474676203454, 391.56413428701205, 392.54713428701206, 392.71383428701205, 393.46383428701205, 393.5805009536787, 393.6971676203454, 393.81383428701207, 393.93050095367875, 394.0471676203454, 394.1638342870121, 394.28050095367877, 394.39716762034544, 394.5138342870121, 394.6305009536788, 394.74716762034546, 394.86383428701214, 394.9805009536788, 395.0971676203455, 395.21383428701216, 395.33050095367884, 395.5638342870122]	2020_Nov_27_1140	59.93232738911751	1	1
6	66	FALSE	NN	v	['J', 'R', 'W', 'K', 'B', 'Z', 'V', 'E', 'A', 'M', 'Y', 'S', 'H', 'G', 'U', 'N']	[1029, 1587, 2448, 1122, 760, 2911, 2245, 904, 697, 1224, 2670, 1731, 986, 944, 2059, 1335]	9	Absent	NA	NA	ABSENT	0.22148799896240232	397.5387239456177	399.549252986908	400.24951696395874	400.5995738506317	403.6677029132843	4.118449926376343	[397.5599648952484, 397.6763370037079, 398.6607370376587, 398.8276159763336, 399.57824897766113, 399.69525504112244, 399.81190299987793, 399.9288170337677, 400.0454909801483, 400.16248893737793, 400.2791528701782, 400.3960180282593, 400.5126519203186, 400.6295988559723, 400.7462680339813, 400.863126039505, 400.97963094711304, 401.0965619087219, 401.21356201171875, 401.3301899433136, 401.4471879005432, 401.66770195961]	[397.5638342870122, 397.68050095367886, 398.66350095367886, 398.83020095367885, 399.58020095367885, 399.69686762034553, 399.8135342870122, 399.9302009536789, 400.04686762034555, 400.1635342870122, 400.2802009536789, 400.3968676203456, 400.51353428701225, 400.6302009536789, 400.7468676203456, 400.86353428701227, 400.98020095367895, 401.0968676203456, 401.2135342870123, 401.33020095367897, 401.44686762034564, 401.680200953679]	2020_Nov_27_1140	59.93232738911751	1	1
6	67	FALSE	NN	v	['K', 'P', 'A', 'Z', 'G', 'V', 'E', 'N', 'J', 'S', 'C', 'W', 'B', 'M', 'Y', 'U']	[1122, 1456, 697, 2911, 944, 2245, 904, 1335, 1029, 1731, 829, 2448, 760, 1224, 2670, 2059]	9	Absent	NA	NA	ABSENT	0.3060009479522705	403.6616458892822	405.66594982147217	406.3659429550171	406.7158098220825	409.7840700149536	4.118120193481445	[403.68288803100586, 403.7997319698334, 404.7839479446411, 404.95070695877075, 405.701534986496, 405.8184769153595, 405.9352538585663, 406.0520508289337, 406.16875886917114, 406.2857139110565, 406.40232491493225, 406.51912093162537, 406.6362760066986, 406.7527639865875, 406.8697428703308, 406.9861710071564, 407.1031279563904, 407.2199409008026, 407.3367350101471, 407.453341960907, 407.5703718662262, 407.7840688228607]	[403.680200953679, 403.79686762034567, 404.77986762034567, 404.94656762034566, 405.69656762034566, 405.81323428701234, 405.929900953679, 406.0465676203457, 406.16323428701236, 406.27990095367903, 406.3965676203457, 406.5132342870124, 406.62990095367905, 406.74656762034573, 406.8632342870124, 406.9799009536791, 407.09656762034575, 407.2132342870124, 407.3299009536791, 407.4465676203458, 407.56323428701245, 407.7965676203458]	2020_Nov_27_1140	59.93232738911751	1	1
6	68	FALSE	NV	v	['K', 'T', 'V', 'E', 'C', 'S', 'M', 'G', 'J', 'P', 'Y', 'U', 'X', 'R', 'Z', 'B']	[1122, 1888, 2245, 904, 829, 1731, 1224, 944, 1029, 1456, 2670, 2059, 4000, 1587, 2911, 760]	13	Present	NA	NA	PRESENT	0.10324597358703612	409.7846608161926	411.7820839881897	412.9487729072571	413.2989149093628	415.90044689178467	4.118362903594971	[409.80590200424194, 409.90592193603516, 410.89034485816956, 411.057256937027, 411.82467103004456, 411.9247348308563, 412.04151797294617, 412.1583218574524, 412.27507281303406, 412.3918888568878, 412.50871181488037, 412.6254999637604, 412.74221897125244, 412.85901498794556, 412.9759488105774, 413.0925190448761, 413.2094190120697, 413.32615089416504, 413.44300985336304, 413.5601530075073, 413.6766908168793, 413.90043687820435]	[409.7965676203458, 409.9132342870125, 410.8962342870125, 411.06293428701247, 411.81293428701247, 411.92960095367914, 412.0462676203458, 412.1629342870125, 412.27960095367916, 412.39626762034584, 412.5129342870125, 412.6296009536792, 412.74626762034586, 412.86293428701254, 412.9796009536792, 413.0962676203459, 413.21293428701256, 413.32960095367923, 413.4462676203459, 413.5629342870126, 413.67960095367926, 413.9129342870126]	2020_Nov_27_1140	59.93232738911751	1	1
6	69	FALSE	NN	v	['B', 'T', 'P', 'E', 'M', 'J', 'S', 'Y', 'R', 'C', 'A', 'U', 'G', 'Z', 'N', 'W']	[760, 1888, 1456, 904, 1224, 1029, 1731, 2670, 1587, 829, 697, 2059, 944, 2911, 1335, 2448]	8	Absent	NA	NA	ABSENT	0.79584503173828125	415.8910398483277	417.8981578350067	418.4820508956909	418.8319959640503	422.01680302619934	4.118645191192627	[415.91228199005127, 416.02926087379456, 417.01387882232666, 417.1804509162903, 417.931165933609, 418.0480959415436, 418.1647608280182, 418.28169298171997, 418.39823484420776, 418.5153110027313, 418.6320300102234, 418.74898195266724, 418.8655369281769, 418.98228883743286, 419.0991590023041, 419.21600699424744, 419.33278703689575, 419.4495120048523, 419.5662798881531, 419.68323588371277, 419.79984188079834, 420.01680397987366]	[415.9129342870126, 416.0296009536793, 417.0126009536793, 417.1793009536793, 417.9293009536793, 418.04596762034595, 418.1626342870126, 418.2793009536793, 418.39596762034597, 418.51263428701265, 418.6293009536793, 418.745967620346, 418.86263428701267, 418.97930095367934, 419.095967620346, 419.2126342870127, 419.32930095367936, 419.44596762034604, 419.5626342870127, 419.6793009536794, 419.79596762034606, 420.0293009536794]	2020_Nov_27_1140	59.93232738911751	1	1
6	70	FALSE	NA	v	['P', 'T', 'Y', 'S', 'V', 'K', 'N', 'W', 'M', 'J', 'G', 'C', 'X', 'U', 'E', 'Z']	[1456, 1888, 2670, 1731, 2245, 1122, 1335, 2448, 1224, 1029, 944, 829, 4000, 2059, 904, 2911]	13	Present	NA	NA	PRESENT	0.4570479393005371	422.01437282562256	424.01447892189026	425.1817438602447	425.53193187713623	428.1331698894501	4.1186909675598145	[422.0356140136719, 422.152459859848, 423.13657093048096, 423.3035578727722, 424.0543918609619, 424.17125701904297, 424.2880139350891, 424.4047269821167, 424.52165389060974, 424.6382339000702, 424.75530982017517, 424.8719108104706, 424.9888598918915, 425.10555601119995, 425.22213196754456, 425.33909583091736, 425.45591497421265, 425.5727779865265, 425.6894009113312, 425.8062319755554, 425.90617203712463, 426.1331708431244]	[422.0293009536794, 422.1459676203461, 423.1289676203461, 423.2956676203461, 424.0456676203461, 424.16233428701275, 424.27900095367943, 424.3956676203461, 424.5123342870128, 424.62900095367945, 424.7456676203461, 424.8623342870128, 424.9790009536795, 425.09566762034615, 425.2123342870128, 425.3290009536795, 425.44566762034617, 425.56233428701285, 425.6790009536795, 425.7956676203462, 425.91233428701287, 426.1456676203462]	2020_Nov_27_1140	59.93232738911751	1	1
6	71	FALSE	NA	v	['M', 'R', 'E', 'B', 'H', 'U', 'J', 'P', 'A', 'W', 'S', 'T', 'K', 'X', 'G', 'C']	[1224, 1587, 904, 760, 986, 2059, 1029, 1456, 697, 2448, 1731, 1888, 1122, 4000, 944, 829]	14	Present	NA	NA	PRESENT	0.2537209987640381	428.12091588974	430.1307909488678	431.4149777889252	431.7647159099579	434.2495369911194	4.118746042251587	[428.1421568393707, 428.2588770389557, 429.24324584007263, 429.41019201278687, 430.1607069969177, 430.2777509689331, 430.3945128917694, 430.51142501831055, 430.62792587280273, 430.7449879646301, 430.8616168498993, 430.9781918525696, 431.0952048301697, 431.21201181411743, 431.3287818431854, 431.4456720352173, 431.56277799606323, 431.6790728569031, 431.79588294029236, 431.9128279685974, 432.0295078754425, 432.2495369911194]	[428.1456676203462, 428.2623342870129, 429.2453342870129, 429.4120342870129, 430.1620342870129, 430.27870095367956, 430.39536762034624, 430.5120342870129, 430.6287009536796, 430.74536762034626, 430.86203428701293, 430.9787009536796, 431.0953676203463, 431.21203428701295, 431.32870095367963, 431.4453676203463, 431.562034287013, 431.67870095367965, 431.7953676203463, 431.912034287013, 432.0287009536797, 432.262034287013]	2020_Nov_27_1140	59.93232738911751	1	1
6	72	FALSE	VN	v	['Z', 'Y', 'N', 'P', 'surprise', 'S', 'U', 'H', 'R', 'M', 'T', 'C', 'G', 'W', 'V', 'A']	[2911, 2670, 1335, 1456, 'stimAuditory/all_stimAuditory/218.wav', 1731, 2059, 986, 1587, 1224, 1888, 829, 944, 2448, 2245, 697]	8	Absent	NA	stimVisual/all_stimVisual/106.jpg	ABSENT	0.1462249755859375	434.24399876594543	436.2472758293152	436.8310649394989	437.18098282814026	440.3659029006958	4.118627071380615	[434.26523995399475, 434.3820810317993, 435.3664028644562, 435.5332338809967, 436.2839720249176, 436.4008958339691, 436.5177240371704, 436.6347680091858, 436.7513129711151, 436.8679928779602, 436.98504996299744, 437.1017768383026, 437.2185130119324, 437.3351068496704, 437.45201587677, 437.5686058998108, 437.6854989528656, 437.8023929595947, 437.91922092437744, 438.03599786758423, 438.1527359485626, 438.36590600013733]	[434.262034287013, 434.3787009536797, 435.3617009536797, 435.5284009536797, 436.2784009536797, 436.39506762034637, 436.51173428701304, 436.6284009536797, 436.7450676203464, 436.86173428701306, 436.97840095367974, 437.0950676203464, 437.2117342870131, 437.32840095367976, 437.44506762034644, 437.5617342870131, 437.6784009536798, 437.79506762034646, 437.91173428701313, 438.0284009536798, 438.1450676203465, 438.37840095367983]	2020_Nov_27_1140	59.93232738911751	1	1
6	73	FALSE	NA	v	['V', 'M', 'R', 'Z', 'A', 'H', 'Y', 'P', 'C', 'E', 'X', 'K', 'B', 'U', 'G', 'S']	[2245, 1224, 1587, 2911, 697, 986, 2670, 1456, 829, 904, 4000, 1122, 760, 2059, 944, 1731]	11	Present	NA	NA	PRESENT	0.1115269660949707	440.3503589630127	442.3635540008545	443.2974009513855	443.6478228569031	446.4822700023651	4.11871600151062	[440.3716130256653, 440.48837780952454, 441.47290301322937, 441.6395859718323, 442.40714287757874, 442.5072720050812, 442.62402987480164, 442.7408058643341, 442.857638835907, 442.974378824234, 443.0912048816681, 443.20793294906616, 443.3247239589691, 443.4415979385376, 443.55836486816406, 443.6750168800354, 443.79191303253174, 443.90882396698, 444.0254809856415, 444.1424238681793, 444.25919699668884, 444.4822688102722]	[440.37840095367983, 440.4950676203465, 441.4780676203465, 441.6447676203465, 442.3947676203465, 442.5114342870132, 442.62810095367985, 442.7447676203465, 442.8614342870132, 442.97810095367987, 443.09476762034654, 443.2114342870132, 443.3281009536799, 443.44476762034657, 443.56143428701324, 443.6781009536799, 443.7947676203466, 443.91143428701326, 444.02810095367994, 444.1447676203466, 444.2614342870133, 444.49476762034664]	2020_Nov_27_1140	59.93232738911751	1	1
6	74	FALSE	NV	v	['W', 'B', 'N', 'H', 'P', 'T', 'E', 'A', 'K', 'M', 'Y', 'R', 'X', 'V', 'Z', 'G']	[2448, 760, 1335, 986, 1456, 1888, 904, 697, 1122, 1224, 2670, 1587, 4000, 2245, 2911, 944]	13	Present	NA	NA	PRESENT	0.2519350051879883	446.4737207889557	448.48018288612366	449.6471428871155	449.9973678588867	452.59863686561584	4.1184539794921875	[446.49497389793396, 446.612016916275, 447.5961468219757, 447.7628288269043, 448.5135488510132, 448.63052892684937, 448.7473039627075, 448.8641119003296, 448.9807939529419, 449.0977020263672, 449.21447801589966, 449.331326007843, 449.4481818675995, 449.5646770000458, 449.6817078590393, 449.79846000671387, 449.91527104377747, 450.0320818424225, 450.1488449573517, 450.2655580043793, 450.38223600387573, 450.5986359119415]	[446.49476762034664, 446.6114342870133, 447.5944342870133, 447.7611342870133, 448.5111342870133, 448.62780095368, 448.74446762034665, 448.86113428701333, 448.97780095368, 449.0944676203467, 449.21113428701335, 449.32780095368, 449.4444676203467, 449.5611342870134, 449.67780095368005, 449.7944676203467, 449.9111342870134, 450.02780095368007, 450.14446762034675, 450.2611342870134, 450.3778009536801, 450.61113428701344]	2020_Nov_27_1140	59.93232738911751	1	1
6	75	FALSE	NA	v	['U', 'R', 'C', 'G', 'P', 'B', 'J', 'N', 'H', 'X', 'M', 'A', 'V', 'W', 'Y', 'Z']	[2059, 1587, 829, 944, 1456, 760, 1029, 1335, 986, 4000, 1224, 697, 2245, 2448, 2670, 2911]	10	Present	NA	NA	PRESENT	0.2329540252685547	452.5969738960266	454.5963068008423	455.4134957790375	455.7634539604187	458.7150039672851	4.118697166442871	[452.61821484565735, 452.73489689826965, 453.71938395500183, 453.8859808444977, 454.6367769241333, 454.75376081466675, 454.8705139160156, 454.9872510433197, 455.1040298938751, 455.22078585624695, 455.3376829624176, 455.4545228481293, 455.571573972702, 455.6879119873047, 455.8046588897705, 455.9217219352722, 456.0383608341217, 456.1549780368805, 456.27192783355713, 456.3887708187103, 456.4887499809265, 456.71500396728516]	[452.61113428701344, 452.7278009536801, 453.7108009536801, 453.8775009536801, 454.6275009536801, 454.7441676203468, 454.86083428701346, 454.97750095368013, 455.0941676203468, 455.2108342870135, 455.32750095368016, 455.44416762034683, 455.5608342870135, 455.6775009536802, 455.79416762034685, 455.91083428701353, 456.0275009536802, 456.1441676203469, 456.26083428701355, 456.3775009536802, 456.4941676203469, 456.72750095368025]	2020_Nov_27_1140	59.93232738911751	1	1
6	76	FALSE	NA	v	['C', 'H', 'U', 'G', 'N', 'Y', 'J', 'X', 'V', 'T', 'E', 'M', 'B', 'Z', 'A', 'S']	[829, 986, 2059, 944, 1335, 2670, 1029, 4000, 2245, 1888, 904, 1224, 760, 2911, 697, 1731]	8	Present	NA	NA	PRESENT	0.18996596336364743	458.7032268047333	460.7126979827881	461.29674077034	461.6472589969635	464.8313698768616	4.118671894073486	[458.7244689464569, 458.8413529396057, 459.82584595680237, 459.9925420284271, 460.7432270050049, 460.8601939678192, 460.97668194770813, 461.0936088562012, 461.2105219364166, 461.327162027359, 461.4440588951111, 461.5607888698578, 461.6776440143585, 461.7945148944855, 461.9112389087677, 462.0281009674072, 462.1449308395386, 462.261656999588, 462.3785979747772, 462.49520897865295, 462.6121139526367, 462.8313698768616]	[458.72750095368025, 458.8441676203469, 459.8271676203469, 459.9938676203469, 460.7438676203469, 460.8605342870136, 460.97720095368027, 461.09386762034694, 461.2105342870136, 461.3272009536803, 461.44386762034696, 461.56053428701364, 461.6772009536803, 461.793867620347, 461.91053428701366, 462.02720095368034, 462.143867620347, 462.2605342870137, 462.37720095368036, 462.49386762034703, 462.6105342870137, 462.84386762034705]	2020_Nov_27_1140	59.93232738911751	1	1
6	77	FALSE	NA	v	['V', 'N', 'B', 'G', 'P', 'U', 'A', 'E', 'Z', 'X', 'R', 'S', 'M', 'H', 'J', 'K']	[2245, 1335, 760, 944, 1456, 2059, 697, 904, 2911, 4000, 1587, 1731, 1224, 986, 1029, 1122]	10	Present	NA	NA	PRESENT	0.13054800033569336	464.8264689445496	466.829256772995	467.6463589668274	467.9966309070587	470.9477369785309	4.118480205535889	[464.8477108478546, 464.96463203430176, 465.9489209651947, 466.1159110069275, 466.8667109012604, 466.9832799434662, 467.1001558303833, 467.2169258594513, 467.3336718082428, 467.450541973114, 467.56729793548584, 467.6841769218445, 467.800940990448, 467.9176309108734, 468.03453397750854, 468.15121698379517, 468.26797103881836, 468.38488698005676, 468.5017189979553, 468.6184039115906, 468.7351460456848, 468.9477369785309]	[464.84386762034705, 464.96053428701373, 465.94353428701373, 466.1102342870137, 466.8602342870137, 466.9769009536804, 467.0935676203471, 467.21023428701375, 467.3269009536804, 467.4435676203471, 467.56023428701377, 467.67690095368044, 467.7935676203471, 467.9102342870138, 468.02690095368047, 468.14356762034714, 468.2602342870138, 468.3769009536805, 468.49356762034716, 468.61023428701384, 468.7269009536805, 468.96023428701386]	2020_Nov_27_1140	59.93232738911751	1	1
6	78	FALSE	NV	v	['Y', 'C', 'Z', 'M', 'R', 'V', 'K', 'G', 'A', 'P', 'J', 'B', 'N', 'X', 'W', 'U']	[2670, 829, 2911, 1224, 1587, 2245, 1122, 944, 697, 1456, 1029, 760, 1335, 4000, 2448, 2059]	14	Present	NA	NA	PRESENT	0.1836528778076172	470.93280577659607	472.945515871048	474.22928380966187	474.5794417858124	477.064101934433	4.11858606338501	[470.95404601097107, 471.0708818435669, 472.0554950237274, 472.2222189903259, 472.9896459579468, 473.0896849632263, 473.20651292800903, 473.32322883605957, 473.4400918483734, 473.55693888664246, 473.6736648082733, 473.7906279563904, 473.90723991394043, 474.02420592308044, 474.14082503318787, 474.2578148841858, 474.37449193000793, 474.49136185646057, 474.6079978942871, 474.7249028682709, 474.8417339324951, 475.0641038417816]	[470.96023428701386, 471.07690095368054, 472.05990095368054, 472.22660095368053, 472.97660095368053, 473.0932676203472, 473.2099342870139, 473.32660095368055, 473.4432676203472, 473.5599342870139, 473.6766009536806, 473.79326762034725, 473.9099342870139, 474.0266009536806, 474.1432676203473, 474.25993428701395, 474.3766009536806, 474.4932676203473, 474.60993428701397, 474.72660095368065, 474.8432676203473, 475.07660095368067]	2020_Nov_27_1140	59.93232738911751	1	1
6	79	FALSE	NV	v	['E', 'A', 'T', 'Y', 'W', 'P', 'V', 'X', 'H', 'U', 'B', 'C', 'Z', 'N', 'J', 'M']	[904, 697, 1888, 2670, 2448, 1456, 2245, 4000, 986, 2059, 760, 829, 2911, 1335, 1029, 1224]	8	Present	NA	NA	PRESENT	0.5483181476593018	477.0564157962799	479.0617938041687	479.64599680900574	479.99558877944946	483.1804699897766	4.11867618560791	[477.07765793800354, 477.1942608356476, 478.1784598827362, 478.34537386894226, 479.0960738658905, 479.2130868434906, 479.3298559188843, 479.4466848373413, 479.5633428096771, 479.68019700050354, 479.7970018386841, 479.9138159751892, 480.03057193756104, 480.1473798751831, 480.2641339302063, 480.38097500801086, 480.4976978302002, 480.6144058704376, 480.7313768863678, 480.8480529785156, 480.9647488594055, 481.1804709434509]	[477.07660095368067, 477.19326762034734, 478.17626762034735, 478.34296762034734, 479.09296762034734, 479.209634287014, 479.3263009536807, 479.44296762034736, 479.55963428701403, 479.6763009536807, 479.7929676203474, 479.90963428701406, 480.02630095368073, 480.1429676203474, 480.2596342870141, 480.37630095368075, 480.49296762034743, 480.6096342870141, 480.7263009536808, 480.84296762034745, 480.9596342870141, 481.1929676203475]	2020_Nov_27_1140	59.93232738911751	1	1
