participant	trial_num	practice	task	condition	RSVP	RAP	probePos	probe_presence	surprise_sound	surprise_img	probe_response	probe_resp_time	first_fixation_time	trial_start_time	surprise_start_time	probe_start_time	trial_end_time	trial_duration	actualEventTimes	plannedEventTimes	date	framerate	marker_vol	RAP_vol
6	1	FALSE	NA	a	['M', 'T', 'U', 'S', 'Z', 'P', 'Y', 'W', 'E', 'X', 'H', 'V', 'R', 'K', 'B', 'N']	[1224, 1888, 2059, 1731, 2911, 1456, 2670, 2448, 904, 4000, 986, 2245, 1587, 1122, 760, 1335]	10	Present	NA	NA	PRESENT	0.28899598121643066	3.0994415283203125e-6	1.9873669147491455	2.8040435949494675	3.15404574069668	6.103869915008545	4.116503000259399	[0.022480010986328125, 0.1224069595336914, 1.0871961116790771, 1.2733831405639648, 2.0242040157318115, 2.1413049697875977, 2.25805401802063, 2.3745739459991455, 2.491472005844116, 2.6082351207733154, 2.7250640392303467, 2.8417489528656006, 2.9418439865112305, 3.058561086654663, 3.1754379272460938, 3.2922370433807373, 3.4089670181274414, 3.5258381366729736, 3.642620086669922, 3.759310007095337, 3.8931639194488525, 4.103869915008545]	[1.9073486328125e-06, 0.11666857400863281, 1.0996685740086327, 1.2663685740086328, 2.0163685740086326, 2.1330352406686326, 2.2497019073286326, 2.3663685739886327, 2.4830352406486327, 2.5997019073086327, 2.7163685739686327, 2.8330352406286328, 2.949701907288633, 3.066368573948633, 3.183035240608633, 3.299701907268633, 3.416368573928633, 3.533035240588633, 3.649701907248633, 3.766368573908633, 3.883035240568633, 4.116368573901966]	2020_Nov_27_1119	59.91794379492806	1	0.375
6	2	FALSE	NA	a	['W', 'Z', 'Y', 'H', 'V', 'N', 'K', 'P', 'G', 'R', 'A', 'M', 'S', 'X', 'C', 'J']	[2448, 2911, 2670, 986, 2245, 1335, 1122, 1456, 944, 1587, 697, 1224, 1731, 4000, 829, 1029]	14	Present	NA	NA	PRESENT	0.34119319915771484	6.089656114578247	8.100475072860718	9.383816273933828	9.73381841968104	12.220237970352173	4.119762897491455	[6.112133979797363, 6.228752136230469, 7.203562021255493, 7.380151987075806, 8.130849123001099, 8.247694969177246, 8.364382982254028, 8.481230974197388, 8.598105907440186, 8.7149019241333, 8.831713914871216, 8.948413133621216, 9.065113067626953, 9.18197512626648, 9.298660039901733, 9.41566801071167, 9.532660961151123, 9.649210929870605, 9.765852928161621, 9.882843971252441, 9.999510049819946, 10.220237016677856]	[6.116368573901966, 6.233035240561966, 7.216035240561966, 7.382735240561965, 8.132735240561965, 8.249401907221966, 8.366068573881966, 8.482735240541967, 8.599401907201967, 8.716068573861968, 8.832735240521968, 8.949401907181969, 9.066068573841969, 9.18273524050197, 9.29940190716197, 9.41606857382197, 9.532735240481971, 9.649401907141971, 9.766068573801972, 9.882735240461972, 9.999401907121973, 10.232735240455305]	2020_Nov_27_1119	59.91794379492806	1	0.375
6	3	FALSE	NV	a	['A', 'P', 'B', 'E', 'N', 'Y', 'J', 'W', 'R', 'X', 'S', 'C', 'H', 'U', 'Z', 'G']	[697, 1456, 760, 904, 1335, 2670, 1029, 2448, 1587, 4000, 1731, 829, 986, 2059, 2911, 944]	10	Present	NA	NA	PRESENT	0.44188714027404785	12.212739944458008	14.21699595451355	15.033669773690924	15.383671681019557	18.336604118347168	4.119608163833618	[12.235217094421387, 12.35208010673523, 13.319930076599121, 13.50316596031189, 14.254035949707031, 14.370919942855835, 14.487559080123901, 14.604480981826782, 14.721489906311035, 14.838091135025024, 14.954747915267944, 15.071749925613403, 15.188483953475952, 15.305191040039062, 15.422060012817383, 15.538887023925781, 15.65565299987793, 15.772481918334961, 15.889157056808472, 16.005990982055664, 16.12280297279358, 16.336602926254272]	[12.232735240455305, 12.349401907115306, 13.332401907115306, 13.499101907115307, 14.249101907115307, 14.365768573775307, 14.482435240435308, 14.599101907095308, 14.715768573755309, 14.83243524041531, 14.94910190707531, 15.06576857373531, 15.18243524039531, 15.299101907055311, 15.415768573715312, 15.532435240375312, 15.649101907035313, 15.765768573695313, 15.882435240355314, 15.999101907015314, 16.115768573675314, 16.34910190700865]	2020_Nov_27_1119	59.91794379492806	1	0.375
6	4	FALSE	NV	a	['V', 'B', 'G', 'K', 'S', 'U', 'E', 'X', 'P', 'H', 'J', 'W', 'Z', 'R', 'Y', 'T']	[2245, 760, 944, 1122, 1731, 2059, 904, 4000, 1456, 986, 1029, 2448, 2911, 1587, 2670, 1888]	8	Present	NA	NA	PRESENT	1.3431620597839355	18.33612895011902	20.333205938339233	20.916547377870923	21.266549285199556	24.452970027923584	4.119764089584351	[18.358607053756714, 18.458488941192627, 19.436291933059692, 19.609936952590942, 20.360454082489014, 20.47749400138855, 20.59420609474182, 20.710983991622925, 20.827898025512695, 20.944546937942505, 21.061424016952515, 21.178157091140747, 21.294835090637207, 21.411799907684326, 21.528626918792725, 21.64546012878418, 21.76215696334839, 21.878859996795654, 21.99564003944397, 22.1125910282135, 22.22930908203125, 22.452970027923584]	[18.34910190700865, 18.465768573668647, 19.448768573668648, 19.615468573668647, 20.365468573668647, 20.482135240328645, 20.598801906988644, 20.715468573648643, 20.83213524030864, 20.94880190696864, 21.06546857362864, 21.182135240288638, 21.298801906948636, 21.415468573608635, 21.532135240268634, 21.648801906928632, 21.76546857358863, 21.88213524024863, 21.99880190690863, 22.115468573568627, 22.232135240228626, 22.46546857356196]	2020_Nov_27_1119	59.91794379492806	1	0.375
6	5	FALSE	NA	a	['C', 'Z', 'G', 'W', 'Y', 'P', 'M', 'X', 'N', 'V', 'J', 'S', 'B', 'K', 'E', 'T']	[829, 2911, 944, 2448, 2670, 1456, 1224, 4000, 1335, 2245, 1029, 1731, 760, 1122, 904, 1888]	8	Present	NA	NA	PRESENT	0.46779894828796387	24.4426109790802	26.44963502883911	27.032975276277902	27.382977422025117	30.569337129592896	4.119702100753784	[24.465089082717896, 24.581785917282104, 25.552662134170532, 25.732988119125366, 26.483704090118408, 26.60070013999939, 26.7175509929657, 26.834289073944092, 26.951157093048096, 27.0680091381073, 27.184711933135986, 27.30147910118103, 27.418153047561646, 27.535057067871094, 27.651843070983887, 27.76859211921692, 27.88528800010681, 28.002334117889404, 28.119061946868896, 28.23573112487793, 28.352538108825684, 28.569338083267212]	[24.46546857356196, 24.58213524022196, 25.56513524022196, 25.731835240221958, 26.481835240221958, 26.598501906881957, 26.715168573541956, 26.831835240201954, 26.948501906861953, 27.06516857352195, 27.18183524018195, 27.29850190684195, 27.415168573501948, 27.531835240161946, 27.648501906821945, 27.765168573481944, 27.881835240141942, 27.99850190680194, 28.11516857346194, 28.23183524012194, 28.348501906781937, 28.58183524011527]	2020_Nov_27_1119	59.91794379492806	1	0.375
6	6	FALSE	VV	a	['M', 'H', 'T', 'C', 'surprise', 'Y', 'A', 'X', 'P', 'R', 'N', 'W', 'S', 'U', 'J', 'E']	[1224, 986, 1888, 829, 'stimAuditory/all_stimAuditory/222.wav', 2670, 697, 4000, 1456, 1587, 1335, 2448, 1731, 2059, 1029, 904]	8	Present	NA	NA	PRESENT	0.8329389095306396	30.566128969192505	32.56604194641113	33.14938338594282	33.49938529327145	36.68570399284363	4.119662046432495	[30.588606119155884, 30.705196142196655, 31.66902804374695, 31.85647201538086, 32.6071720123291, 32.707054138183594, 32.82385802268982, 32.94074010848999, 33.05745792388916, 33.17424511909485, 33.29112696647644, 33.40780210494995, 33.52461099624634, 33.64140009880066, 33.75810694694519, 33.87518501281738, 33.99180006980896, 34.10874009132385, 34.22554111480713, 34.342286109924316, 34.4591281414032, 34.68570303916931]	[30.58183524011527, 30.69850190677527, 31.68150190677527, 31.84820190677527, 32.59820190677527, 32.714868573435275, 32.83153524009528, 32.94820190675528, 33.06486857341528, 33.181535240075284, 33.29820190673529, 33.41486857339529, 33.53153524005529, 33.64820190671529, 33.764868573375296, 33.8815352400353, 33.9982019066953, 34.1148685733553, 34.231535240015305, 34.34820190667531, 34.46486857333531, 34.69820190666864]	2020_Nov_27_1119	59.91794379492806	1	0.375
6	7	FALSE	NA	a	['J', 'R', 'M', 'W', 'C', 'P', 'T', 'X', 'B', 'K', 'A', 'U', 'S', 'Y', 'N', 'H']	[1029, 1587, 1224, 2448, 829, 1456, 1888, 4000, 760, 1122, 697, 2059, 1731, 2670, 1335, 986]	8	Present	NA	NA	PRESENT	0.30152201652526855	36.67248010635376	38.68236494064331	39.265706380175	39.61570828750363	42.80207014083862	4.1197052001953125	[36.69495701789856, 36.81171011924744, 37.785393953323364, 37.96288013458252, 38.713606119155884, 38.830501079559326, 38.94718408584595, 39.06420397758484, 39.18093013763428, 39.297850131988525, 39.41442394256592, 39.53126096725464, 39.647977113723755, 39.76477313041687, 39.88160991668701, 39.99837613105774, 40.11516714096069, 40.231950998306274, 40.3487389087677, 40.46597504615784, 40.582380056381226, 40.80207109451294]	[36.69820190666864, 36.814868573328646, 37.79786857332864, 37.96456857332864, 38.71456857332864, 38.831235239988644, 38.947901906648646, 39.06456857330865, 39.18123523996865, 39.29790190662865, 39.414568573288655, 39.53123523994866, 39.64790190660866, 39.76456857326866, 39.881235239928664, 39.997901906588666, 40.11456857324867, 40.23123523990867, 40.34790190656867, 40.464568573228675, 40.58123523988868, 40.81456857322201]	2020_Nov_27_1119	59.91794379492806	1	0.375
6	8	FALSE	NA	a	['U', 'R', 'Y', 'T', 'J', 'P', 'W', 'K', 'X', 'V', 'C', 'G', 'E', 'A', 'B', 'S']	[2059, 1587, 2670, 1888, 1029, 1456, 2448, 1122, 4000, 2245, 829, 944, 904, 697, 760, 1731]	9	Present	NA	NA	PRESENT	0.954138994216919	42.79564809799194	44.798656940460205	45.498665046651894	45.848666953980526	48.91843795776367	4.119781017303467	[42.81812596321106, 42.93496108055115, 43.901758909225464, 44.08605408668518, 44.836735010147095, 44.953701972961426, 45.070642948150635, 45.187302112579346, 45.3042631149292, 45.421026945114136, 45.537750005722046, 45.65431499481201, 45.771286964416504, 45.88815093040466, 46.004770040512085, 46.121527910232544, 46.238483905792236, 46.3552610874176, 46.47226905822754, 46.58875799179077, 46.70553708076477, 46.91843795776367]	[42.81456857322201, 42.931235239882014, 43.91423523988201, 44.08093523988201, 44.83093523988201, 44.94760190654201, 45.064268573202014, 45.180935239862016, 45.29760190652202, 45.41426857318202, 45.53093523984202, 45.647601906502025, 45.76426857316203, 45.88093523982203, 45.99760190648203, 46.114268573142034, 46.23093523980204, 46.34760190646204, 46.46426857312204, 46.58093523978204, 46.697601906442046, 46.93093523977538]	2020_Nov_27_1119	59.91794379492806	1	0.375
6	9	FALSE	NV	a	['R', 'A', 'C', 'Y', 'P', 'E', 'U', 'W', 'S', 'V', 'X', 'K', 'N', 'G', 'H', 'B']	[1587, 697, 829, 2670, 1456, 904, 2059, 2448, 1731, 2245, 4000, 1122, 1335, 944, 986, 760]	11	Present	NA	NA	PRESENT	0.6394147872924805	48.90202713012695	50.91493201255798	51.848272259976774	52.19827440572399	55.03480291366577	4.119870901107788	[48.92450499534607, 49.04133701324463, 50.018129110336304, 50.19260597229004, 50.9435510635376, 51.060362100601196, 51.17708206176758, 51.293992042541504, 51.41050696372986, 51.527514934539795, 51.644169092178345, 51.761085987091064, 51.87773299217224, 51.994385957717896, 52.11124610900879, 52.22827100753784, 52.34488105773926, 52.4615740776062, 52.57854890823364, 52.6954140663147, 52.81208300590515, 53.03480410575867]	[48.93093523977538, 49.04760190643538, 50.03060190643538, 50.19730190643538, 50.94730190643538, 51.06396857309538, 51.18063523975538, 51.297301906415385, 51.41396857307539, 51.53063523973539, 51.64730190639539, 51.763968573055394, 51.880635239715396, 51.9973019063754, 52.1139685730354, 52.2306352396954, 52.347301906355405, 52.46396857301541, 52.58063523967541, 52.69730190633541, 52.813968572995414, 53.04730190632875]	2020_Nov_27_1119	59.91794379492806	1	0.375
6	10	FALSE	NN	a	['M', 'K', 'H', 'C', 'W', 'R', 'T', 'U', 'S', 'G', 'B', 'P', 'Z', 'N', 'Y', 'J']	[1224, 1122, 986, 829, 2448, 1587, 1888, 2059, 1731, 944, 760, 1456, 2911, 1335, 2670, 1029]	10	Absent	NA	NA	ABSENT	1.4918298721313477	55.025404930114746	57.03151512145996	57.84818965589307	58.19819180164029	61.15117001533508	4.119654893875122	[55.047882080078125, 55.16470813751221, 56.13449692726135, 56.31580710411072, 57.06661796569824, 57.18337392807007, 57.30023407936096, 57.417113065719604, 57.5338339805603, 57.65080404281616, 57.76753807067871, 57.88419008255005, 58.0010199546814, 58.11793804168701, 58.234559059143066, 58.35131502151489, 58.46846413612366, 58.58494997024536, 58.70188498497009, 58.818516969680786, 58.93532395362854, 59.15117001533508]	[55.04730190632875, 55.16396857298875, 56.14696857298875, 56.313668572988746, 57.063668572988746, 57.18033523964875, 57.29700190630875, 57.41366857296875, 57.530335239628755, 57.64700190628876, 57.76366857294876, 57.88033523960876, 57.997001906268764, 58.113668572928766, 58.23033523958877, 58.34700190624877, 58.46366857290877, 58.580335239568775, 58.69700190622878, 58.81366857288878, 58.93033523954878, 59.163668572882116]	2020_Nov_27_1119	59.91794379492806	1	0.375
6	11	FALSE	AV	a	['Y', 'U', 'S', 'B', 'surprise', 'G', 'J', 'X', 'Z', 'K', 'P', 'T', 'R', 'V', 'C', 'E']	[2670, 2059, 1731, 760, 'stimAuditory/all_stimAuditory/124.wav', 944, 1029, 4000, 2911, 1122, 1456, 1888, 1587, 2245, 829, 904]	8	Present	stimAuditory/all_stimAuditory/222.wav	NA	PRESENT	0.29718708992004395	61.14874196052551	63.14781212806702	63.73115332918013	64.08115523650876	67.26753807067871	4.119725942611694	[61.17122006416321, 61.287802934646606, 62.25086307525635, 62.422346115112305, 63.1899049282074, 63.29005002975464, 63.4067759513855, 63.523550033569336, 63.64028191566467, 63.75726890563965, 63.8739550113678, 63.9907910823822, 64.1076979637146, 64.2244701385498, 64.34103202819824, 64.45782113075256, 64.57463693618774, 64.69158291816711, 64.80823111534119, 64.92505598068237, 65.04183197021484, 65.26753807067871]	[61.163668572882116, 61.28033523954212, 62.263335239542116, 62.430035239542114, 63.180035239542114, 63.29670190620212, 63.41336857286212, 63.53003523952212, 63.64670190618212, 63.763368572842126, 63.88003523950213, 63.99670190616213, 64.11336857282213, 64.23003523948212, 64.34670190614212, 64.46336857280211, 64.5800352394621, 64.6967019061221, 64.8133685727821, 64.93003523944209, 65.04670190610209, 65.28003523943542]	2020_Nov_27_1119	59.91794379492806	1	0.375
6	12	FALSE	NA	a	['R', 'V', 'A', 'U', 'P', 'S', 'M', 'J', 'C', 'Y', 'N', 'H', 'X', 'K', 'W', 'B']	[1587, 2245, 697, 2059, 1456, 1731, 1224, 1029, 829, 2670, 1335, 986, 4000, 1122, 2448, 760]	13	Present	NA	NA	PRESENT	0.7338190078735352	67.25524592399597	69.26428699493408	70.43096057567287	70.78096272142008	73.38390398025513	4.119616985321045	[67.27772307395935, 67.39427709579468, 68.36722898483276, 68.54550695419312, 69.29642105102539, 69.41334700584412, 69.52999210357666, 69.64688396453857, 69.76357793807983, 69.88056707382202, 69.99714612960815, 70.11404490470886, 70.23085594177246, 70.34772992134094, 70.46493601799011, 70.58106803894043, 70.69806814193726, 70.81473803520203, 70.93160390853882, 71.04847598075867, 71.16517806053162, 71.38390398025513]	[67.28003523943542, 67.39670190609542, 68.37970190609542, 68.54640190609543, 69.29640190609543, 69.41306857275542, 69.52973523941542, 69.64640190607541, 69.7630685727354, 69.8797352393954, 69.9964019060554, 70.11306857271539, 70.22973523937539, 70.34640190603538, 70.46306857269538, 70.57973523935537, 70.69640190601537, 70.81306857267536, 70.92973523933536, 71.04640190599535, 71.16306857265535, 71.39640190598868]	2020_Nov_27_1119	59.91794379492806	1	0.375
6	13	FALSE	NA	a	['C', 'E', 'T', 'R', 'J', 'S', 'G', 'N', 'V', 'U', 'X', 'M', 'W', 'H', 'P', 'K']	[829, 904, 1888, 1587, 1029, 1731, 944, 1335, 2245, 2059, 4000, 1224, 2448, 986, 1456, 1122]	11	Present	NA	NA	PRESENT	0.62735915184021	73.37851691246033	75.38048005104065	76.31382029845945	76.66382244420666	79.50027012825012	4.119790077209473	[73.4009940624237, 73.51782202720642, 74.48359704017639, 74.66906905174255, 75.41968512535095, 75.53647994995117, 75.65337014198303, 75.7700400352478, 75.88702011108398, 76.00374603271484, 76.12056612968445, 76.23722195625305, 76.35417795181274, 76.47131395339966, 76.5877730846405, 76.7043719291687, 76.82124209403992, 76.93799805641174, 77.05488610267639, 77.15466904640198, 77.27151894569397, 77.50027012825012]	[73.39640190598868, 73.51306857264868, 74.49606857264868, 74.66276857264869, 75.41276857264869, 75.52943523930868, 75.64610190596868, 75.76276857262867, 75.87943523928867, 75.99610190594866, 76.11276857260866, 76.22943523926865, 76.34610190592865, 76.46276857258864, 76.57943523924864, 76.69610190590863, 76.81276857256863, 76.92943523922862, 77.04610190588862, 77.16276857254861, 77.27943523920861, 77.51276857254194]	2020_Nov_27_1119	59.91794379492806	1	0.375
6	14	FALSE	VA	a	['G', 'U', 'H', 'W', 'Z', 'M', 'J', 'N', 'R', 'K', 'surprise', 'E', 'A', 'X', 'C', 'T']	[944, 2059, 986, 2448, 2911, 1224, 1029, 1335, 1587, 1122, 'stimAuditory/all_stimAuditory/111.wav', 904, 697, 4000, 829, 1888]	14	Present	NA	NA	PRESENT	0.7195088863372803	79.48483800888062	81.49695992469788	82.78030041051525	83.13030231784388	85.61663699150085	4.1196770668029785	[79.50731611251831, 79.62413311004639, 80.59996008872986, 80.77576804161072, 81.52625608444214, 81.64309310913086, 81.7598979473114, 81.87677311897278, 81.9933500289917, 82.11007905006409, 82.22700500488281, 82.34387493133545, 82.46058297157288, 82.57748198509216, 82.69425511360168, 82.81100511550903, 82.92772912979126, 83.04456496238708, 83.16128897666931, 83.278165102005, 83.39497804641724, 83.61663794517517]	[79.51276857254194, 79.62943523920194, 80.61243523920194, 80.77913523920195, 81.52913523920195, 81.64580190586194, 81.76246857252194, 81.87913523918193, 81.99580190584193, 82.11246857250192, 82.22913523916192, 82.34580190582192, 82.46246857248191, 82.5791352391419, 82.6958019058019, 82.8124685724619, 82.92913523912189, 83.04580190578189, 83.16246857244188, 83.27913523910188, 83.39580190576187, 83.6291352390952]	2020_Nov_27_1119	59.91794379492806	1	0.375
6	15	FALSE	NN	a	['C', 'R', 'V', 'S', 'P', 'W', 'M', 'T', 'Z', 'E', 'N', 'U', 'B', 'G', 'J', 'A']	[829, 1587, 2245, 1731, 1456, 2448, 1224, 1888, 2911, 904, 1335, 2059, 760, 944, 1029, 697]	13	Absent	NA	NA	ABSENT	0.42026209831237793	85.60813498497009	87.61326193809509	88.77993671092678	89.12993861825541	91.73300409317017	4.119742155075073	[85.63061094284058, 85.74753212928772, 86.71632790565491, 86.89885401725769, 87.64947199821472, 87.76614713668823, 87.88312005996704, 88.0000729560852, 88.11681294441223, 88.23350501060486, 88.35026502609253, 88.4672200679779, 88.58376693725586, 88.7004930973053, 88.8173201084137, 88.93419003486633, 89.05117893218994, 89.16767907142639, 89.2846839427948, 89.40134906768799, 89.51809906959534, 89.73300409317017]	[85.6291352390952, 85.7458019057552, 86.7288019057552, 86.89550190575521, 87.64550190575521, 87.7621685724152, 87.8788352390752, 87.9955019057352, 88.11216857239519, 88.22883523905519, 88.34550190571518, 88.46216857237518, 88.57883523903517, 88.69550190569517, 88.81216857235516, 88.92883523901516, 89.04550190567515, 89.16216857233515, 89.27883523899514, 89.39550190565514, 89.51216857231513, 89.74550190564847]	2020_Nov_27_1119	59.91794379492806	1	0.375
6	16	FALSE	NN	a	['K', 'A', 'G', 'C', 'Z', 'S', 'T', 'V', 'E', 'Y', 'U', 'J', 'H', 'P', 'B', 'R']	[1122, 697, 944, 829, 2911, 1731, 1888, 2245, 904, 2670, 2059, 1029, 986, 1456, 760, 1587]	11	Absent	NA	NA	ABSENT	0.2814350128173828	91.73182201385498	93.72950410842896	94.66284530952208	95.01284745526928	97.8493709564209	4.119866847991943	[91.75429892539978, 91.87068390846252, 92.83269500732422, 93.00506806373596, 93.77265691757202, 93.87293910980225, 93.98954010009766, 94.1065080165863, 94.22314405441284, 94.34004712104797, 94.4569160938263, 94.57364010810852, 94.69034004211426, 94.80721402168274, 94.92390894889832, 95.04085993766785, 95.15759491920471, 95.27447009086609, 95.39105296134949, 95.50784611701965, 95.62478995323181, 95.8493709564209]	[91.74550190564847, 91.86216857230846, 92.84516857230847, 93.01186857230847, 93.76186857230847, 93.87853523896847, 93.99520190562846, 94.11186857228846, 94.22853523894845, 94.34520190560845, 94.46186857226844, 94.57853523892844, 94.69520190558843, 94.81186857224843, 94.92853523890842, 95.04520190556842, 95.16186857222841, 95.27853523888841, 95.3952019055484, 95.5118685722084, 95.6285352388684, 95.86186857220173]	2020_Nov_27_1119	59.91794379492806	1	0.375
6	17	FALSE	AA	a	['C', 'Y', 'P', 'J', 'R', 'V', 'surprise', 'H', 'U', 'X', 'A', 'N', 'K', 'S', 'W', 'T']	[829, 2670, 1456, 1029, 1587, 2245, 'stimAuditory/all_stimAuditory/213.wav', 986, 2059, 4000, 697, 1335, 1122, 1731, 2448, 1888]	10	Present	stimAuditory/all_stimAuditory/124.wav	NA	ABSENT	0.16609621047973633	97.83777093887328	99.84599590301514	100.66267067586682	101.01267258319544	103.96574711799622	4.119751214981079	[97.86024713516235, 97.97725200653076, 98.94906497001648, 99.1284749507904, 99.87919592857361, 99.99604201316833, 100.1129219532013, 100.22966003417969, 100.34640693664551, 100.46322512626648, 100.58007311820984, 100.69697594642639, 100.81374406814575, 100.93054699897766, 101.04726696014404, 101.16412305831909, 101.28098106384277, 101.39755511283875, 101.51478791236877, 101.63108897209167, 101.74796891212463, 101.96573805809021]	[97.86186857220173, 97.97853523886172, 98.96153523886173, 99.12823523886173, 99.87823523886173, 99.99490190552173, 100.11156857218172, 100.22823523884172, 100.34490190550171, 100.46156857216171, 100.5782352388217, 100.6949019054817, 100.8115685721417, 100.92823523880169, 101.04490190546169, 101.16156857212168, 101.27823523878168, 101.39490190544167, 101.51156857210167, 101.62823523876166, 101.74490190542166, 101.97823523875499]	2020_Nov_27_1119	59.91794379492806	1	0.375
6	18	FALSE	NV	a	['Y', 'J', 'G', 'R', 'W', 'T', 'S', 'C', 'U', 'E', 'X', 'A', 'N', 'M', 'B', 'V']	[2670, 1029, 944, 1587, 2448, 1888, 1731, 829, 2059, 904, 4000, 697, 1335, 1224, 760, 2245]	11	Present	NA	NA	PRESENT	0.9635858535766602	103.96116209030151	105.9625289440155	106.8958703835272	107.24587229085584	110.08210396766664	4.119575023651123	[103.98363995552063, 104.10050392150879, 105.06542897224426, 105.2517900466919, 106.00249004364014, 106.11916899681091, 106.23606395721436, 106.35283493995667, 106.47007203102112, 106.58656001091003, 106.70320510864258, 106.80324506759644, 106.91997909545898, 107.03682494163513, 107.15364694595337, 107.27042412757874, 107.38722395896912, 107.50403714179993, 107.62084913253784, 107.73762607574463, 107.85436797142029, 108.08210301399231]	[103.97823523875499, 104.09490190541499, 105.07790190541499, 105.244601905415, 105.994601905415, 106.11126857207499, 106.22793523873499, 106.34460190539498, 106.46126857205498, 106.57793523871497, 106.69460190537497, 106.81126857203496, 106.92793523869496, 107.04460190535495, 107.16126857201495, 107.27793523867494, 107.39460190533494, 107.51126857199493, 107.62793523865493, 107.74460190531492, 107.86126857197492, 108.09460190530825]	2020_Nov_27_1119	59.91794379492806	1	0.375
6	19	FALSE	NA	a	['H', 'V', 'T', 'W', 'Z', 'J', 'C', 'P', 'R', 'S', 'M', 'G', 'A', 'X', 'K', 'U']	[986, 2245, 1888, 2448, 2911, 1029, 829, 1456, 1587, 1731, 1224, 944, 697, 4000, 1122, 2059]	14	Present	NA	NA	PRESENT	0.2718989849090576	110.06792092323305	112.0787229537964	113.36206343961376	113.7120653469424	116.19847106933594	4.119748115539551	[110.09040212631226, 110.20705604553223, 111.18179702758789, 111.35841608047485, 112.10940194129944, 112.22597193717957, 112.34261894226074, 112.45952296257019, 112.57621812820435, 112.69315505027771, 112.80985808372498, 112.92676591873169, 113.04338002204895, 113.16019105911255, 113.27705001831055, 113.3938479423523, 113.51068091392517, 113.6274299621582, 113.74425506591797, 113.86110591888428, 113.97807097434998, 114.19847106933594]	[110.09460190530825, 110.21126857196825, 111.19426857196825, 111.36096857196826, 112.11096857196826, 112.22763523862825, 112.34430190528825, 112.46096857194824, 112.57763523860824, 112.69430190526823, 112.81096857192823, 112.92763523858822, 113.04430190524822, 113.16096857190821, 113.27763523856821, 113.3943019052282, 113.5109685718882, 113.6276352385482, 113.74430190520819, 113.86096857186818, 113.97763523852818, 114.21096857186151]	2020_Nov_27_1119	59.91794379492806	1	0.375
6	20	FALSE	NA	a	['G', 'Y', 'C', 'B', 'M', 'S', 'H', 'U', 'N', 'A', 'K', 'J', 'W', 'X', 'R', 'E']	[944, 2670, 829, 760, 1224, 1731, 986, 2059, 1335, 697, 1122, 1029, 2448, 4000, 1587, 904]	14	Present	NA	NA	PRESENT	0.3486349582672119	116.19104504585266	118.1950330734253	119.4783742744984	119.82837642024562	122.31483697891235	4.1198039054870605	[116.21352291107178, 116.33034205436707, 117.29816007614136, 117.48153591156006, 118.23225712776184, 118.34908294677734, 118.46612000465393, 118.58279013633728, 118.6996099948883, 118.81613206863403, 118.9330780506134, 119.0498309135437, 119.16669511795044, 119.28338193893433, 119.40016603469849, 119.51702499389648, 119.63401293754578, 119.750648021698, 119.86749505996704, 119.98467993736267, 120.10090708732605, 120.31483793258667]	[116.21096857186151, 116.32763523852151, 117.31063523852151, 117.47733523852152, 118.22733523852152, 118.34400190518151, 118.46066857184151, 118.5773352385015, 118.6940019051615, 118.8106685718215, 118.92733523848149, 119.04400190514149, 119.16066857180148, 119.27733523846148, 119.39400190512147, 119.51066857178147, 119.62733523844146, 119.74400190510146, 119.86066857176145, 119.97733523842145, 120.09400190508144, 120.32733523841478]	2020_Nov_27_1119	59.91794379492806	1	0.375
6	21	FALSE	NV	a	['V', 'G', 'A', 'E', 'Z', 'C', 'N', 'S', 'B', 'P', 'T', 'Y', 'J', 'X', 'M', 'H']	[2245, 944, 697, 904, 2911, 829, 1335, 1731, 760, 1456, 1888, 2670, 1029, 4000, 1224, 986]	14	Present	NA	NA	PRESENT	0.6418778896331787	122.31463694572447	124.31150412559508	125.5948453266682	125.94484723399684	128.4312040805817	4.119699954986572	[122.33711409568787, 122.43666911125183, 123.4145290851593, 123.5880880355835, 124.33872509002686, 124.45576190948486, 124.57235193252563, 124.6893379688263, 124.80595397949219, 124.92287492752075, 125.03955006599426, 125.156485080719, 125.27321600914001, 125.38994407653809, 125.50683498382568, 125.6236789226532, 125.7403130531311, 125.85712099075317, 125.97388505935669, 126.09067797660828, 126.20768094062805, 126.43120408058167]	[122.32733523841478, 122.44400190507477, 123.42700190507477, 123.59370190507478, 124.34370190507478, 124.46036857173478, 124.57703523839477, 124.69370190505477, 124.81036857171476, 124.92703523837476, 125.04370190503475, 125.16036857169475, 125.27703523835474, 125.39370190501474, 125.51036857167473, 125.62703523833473, 125.74370190499472, 125.86036857165472, 125.97703523831471, 126.09370190497471, 126.2103685716347, 126.44370190496804]	2020_Nov_27_1119	59.91794379492806	1	0.375
6	22	FALSE	NA	a	['W', 'A', 'E', 'Y', 'J', 'H', 'G', 'S', 'T', 'V', 'X', 'U', 'B', 'C', 'M', 'Z']	[2448, 697, 904, 2670, 1029, 986, 944, 1731, 1888, 2245, 4000, 2059, 760, 829, 1224, 2911]	11	Present	NA	NA	PRESENT	0.310391902923584	128.42071795463562	130.4278221130371	131.36116426780453	131.71116641355175	134.54756999015808	4.119747877120972	[128.44319605827332, 128.5602240562439, 129.53089714050293, 129.71123600006104, 130.46193408966064, 130.57898998260498, 130.6957700252533, 130.81243991851807, 130.92932510375977, 131.0460090637207, 131.16284799575806, 131.2797930240631, 131.3965549468994, 131.51344895362854, 131.63016891479492, 131.7468180656433, 131.8636829853058, 131.98067212104797, 132.09734296798706, 132.21405696868896, 132.33090209960938, 132.54756999015808]	[128.44370190496804, 128.56036857162803, 129.54336857162804, 129.71006857162803, 130.46006857162803, 130.57673523828802, 130.69340190494802, 130.810068571608, 130.926735238268, 131.043401904928, 131.160068571588, 131.276735238248, 131.393401904908, 131.51006857156798, 131.62673523822798, 131.74340190488797, 131.86006857154797, 131.97673523820797, 132.09340190486796, 132.21006857152796, 132.32673523818795, 132.56006857152127]	2020_Nov_27_1119	59.91794379492806	1	0.375
6	23	FALSE	NN	a	['W', 'E', 'Z', 'J', 'N', 'H', 'S', 'K', 'M', 'B', 'T', 'A', 'C', 'G', 'P', 'Y']	[2448, 904, 2911, 1029, 1335, 986, 1731, 1122, 1224, 760, 1888, 697, 829, 944, 1456, 2670]	12	Absent	NA	NA	ABSENT	0.1154649257659912	134.54401993751526	136.54411792755127	137.59412603372297	137.9441279410516	140.6639380455017	4.1198201179504395	[134.56649804115295, 134.68324303627014, 135.64726090431213, 135.83453106880188, 136.5853979587555, 136.68535614013672, 136.80213499069214, 136.91894912719727, 137.0356469154358, 137.15254712104797, 137.26923203468323, 137.38605308532715, 137.50285601615906, 137.61969900131226, 137.73646306991577, 137.85339307785034, 137.9701111316681, 138.08683609962463, 138.20379114151, 138.32044196128845, 138.4373550415039, 138.66393899917603]	[134.56006857152127, 134.67673523818127, 135.65973523818127, 135.82643523818126, 136.57643523818126, 136.69310190484126, 136.80976857150125, 136.92643523816125, 137.04310190482124, 137.15976857148124, 137.27643523814123, 137.39310190480123, 137.50976857146122, 137.62643523812122, 137.7431019047812, 137.8597685714412, 137.9764352381012, 138.0931019047612, 138.2097685714212, 138.3264352380812, 138.44310190474118, 138.6764352380745]	2020_Nov_27_1119	59.91794379492806	1	0.375
6	24	FALSE	NN	a	['J', 'G', 'S', 'N', 'V', 'W', 'B', 'R', 'Y', 'H', 'C', 'A', 'Z', 'U', 'T', 'K']	[1029, 944, 1731, 1335, 2245, 2448, 760, 1587, 2670, 986, 829, 697, 2911, 2059, 1888, 1122]	14	Absent	NA	NA	ABSENT	0.3521730899810791	140.65077590942383	142.66071891784668	143.94406035733837	144.29406131099267	146.78030395507812	4.119585037231445	[140.6732530593872, 140.78993105888367, 141.76362895965576, 141.94129300117493, 142.691880941391, 142.80866599082947, 142.9253900051117, 143.0422670841217, 143.15901708602905, 143.2757420539856, 143.39263892173767, 143.5095500946045, 143.62627291679382, 143.74288201332092, 143.85988092422485, 143.97663712501526, 144.09357810020447, 144.2102451324463, 144.32710695266724, 144.44392704963684, 144.56052708625793, 144.7803030014038]	[140.6764352380745, 140.7931019047345, 141.7761019047345, 141.9428019047345, 142.6928019047345, 142.8094685713945, 142.92613523805448, 143.04280190471448, 143.15946857137448, 143.27613523803447, 143.39280190469447, 143.50946857135446, 143.62613523801446, 143.74280190467445, 143.85946857133445, 143.97613523799444, 144.09280190465444, 144.20946857131443, 144.32613523797443, 144.44280190463442, 144.55946857129442, 144.79280190462774]	2020_Nov_27_1119	59.91794379492806	1	0.375
6	25	FALSE	NA	a	['H', 'W', 'Y', 'J', 'Z', 'M', 'P', 'K', 'N', 'T', 'X', 'G', 'A', 'C', 'U', 'S']	[986, 2448, 2670, 1029, 2911, 1224, 1456, 1122, 1335, 1888, 4000, 944, 697, 829, 2059, 1731]	11	Present	NA	NA	PRESENT	0.5726079940795898	146.77395701408386	148.77680897712708	149.71014946296444	150.06015137029308	152.89667105674744	4.119862079620361	[146.79643392562866, 146.91321897506714, 147.87999606132507, 148.06429409980774, 148.81527400016785, 148.93196892738342, 149.04874801635742, 149.16548705101013, 149.28244495391846, 149.39913606643677, 149.51596808433533, 149.63276290893555, 149.7495539188385, 149.86628603935242, 149.98309302330017, 150.09982109069824, 150.21655702590942, 150.33367013931274, 150.45024299621582, 150.5669651031494, 150.6839361190796, 150.89667010307312]	[146.79280190462774, 146.90946857128773, 147.89246857128774, 148.05916857128773, 148.80916857128773, 148.92583523794772, 149.04250190460772, 149.1591685712677, 149.2758352379277, 149.3925019045877, 149.5091685712477, 149.6258352379077, 149.7425019045677, 149.85916857122768, 149.97583523788768, 150.09250190454767, 150.20916857120767, 150.32583523786766, 150.44250190452766, 150.55916857118766, 150.67583523784765, 150.90916857118097]	2020_Nov_27_1119	59.91794379492806	1	0.375
6	26	FALSE	NN	a	['M', 'P', 'V', 'Z', 'R', 'J', 'H', 'T', 'B', 'W', 'K', 'U', 'S', 'G', 'N', 'E']	[1224, 1456, 2245, 2911, 1587, 1029, 986, 1888, 760, 2448, 1122, 2059, 1731, 944, 1335, 904]	12	Absent	NA	NA	ABSENT	0.5459561347961426	152.88033604621887	154.89334893226624	155.94335608476362	156.29335799209224	159.01303696632385	4.119688034057617	[152.90281295776367, 153.01964902877808, 153.99636101722717, 154.1708390712738, 154.92160201072693, 155.03853511810303, 155.15537190437317, 155.27197909355164, 155.38879895210266, 155.50566697120667, 155.6224091053009, 155.73906707763672, 155.85605192184448, 155.9729299545288, 156.08966708183289, 156.20635294914246, 156.32323813438416, 156.4400610923767, 156.55684304237366, 156.6736660003662, 156.790461063385, 157.01303791999817]	[152.90916857118097, 153.02583523784097, 154.00883523784097, 154.17553523784096, 154.92553523784096, 155.04220190450096, 155.15886857116095, 155.27553523782095, 155.39220190448094, 155.50886857114094, 155.62553523780093, 155.74220190446093, 155.85886857112092, 155.97553523778092, 156.0922019044409, 156.2088685711009, 156.3255352377609, 156.4422019044209, 156.5588685710809, 156.6755352377409, 156.79220190440088, 157.0255352377342]	2020_Nov_27_1119	59.91794379492806	1	0.375
6	27	FALSE	AV	a	['C', 'T', 'V', 'W', 'U', 'Z', 'R', 'E', 'H', 'S', 'surprise', 'A', 'Y', 'X', 'B', 'G']	[829, 1888, 2245, 2448, 2059, 2911, 1587, 904, 986, 1731, 'stimAuditory/all_stimAuditory/101.wav', 697, 2670, 4000, 760, 944]	14	Present	stimAuditory/all_stimAuditory/111.wav	NA	PRESENT	0.30261898040771484	159.0036220550537	161.0096309185028	162.29297140432018	162.64297426532312	165.12940311431885	4.11977219581604	[159.02610111236572, 159.1428360939026, 160.11273002624512, 160.2941870689392, 161.04497909545898, 161.16163992881775, 161.27868008613586, 161.39540004730225, 161.51240611076355, 161.62894701957703, 161.74569511413574, 161.86239314079285, 161.97934699058533, 162.0959279537201, 162.21285390853882, 162.3296709060669, 162.44650602340698, 162.5632140636444, 162.68019199371338, 162.7968671321869, 162.9136860370636, 163.12940311431885]	[159.0255352377342, 159.1422019043942, 160.1252019043942, 160.2919019043942, 161.0419019043942, 161.1585685710542, 161.27523523771418, 161.39190190437418, 161.50856857103417, 161.62523523769417, 161.74190190435417, 161.85856857101416, 161.97523523767416, 162.09190190433415, 162.20856857099415, 162.32523523765414, 162.44190190431414, 162.55856857097413, 162.67523523763413, 162.79190190429412, 162.90856857095412, 163.14190190428744]	2020_Nov_27_1119	59.91794379492806	1	0.375
6	28	FALSE	NV	a	['Y', 'A', 'B', 'W', 'V', 'Z', 'T', 'X', 'S', 'G', 'H', 'J', 'C', 'N', 'P', 'R']	[2670, 697, 760, 2448, 2245, 2911, 1888, 4000, 1731, 944, 986, 1029, 829, 1335, 1456, 1587]	8	Present	NA	NA	PRESENT	0.5558040142059326	165.1269199848175	167.1259160041809	167.7092574437126	168.05925935104122	171.24576997756958	4.119853973388672	[165.14939904212952, 165.26616406440735, 166.22909593582153, 166.40054392814636, 167.16813611984253, 167.26818299293518, 167.38492012023926, 167.50177693367004, 167.61856293678284, 167.73531794548035, 167.8521831035614, 167.96889996528625, 168.0857219696045, 168.20243501663208, 168.31929206848145, 168.43620491027832, 168.5529420375824, 168.66984295845032, 168.78656911849976, 168.90347504615784, 169.02028703689575, 169.24576997756958]	[165.14190190428744, 165.25856857094743, 166.24156857094744, 166.40826857094743, 167.15826857094743, 167.27493523760742, 167.39160190426742, 167.5082685709274, 167.6249352375874, 167.7416019042474, 167.8582685709074, 167.9749352375674, 168.0916019042274, 168.20826857088738, 168.32493523754738, 168.44160190420737, 168.55826857086737, 168.67493523752736, 168.79160190418736, 168.90826857084735, 169.02493523750735, 169.25826857084067]	2020_Nov_27_1119	59.91794379492806	1	0.375
6	29	FALSE	NV	a	['M', 'B', 'J', 'W', 'Y', 'R', 'N', 'E', 'G', 'K', 'A', 'S', 'T', 'X', 'U', 'V']	[1224, 760, 1029, 2448, 2670, 1587, 1335, 904, 944, 1122, 697, 1731, 1888, 4000, 2059, 2245]	14	Present	NA	NA	PRESENT	0.26459193229675293	171.23335194587708	173.2423610687256	174.5257022697987	174.8757044155459	177.3621370792389	4.119776010513306	[171.25583004951477, 171.37275004386902, 172.34546303749084, 172.5242259502411, 173.27467608451843, 173.39157390594482, 173.5083611011505, 173.62502002716064, 173.74192309379578, 173.85850310325623, 173.97539901733398, 174.09240293502808, 174.20908093452454, 174.32593297958374, 174.44276595115662, 174.55938506126404, 174.67638206481934, 174.79294896125793, 174.90991306304932, 175.02683305740356, 175.1434030532837, 175.3621370792389]	[171.25826857084067, 171.37493523750067, 172.35793523750067, 172.52463523750066, 173.27463523750066, 173.39130190416066, 173.50796857082065, 173.62463523748065, 173.74130190414064, 173.85796857080064, 173.97463523746063, 174.09130190412063, 174.20796857078062, 174.32463523744062, 174.4413019041006, 174.5579685707606, 174.6746352374206, 174.7913019040806, 174.9079685707406, 175.0246352374006, 175.14130190406058, 175.3746352373939]	2020_Nov_27_1119	59.91794379492806	1	0.375
6	30	FALSE	NN	a	['S', 'E', 'J', 'N', 'P', 'H', 'B', 'V', 'Y', 'C', 'T', 'G', 'W', 'Z', 'R', 'K']	[1731, 904, 1029, 1335, 1456, 986, 760, 2245, 2670, 829, 1888, 944, 2448, 2911, 1587, 1122]	13	Absent	NA	NA	ABSENT	0.14984798431396484	177.35658812522888	179.3588011264801	180.5254747072189	180.87547661454752	183.4785039424896	4.1197028160095215	[177.379065990448, 177.49593901634216, 178.46183013916016, 178.6472339630127, 179.39800810813904, 179.5146689414978, 179.6316339969635, 179.74835395812988, 179.86528706550598, 179.98180603981018, 180.09875893592834, 180.21540808677673, 180.3321409225464, 180.44901609420776, 180.56573796272278, 180.68266010284424, 180.7995479106903, 180.91630697250366, 181.03301811218262, 181.15003490447998, 181.24977612495422, 181.47850394248962]	[177.3746352373939, 177.4913019040539, 178.4743019040539, 178.6410019040539, 179.3910019040539, 179.5076685707139, 179.62433523737388, 179.74100190403388, 179.85766857069387, 179.97433523735387, 180.09100190401386, 180.20766857067386, 180.32433523733386, 180.44100190399385, 180.55766857065385, 180.67433523731384, 180.79100190397384, 180.90766857063383, 181.02433523729383, 181.14100190395382, 181.25766857061382, 181.49100190394714]	2020_Nov_27_1119	59.91794379492806	1	0.375
6	31	FALSE	NN	a	['S', 'V', 'M', 'A', 'Y', 'K', 'N', 'U', 'T', 'R', 'B', 'E', 'G', 'W', 'J', 'P']	[1731, 2245, 1224, 697, 2670, 1122, 1335, 2059, 1888, 1587, 760, 904, 944, 2448, 1029, 1456]	10	Absent	NA	NA	ABSENT	0.3222079277038574	183.463387966156	185.47522497177124	186.29190069829724	186.6419026056259	189.59487009048465	4.119645118713379	[183.48586511611938, 183.60262799263, 184.5781970024109, 184.75364708900452, 185.50441098213196, 185.6211941242218, 185.73803400993347, 185.8550181388855, 185.97164511680603, 186.08837795257568, 186.2052869796753, 186.32208704948425, 186.43890404701233, 186.5556719303131, 186.67248702049255, 186.78930711746216, 186.90608501434326, 187.02270698547363, 187.1396930217743, 187.2563660144806, 187.37315702438354, 187.59487009048462]	[183.49100190394714, 183.60766857060713, 184.59066857060714, 184.75736857060713, 185.50736857060713, 185.62403523726712, 185.74070190392712, 185.8573685705871, 185.9740352372471, 186.0907019039071, 186.2073685705671, 186.3240352372271, 186.4407019038871, 186.55736857054708, 186.67403523720708, 186.79070190386707, 186.90736857052707, 187.02403523718706, 187.14070190384706, 187.25736857050705, 187.37403523716705, 187.60736857050037]	2020_Nov_27_1119	59.91794379492806	1	0.375
6	32	FALSE	NN	a	['W', 'N', 'J', 'B', 'Z', 'Y', 'H', 'S', 'A', 'G', 'P', 'T', 'E', 'M', 'U', 'R']	[2448, 1335, 1029, 760, 2911, 2670, 986, 1731, 697, 944, 1456, 1888, 904, 1224, 2059, 1587]	12	Absent	NA	NA	ABSENT	0.4870750904083252	189.5864291191101	191.5914409160614	192.6414490222331	192.99145092956172	195.71123790740967	4.119796991348267	[189.60890698432922, 189.72582697868347, 190.694561958313, 190.87694692611694, 191.627779006958, 191.7447109222412, 191.8613419532776, 191.9781551361084, 192.09487009048462, 192.21164798736572, 192.32835698127747, 192.44531393051147, 192.56210112571716, 192.67887091636658, 192.7957010269165, 192.91248297691345, 193.02933597564697, 193.14599990844727, 193.26298904418945, 193.37965512275696, 193.4966881275177, 193.71123695373535]	[189.60736857050037, 189.72403523716036, 190.70703523716037, 190.87373523716036, 191.62373523716036, 191.74040190382036, 191.85706857048035, 191.97373523714035, 192.09040190380034, 192.20706857046034, 192.32373523712033, 192.44040190378033, 192.55706857044032, 192.67373523710032, 192.7904019037603, 192.9070685704203, 193.0237352370803, 193.1404019037403, 193.2570685704003, 193.3737352370603, 193.49040190372028, 193.7237352370536]	2020_Nov_27_1119	59.91794379492806	1	0.375
6	33	FALSE	NV	a	['K', 'P', 'A', 'N', 'B', 'M', 'R', 'U', 'W', 'Y', 'Z', 'X', 'G', 'S', 'H', 'J']	[1122, 1456, 697, 1335, 760, 1224, 1587, 2059, 2448, 2670, 2911, 4000, 944, 1731, 986, 1029]	12	Present	NA	NA	PRESENT	0.8760600090026855	195.7097990512848	197.70787906646729	198.7578859805461	199.1078881262933	201.82760405540463	4.119724988937378	[195.7322759628296, 195.84906601905823, 196.81092810630798, 196.98338198661804, 197.75096607208252, 197.8512089252472, 197.96781301498413, 198.08473992347717, 198.20145511627197, 198.3183629512787, 198.43505001068115, 198.55170702934265, 198.6686029434204, 198.78533911705017, 198.9022979736328, 199.01888394355774, 199.13585805892944, 199.25249004364014, 199.36944103240967, 199.48631405830383, 199.6030011177063, 199.82760310173035]	[195.7237352370536, 195.8404019037136, 196.8234019037136, 196.9901019037136, 197.7401019037136, 197.8567685703736, 197.97343523703358, 198.09010190369358, 198.20676857035357, 198.32343523701357, 198.44010190367356, 198.55676857033356, 198.67343523699356, 198.79010190365355, 198.90676857031355, 199.02343523697354, 199.14010190363354, 199.25676857029353, 199.37343523695353, 199.49010190361352, 199.60676857027352, 199.84010190360684]	2020_Nov_27_1119	59.91794379492806	1	0.375
6	34	FALSE	NN	a	['N', 'H', 'W', 'R', 'E', 'P', 'A', 'V', 'G', 'B', 'U', 'T', 'S', 'K', 'C', 'Z']	[1335, 986, 2448, 1587, 904, 1456, 697, 2245, 944, 760, 2059, 1888, 1731, 1122, 829, 2911]	14	Absent	NA	NA	ABSENT	0.45650792121887207	201.81621098518372	203.82417798042297	205.10751941991467	205.45752132724328	207.9439709186554	4.119792938232422	[201.8386890888214, 201.9556360244751, 202.92729306221008, 203.10672807693481, 203.85783791542053, 203.9744701385498, 204.09118795394897, 204.20780611038208, 204.32485103607178, 204.4413709640503, 204.55837202072144, 204.67525792121887, 204.79192900657654, 204.90860390663147, 205.02546906471252, 205.14218711853027, 205.25886797904968, 205.37574410438538, 205.49270606040955, 205.60946893692017, 205.7262361049652, 205.9439709186554]	[201.84010190360684, 201.95676857026683, 202.93976857026684, 203.10646857026683, 203.85646857026683, 203.97313523692682, 204.08980190358682, 204.2064685702468, 204.3231352369068, 204.4398019035668, 204.5564685702268, 204.6731352368868, 204.7898019035468, 204.90646857020678, 205.02313523686678, 205.13980190352677, 205.25646857018677, 205.37313523684676, 205.48980190350676, 205.60646857016675, 205.72313523682675, 205.95646857016007]	2020_Nov_27_1119	59.91794379492806	1	0.375
6	35	FALSE	NN	a	['W', 'U', 'M', 'B', 'Z', 'E', 'A', 'J', 'S', 'P', 'H', 'Y', 'V', 'T', 'G', 'R']	[2448, 2059, 1224, 760, 2911, 904, 697, 1029, 1731, 1456, 986, 2670, 2245, 1888, 944, 1587]	10	Absent	NA	NA	ABSENT	0.15811896324157715	207.93955898284912	209.94056296348572	210.7572377363374	211.10723964366605	214.0603370666504	4.119774103164673	[207.96203708648682, 208.0787661075592, 209.04366207122803, 209.23002696037292, 209.9807209968567, 210.09754705429077, 210.2144911289215, 210.33106803894043, 210.44798111915588, 210.56474614143372, 210.68158197402954, 210.79840111732483, 210.89835000038147, 211.01511812210083, 211.13194108009338, 211.24864292144775, 211.36537313461304, 211.48222303390503, 211.59903001785278, 211.71581292152405, 211.83259797096252, 212.06033897399902]	[207.95646857016007, 208.07313523682006, 209.05613523682007, 209.22283523682006, 209.97283523682006, 210.08950190348006, 210.20616857014005, 210.32283523680005, 210.43950190346004, 210.55616857012004, 210.67283523678003, 210.78950190344003, 210.90616857010002, 211.02283523676002, 211.13950190342, 211.25616857008, 211.37283523674, 211.4895019034, 211.60616857006, 211.72283523672, 211.83950190337998, 212.0728352367133]	2020_Nov_27_1119	59.91794379492806	1	0.375
6	36	FALSE	NA	a	['S', 'T', 'K', 'E', 'G', 'N', 'V', 'U', 'H', 'Y', 'A', 'C', 'X', 'W', 'B', 'M']	[1731, 1888, 1122, 904, 944, 1335, 2245, 2059, 986, 2670, 697, 829, 4000, 2448, 760, 1224]	13	Present	NA	NA	PRESENT	0.32254600524902344	214.04629111289975	216.0570831298828	217.2237567106216	217.57375861795023	220.1767029762268	4.119619846343994	[214.0687699317932, 214.18540811538696, 215.16002798080444, 215.33660292625427, 216.08727407455444, 216.20422101020813, 216.32108306884766, 216.4377520084381, 216.55456113815308, 216.67113208770752, 216.78813004493713, 216.90479803085327, 217.02176594734192, 217.13839507102966, 217.25521802902222, 217.37187504768372, 217.4889829158783, 217.6055769920349, 217.72244095802307, 217.8391330242157, 217.95604610443115, 218.17670392990112]	[214.0728352367133, 214.1895019033733, 215.1725019033733, 215.3392019033733, 216.0892019033733, 216.2058685700333, 216.32253523669328, 216.43920190335328, 216.55586857001327, 216.67253523667327, 216.78920190333326, 216.90586856999326, 217.02253523665325, 217.13920190331325, 217.25586856997325, 217.37253523663324, 217.48920190329324, 217.60586856995323, 217.72253523661323, 217.83920190327322, 217.95586856993322, 218.18920190326654]	2020_Nov_27_1119	59.91794379492806	1	0.375
6	37	FALSE	NA	a	['J', 'Y', 'W', 'U', 'T', 'M', 'E', 'S', 'C', 'B', 'X', 'K', 'R', 'P', 'V', 'H']	[1029, 2670, 2448, 2059, 1888, 1224, 904, 1731, 829, 760, 4000, 1122, 1587, 1456, 2245, 986]	11	Present	NA	NA	PRESENT	0.2552170753479004	220.1693019866943	222.17323803901672	223.10657924010985	223.45658233953137	226.29307103157043	4.119832992553711	[220.19178009033203, 220.30859208106995, 221.27639293670654, 221.4598479270935, 222.21060395240784, 222.3272840976715, 222.44416403770447, 222.56085991859436, 222.67789697647095, 222.79453992843628, 222.91149306297302, 223.02815413475037, 223.14508605003357, 223.26179099082947, 223.3785560131073, 223.49563193321228, 223.6120719909668, 223.72896099090576, 223.8458230495453, 223.96251010894775, 224.07926511764526, 224.29307007789612]	[220.18920190326654, 220.30586856992653, 221.28886856992654, 221.45556856992653, 222.20556856992653, 222.32223523658652, 222.43890190324652, 222.5555685699065, 222.6722352365665, 222.7889019032265, 222.9055685698865, 223.0222352365465, 223.1389019032065, 223.25556856986648, 223.37223523652648, 223.48890190318647, 223.60556856984647, 223.72223523650646, 223.83890190316646, 223.95556856982645, 224.07223523648645, 224.30556856981977]	2020_Nov_27_1119	59.91794379492806	1	0.375
6	38	FALSE	NN	a	['T', 'R', 'S', 'A', 'P', 'C', 'B', 'K', 'V', 'E', 'W', 'M', 'Z', 'U', 'J', 'N']	[1888, 1587, 1731, 697, 1456, 829, 760, 1122, 2245, 904, 2448, 1224, 2911, 2059, 1029, 1335]	11	Absent	NA	NA	ABSENT	0.532397985458374	226.29266500473025	228.28974103927612	229.2230812866949	229.57308343244213	232.40943813323975	4.119697093963623	[226.31514191627502, 226.41495895385742, 227.39276099205017, 227.56623196601868, 228.31694197654724, 228.433776140213, 228.55067896842957, 228.66757106781006, 228.78420901298523, 228.90115594863892, 229.01789093017578, 229.13457202911377, 229.25154900550842, 229.36810994148254, 229.48515105247498, 229.60174798965454, 229.7187819480896, 229.8354549407959, 229.95224499702454, 230.06889009475708, 230.1858320236206, 230.40943694114685]	[226.30556856981977, 226.42223523647976, 227.40523523647977, 227.57193523647976, 228.32193523647976, 228.43860190313976, 228.55526856979975, 228.67193523645975, 228.78860190311974, 228.90526856977974, 229.02193523643973, 229.13860190309973, 229.25526856975972, 229.37193523641972, 229.4886019030797, 229.6052685697397, 229.7219352363997, 229.8386019030597, 229.9552685697197, 230.0719352363797, 230.18860190303968, 230.421935236373]	2020_Nov_27_1119	59.91794379492806	1	0.375
6	39	FALSE	NV	a	['Y', 'J', 'H', 'P', 'R', 'V', 'C', 'U', 'S', 'A', 'X', 'N', 'K', 'Z', 'W', 'M']	[2670, 1029, 986, 1456, 1587, 2245, 829, 2059, 1731, 697, 4000, 1335, 1122, 2911, 2448, 1224]	11	Present	NA	NA	PRESENT	0.2648940086364746	232.3990819454193	234.40601897239685	235.33936041190853	235.6893623192372	238.52580404281616	4.1197850704193115	[232.421560049057, 232.53846907615662, 233.5091290473938, 233.68990898132324, 234.44029211997986, 234.55729508399963, 234.67402410507202, 234.79066801071167, 234.90766096115112, 235.0243101119995, 235.14108109474182, 235.25795912742615, 235.3747169971466, 235.49149894714355, 235.60819101333618, 235.72513914108276, 235.84187293052673, 235.95883011817932, 236.07546710968018, 236.19218611717224, 236.30896306037903, 236.52580308914185]	[232.421935236373, 232.538601903033, 233.521601903033, 233.688301903033, 234.438301903033, 234.554968569693, 234.67163523635298, 234.78830190301298, 234.90496856967297, 235.02163523633297, 235.13830190299296, 235.25496856965296, 235.37163523631295, 235.48830190297295, 235.60496856963294, 235.72163523629294, 235.83830190295294, 235.95496856961293, 236.07163523627293, 236.18830190293292, 236.30496856959292, 236.53830190292624]	2020_Nov_27_1119	59.91794379492806	1	0.375
6	40	FALSE	NV	a	['S', 'Z', 'E', 'N', 'V', 'W', 'P', 'H', 'A', 'K', 'Y', 'B', 'M', 'X', 'R', 'C']	[1731, 2911, 904, 1335, 2245, 2448, 1456, 986, 697, 1122, 2670, 760, 1224, 4000, 1587, 829]	14	Present	NA	NA	PRESENT	0.2782309055328369	238.52237391471863	240.5225291252136	241.8058703262867	242.15587223361536	244.64216995239255	4.119640827178955	[238.54485201835632, 238.66169691085815, 239.62549591064453, 239.81290292739868, 240.56360912322998, 240.66354203224182, 240.7803339958191, 240.89713597297668, 241.01396799087524, 241.13070392608643, 241.24759602546692, 241.3643651008606, 241.4811670780182, 241.59789490699768, 241.71472597122192, 241.83163905143738, 241.94823002815247, 242.06530809402466, 242.18190503120422, 242.2987289428711, 242.41567301750183, 242.6421709060669]	[238.53830190292624, 238.65496856958623, 239.63796856958623, 239.80466856958623, 240.55466856958623, 240.67133523624622, 240.78800190290622, 240.9046685695662, 241.0213352362262, 241.1380019028862, 241.2546685695462, 241.3713352362062, 241.4880019028662, 241.60466856952618, 241.72133523618618, 241.83800190284617, 241.95466856950617, 242.07133523616616, 242.18800190282616, 242.30466856948615, 242.42133523614615, 242.65466856947947]	2020_Nov_27_1119	59.91794379492806	1	0.375
6	41	FALSE	NN	a	['B', 'H', 'W', 'V', 'U', 'N', 'E', 'G', 'A', 'M', 'T', 'K', 'P', 'J', 'Y', 'R']	[760, 986, 2448, 2245, 2059, 1335, 904, 944, 697, 1224, 1888, 1122, 1456, 1029, 2670, 1587]	14	Absent	NA	NA	ABSENT	0.25882506370544434	244.62908411026	246.63874793052673	247.9220884163441	248.27209032367273	250.7585380077362	4.119790077209473	[244.65156197547913, 244.7681851387024, 245.74186205863953, 245.91946601867676, 246.67009496688843, 246.78698110580444, 246.90377497673035, 247.02044010162354, 247.1374111175537, 247.2540419101715, 247.37095308303833, 247.48772311210632, 247.60440707206726, 247.72126412391663, 247.83795404434204, 247.95481300354004, 248.07183814048767, 248.1883819103241, 248.30514407157898, 248.42196702957153, 248.53893208503723, 248.7585380077362]	[244.65466856947947, 244.77133523613946, 245.75433523613947, 245.92103523613946, 246.67103523613946, 246.78770190279945, 246.90436856945945, 247.02103523611945, 247.13770190277944, 247.25436856943944, 247.37103523609943, 247.48770190275943, 247.60436856941942, 247.72103523607942, 247.8377019027394, 247.9543685693994, 248.0710352360594, 248.1877019027194, 248.3043685693794, 248.4210352360394, 248.53770190269938, 248.7710352360327]	2020_Nov_27_1119	59.91794379492806	1	0.375
6	42	FALSE	NV	a	['K', 'R', 'J', 'Y', 'Z', 'N', 'W', 'H', 'P', 'C', 'X', 'E', 'M', 'T', 'V', 'A']	[1122, 1587, 1029, 2670, 2911, 1335, 2448, 986, 1456, 829, 4000, 904, 1224, 1888, 2245, 697]	11	Present	NA	NA	PRESENT	0.55954909324646	250.75219011306763	252.75513195991516	253.68847339942684	254.0384762604298	256.8749029636383	4.1197710037231445	[250.77466702461243, 250.89141511917114, 251.85822796821594, 252.04271697998047, 252.79342794418335, 252.9102759361267, 253.02693891525269, 253.1438910961151, 253.260675907135, 253.37728190422058, 253.4940891265869, 253.61094999313354, 253.72790908813477, 253.84470510482788, 253.96135091781616, 254.078360080719, 254.19501495361328, 254.31174397468567, 254.42846512794495, 254.54564690589905, 254.6620810031891, 254.8749029636383]	[250.7710352360327, 250.8877019026927, 251.8707019026927, 252.0374019026927, 252.7874019026927, 252.9040685693527, 253.02073523601268, 253.13740190267268, 253.25406856933267, 253.37073523599267, 253.48740190265266, 253.60406856931266, 253.72073523597265, 253.83740190263265, 253.95406856929264, 254.07073523595264, 254.18740190261263, 254.30406856927263, 254.42073523593263, 254.53740190259262, 254.65406856925262, 254.88740190258594]	2020_Nov_27_1119	59.91794379492806	1	0.375
6	43	FALSE	NV	a	['J', 'P', 'Z', 'U', 'H', 'Y', 'G', 'S', 'R', 'M', 'N', 'B', 'X', 'V', 'A', 'E']	[1029, 1456, 2911, 2059, 986, 2670, 944, 1731, 1587, 1224, 1335, 760, 4000, 2245, 697, 904]	13	Present	NA	NA	PRESENT	1.204740047454834	256.85842394828796	258.871591091156	260.03826657924344	260.38826872499067	262.9912700653076	4.119678974151611	[256.88090109825134, 256.9977641105652, 257.9745969772339, 258.1490869522095, 258.89977502822876, 259.0165650844574, 259.1335780620575, 259.25019001960754, 259.36710596084595, 259.48381900787354, 259.60067796707153, 259.7173309326172, 259.83431696891785, 259.950984954834, 260.06791710853577, 260.1846640110016, 260.3013451099396, 260.41817712783813, 260.53514194488525, 260.6517491340637, 260.7685959339142, 260.99127101898193]	[256.8874019025859, 257.00406856924593, 257.98706856924593, 258.1537685692459, 258.9037685692459, 259.02043523590595, 259.137101902566, 259.253768569226, 259.370435235886, 259.48710190254604, 259.60376856920607, 259.7204352358661, 259.8371019025261, 259.95376856918614, 260.07043523584616, 260.1871019025062, 260.3037685691662, 260.42043523582623, 260.53710190248626, 260.6537685691463, 260.7704352358063, 261.00376856913965]	2020_Nov_27_1119	59.91794379492806	1	0.375
6	44	FALSE	NV	a	['A', 'M', 'H', 'C', 'W', 'K', 'E', 'Y', 'J', 'B', 'P', 'V', 'G', 'X', 'N', 'Z']	[697, 1224, 986, 829, 2448, 1122, 904, 2670, 1029, 760, 1456, 2245, 944, 4000, 1335, 2911]	14	Present	NA	NA	PRESENT	0.43297505378723145	262.98180890083313	264.9878001213074	266.27114132238046	266.6211434681277	269.10763812065125	4.119837999343872	[263.0042870044708, 263.12103295326233, 264.0909631252289, 264.2724061012268, 265.023432970047, 265.1399049758911, 265.2567539215088, 265.3736410140991, 265.4904100894928, 265.6071779727936, 265.72406101226807, 265.8406889438629, 265.9574520587921, 266.0743291378021, 266.1911680698395, 266.3080201148987, 266.4247019290924, 266.54167199134827, 266.6584360599518, 266.77501010894775, 266.89176201820374, 267.10763812065125]	[263.00376856913965, 263.1204352357997, 264.1034352357997, 264.27013523579967, 265.02013523579967, 265.1368019024597, 265.2534685691197, 265.37013523577974, 265.48680190243977, 265.6034685690998, 265.7201352357598, 265.83680190241984, 265.95346856907986, 266.0701352357399, 266.1868019023999, 266.30346856905993, 266.42013523571995, 266.53680190238, 266.65346856904, 266.7701352357, 266.88680190236005, 267.1201352356934]	2020_Nov_27_1119	59.91794379492806	1	0.375
6	45	FALSE	NA	a	['T', 'U', 'A', 'H', 'R', 'J', 'S', 'Y', 'X', 'P', 'K', 'N', 'V', 'M', 'C', 'B']	[1888, 2059, 697, 986, 1587, 1029, 1731, 2670, 4000, 1456, 1122, 1335, 2245, 1224, 829, 760]	9	Present	NA	NA	PRESENT	0.28647804260253906	269.10524010658264	271.1043441295624	271.8043510436612	272.1543539046641	275.22400307655334	4.119658946990967	[269.12771701812744, 269.24433493614197, 270.207328081131, 270.37878608703613, 271.14643812179565, 271.24656796455383, 271.36317110061646, 271.4799530506134, 271.59681010246277, 271.7135190963745, 271.8304479122162, 271.94730710983276, 272.06409311294556, 272.18091106414795, 272.2978310585022, 272.414489030838, 272.5313229560852, 272.64796590805054, 272.7647180557251, 272.88156509399414, 272.998407125473, 273.22400307655334]	[269.1201352356934, 269.2368019023534, 270.2198019023534, 270.3865019023534, 271.1365019023534, 271.25316856901344, 271.36983523567346, 271.4865019023335, 271.6031685689935, 271.71983523565353, 271.83650190231356, 271.9531685689736, 272.0698352356336, 272.1865019022936, 272.30316856895365, 272.4198352356137, 272.5365019022737, 272.6531685689337, 272.76983523559375, 272.88650190225377, 273.0031685689138, 273.23650190224714]	2020_Nov_27_1119	59.91794379492806	1	0.375
6	46	FALSE	AN	a	['E', 'A', 'V', 'M', 'W', 'Z', 'N', 'T', 'C', 'G', 'surprise', 'B', 'J', 'K', 'H', 'Y']	[904, 697, 2245, 1224, 2448, 2911, 1335, 1888, 829, 944, 'stimAuditory/all_stimAuditory/122.wav', 760, 1029, 1122, 986, 2670]	14	Absent	stimAuditory/all_stimAuditory/213.wav	NA	ABSENT	0.4112510681152344	275.2120270729065	277.2205910682678	278.5039313156666	278.8539334614138	281.3403699398041	4.119778871536255	[275.2345039844513, 275.3508110046387, 276.3236939907074, 276.50218296051025, 277.2529079914093, 277.3697991371155, 277.48654413223267, 277.60329413414, 277.7202479839325, 277.8368089199066, 277.9538400173187, 278.07053399086, 278.18740010261536, 278.30416202545166, 278.42085313796997, 278.5376720428467, 278.65455412864685, 278.77125310897827, 278.8879659175873, 279.00488805770874, 279.1215190887451, 279.3403699398041]	[275.23650190224714, 275.35316856890717, 276.33616856890717, 276.50286856890716, 277.25286856890716, 277.3695352355672, 277.4862019022272, 277.60286856888723, 277.71953523554726, 277.8362019022073, 277.9528685688673, 278.0695352355273, 278.18620190218735, 278.3028685688474, 278.4195352355074, 278.5362019021674, 278.65286856882744, 278.76953523548747, 278.8862019021475, 279.0028685688075, 279.11953523546754, 279.3528685688009]	2020_Nov_27_1119	59.91794379492806	1	0.375
6	47	FALSE	NN	a	['A', 'K', 'R', 'J', 'N', 'T', 'Z', 'M', 'S', 'P', 'H', 'V', 'Y', 'W', 'G', 'C']	[697, 1122, 1587, 1029, 1335, 1888, 2911, 1224, 1731, 1456, 986, 2245, 2670, 2448, 944, 829]	8	Absent	NA	NA	ABSENT	0.35247802734375	281.3349039554596	283.3370339870453	283.920375426577	284.27037733390563	287.4567370414734	4.119703054428101	[281.357381105423, 281.47404503822327, 282.4400610923767, 282.6254630088806, 283.37617802619934, 283.4929389953613, 283.6097140312195, 283.72666597366333, 283.8433840274811, 283.9602749347687, 284.07706809043884, 284.1936330795288, 284.31043696403503, 284.4273021221161, 284.54456400871277, 284.66096210479736, 284.7777020931244, 284.8945689201355, 285.0113739967346, 285.1279740333557, 285.228059053421, 285.456738948822]	[281.3528685688009, 281.4695352354609, 282.4525352354609, 282.6192352354609, 283.3692352354609, 283.48590190212093, 283.60256856878095, 283.719235235441, 283.835901902101, 283.952568568761, 284.06923523542105, 284.18590190208107, 284.3025685687411, 284.4192352354011, 284.53590190206114, 284.65256856872116, 284.7692352353812, 284.8859019020412, 285.00256856870124, 285.11923523536126, 285.2359019020213, 285.46923523535463]	2020_Nov_27_1119	59.91794379492806	1	0.375
6	48	FALSE	NN	a	['C', 'M', 'K', 'Z', 'B', 'E', 'N', 'A', 'U', 'R', 'P', 'Y', 'H', 'S', 'V', 'W']	[829, 1224, 1122, 2911, 760, 904, 1335, 697, 2059, 1587, 1456, 2670, 986, 1731, 2245, 2448]	11	Absent	NA	NA	ABSENT	0.5010311603546143	287.4412820339203	289.4534320831299	290.3867723305487	290.7367742378773	293.5731039047241	4.119671821594238	[287.46375799179077, 287.58086013793945, 288.55643010139465, 288.7320189476013, 289.482675075531, 289.59939098358154, 289.7164659500122, 289.83306312561035, 289.95002794265747, 290.0666229724884, 290.1835310459137, 290.3002140522003, 290.41711807250977, 290.5337951183319, 290.6507999897003, 290.7674751281738, 290.8841679096222, 291.00111293792725, 291.11775302886963, 291.23471212387085, 291.35139894485474, 291.5731039047241]	[287.46923523535463, 287.58590190201465, 288.56890190201466, 288.73560190201465, 289.48560190201465, 289.6022685686747, 289.7189352353347, 289.8356019019947, 289.95226856865474, 290.06893523531477, 290.1856019019748, 290.3022685686348, 290.41893523529484, 290.53560190195486, 290.6522685686149, 290.7689352352749, 290.88560190193493, 291.00226856859496, 291.118935235255, 291.235601901915, 291.352268568575, 291.5856019019084]	2020_Nov_27_1119	59.91794379492806	1	0.375
6	49	FALSE	NA	a	['J', 'B', 'Y', 'V', 'N', 'C', 'E', 'S', 'M', 'U', 'X', 'K', 'W', 'G', 'A', 'H']	[1029, 760, 2670, 2245, 1335, 829, 904, 1731, 1224, 2059, 4000, 1122, 2448, 944, 697, 986]	11	Present	NA	NA	PRESENT	0.15344500541687012	293.5647211074829	295.5696949958801	296.50303643539183	296.8530383427204	299.68947100639343	4.119776010513306	[293.5871980190277, 293.7037971019745, 294.67279601097107, 294.85540890693665, 295.6059899330139, 295.7228410243988, 295.83959102630615, 295.9563410282135, 296.07318592071533, 296.18985390663147, 296.30688405036926, 296.4235911369324, 296.5405011177063, 296.65709590911865, 296.77402806282043, 296.89085602760315, 297.00747203826904, 297.1246371269226, 297.24104499816895, 297.35783791542053, 297.4747769832611, 297.68947100639343]	[293.5856019019084, 293.7022685685684, 294.6852685685684, 294.8519685685684, 295.6019685685684, 295.7186352352284, 295.83530190188844, 295.95196856854847, 296.0686352352085, 296.1853019018685, 296.30196856852854, 296.41863523518856, 296.5353019018486, 296.6519685685086, 296.76863523516863, 296.88530190182865, 297.0019685684887, 297.1186352351487, 297.2353019018087, 297.35196856846875, 297.4686352351288, 297.7019685684621]	2020_Nov_27_1119	59.91794379492806	1	0.375
6	50	FALSE	NA	a	['Z', 'G', 'E', 'A', 'R', 'U', 'S', 'W', 'H', 'M', 'X', 'B', 'K', 'C', 'V', 'J']	[2911, 944, 904, 697, 1587, 2059, 1731, 2448, 986, 1224, 4000, 760, 1122, 829, 2245, 1029]	11	Present	NA	NA	PRESENT	0.08676791191101074	299.688108921051	301.6861720085144	302.6195122559332	302.9695144016804	305.80583691596985	4.119664907455444	[299.7105860710144, 299.8271849155426, 300.7891631126404, 300.9616940021515, 301.72920513153076, 301.8292999267578, 301.9462170600891, 302.062784910202, 302.1798551082611, 302.2963740825653, 302.41337299346924, 302.5302541255951, 302.6469769477844, 302.7636229991913, 302.88060998916626, 302.99719500541687, 303.1141309738159, 303.23081707954407, 303.34755206108093, 303.46461296081543, 303.5811491012573, 303.80583691596985]	[299.7019685684621, 299.81863523512214, 300.80163523512215, 300.96833523512214, 301.71833523512214, 301.83500190178216, 301.9516685684422, 302.0683352351022, 302.18500190176223, 302.30166856842226, 302.4183352350823, 302.5350019017423, 302.65166856840233, 302.76833523506235, 302.8850019017224, 303.0016685683824, 303.1183352350424, 303.23500190170245, 303.35166856836247, 303.4683352350225, 303.5850019016825, 303.81833523501587]	2020_Nov_27_1119	59.91794379492806	1	0.375
6	51	FALSE	AN	a	['V', 'C', 'A', 'B', 'S', 'N', 'Y', 'H', 'U', 'Z', 'surprise', 'R', 'P', 'G', 'T', 'M']	[2245, 829, 697, 760, 1731, 1335, 2670, 986, 2059, 2911, 'stimAuditory/all_stimAuditory/103.wav', 1587, 1456, 944, 1888, 1224]	14	Absent	stimAuditory/all_stimAuditory/101.wav	NA	ABSENT	0.6031110286712646	305.7949140071869	307.80240201950073	309.0857434589924	309.43574536632104	311.92220306396484	4.119801044464111	[305.8173921108246, 305.933718919754, 306.90553092956543, 307.0849959850311, 307.83573508262634, 307.9526810646057, 308.0694479942322, 308.18611693382263, 308.30306005477905, 308.41970801353455, 308.53659200668335, 308.6533110141754, 308.7700819969177, 308.88700795173645, 309.0037410259247, 309.1205270290375, 309.23734498023987, 309.354129076004, 309.47081112861633, 309.58777713775635, 309.7045991420746, 309.92220401763916]	[305.81833523501587, 305.9350019016759, 306.9180019016759, 307.0847019016759, 307.8347019016759, 307.9513685683359, 308.06803523499593, 308.18470190165596, 308.301368568316, 308.418035234976, 308.534701901636, 308.65136856829605, 308.7680352349561, 308.8847019016161, 309.0013685682761, 309.11803523493614, 309.23470190159617, 309.3513685682562, 309.4680352349162, 309.58470190157624, 309.70136856823626, 309.9347019015696]	2020_Nov_27_1119	59.91794379492806	1	0.375
6	52	FALSE	NV	a	['M', 'U', 'E', 'P', 'K', 'R', 'V', 'A', 'H', 'X', 'T', 'N', 'W', 'C', 'S', 'B']	[1224, 2059, 904, 1456, 1122, 1587, 2245, 697, 986, 4000, 1888, 1335, 2448, 829, 1731, 760]	10	Present	NA	NA	PRESENT	1.2326138019561768	311.91764092445374	313.9188289642334	314.7355037370851	315.08550564441373	318.0385711193085	4.119742155075073	[311.94011902809143, 312.05694913864136, 313.0218949317932, 313.20819091796875, 313.9591989517212, 314.0757141113281, 314.1927080154419, 314.30950903892517, 314.42608094215393, 314.5430591106415, 314.6597990989685, 314.7766659259796, 314.8764810562134, 314.9933500289917, 315.11010813713074, 315.2268970012665, 315.34372901916504, 315.46083092689514, 315.5773661136627, 315.69416403770447, 315.8109641075134, 316.0385711193085]	[311.9347019015696, 312.05136856822963, 313.03436856822964, 313.20106856822963, 313.95106856822963, 314.06773523488965, 314.1844019015497, 314.3010685682097, 314.4177352348697, 314.53440190152975, 314.65106856818977, 314.7677352348498, 314.8844019015098, 315.00106856816984, 315.11773523482987, 315.2344019014899, 315.3510685681499, 315.46773523480994, 315.58440190146996, 315.70106856813, 315.81773523479, 316.05106856812336]	2020_Nov_27_1119	59.91794379492806	1	0.375
6	53	FALSE	NV	a	['P', 'W', 'M', 'S', 'Y', 'N', 'H', 'V', 'Z', 'K', 'E', 'X', 'C', 'G', 'T', 'J']	[1456, 2448, 1224, 1731, 2670, 1335, 986, 2245, 2911, 1122, 904, 4000, 829, 944, 1888, 1029]	12	Present	NA	NA	PRESENT	0.27724313735961914	318.02426290512085	320.03513193130493	321.0851400374766	321.43514194480525	324.1549379825592	4.1198060512542725	[318.04674005508423, 318.1636891365051, 319.1382620334625, 319.31483602523804, 320.0656509399414, 320.18224811553955, 320.2990131378174, 320.4158790111542, 320.53279209136963, 320.64950299263, 320.7663850784302, 320.88307309150696, 320.9999649524689, 321.116770029068, 321.2335901260376, 321.35025906562805, 321.46708393096924, 321.5839350223541, 321.70052099227905, 321.81751012802124, 321.93443608283997, 322.1549379825592]	[318.05106856812336, 318.1677352347834, 319.1507352347834, 319.3174352347834, 320.0674352347834, 320.1841019014434, 320.3007685681034, 320.41743523476345, 320.53410190142347, 320.6507685680835, 320.7674352347435, 320.88410190140354, 321.00076856806356, 321.1174352347236, 321.2341019013836, 321.35076856804363, 321.46743523470366, 321.5841019013637, 321.7007685680237, 321.8174352346837, 321.93410190134375, 322.1674352346771]	2020_Nov_27_1119	59.91794379492806	1	0.375
6	54	FALSE	NA	a	['J', 'G', 'K', 'Y', 'H', 'U', 'A', 'B', 'R', 'W', 'C', 'T', 'X', 'V', 'Z', 'N']	[1029, 944, 1122, 2670, 986, 2059, 697, 760, 1587, 2448, 829, 1888, 4000, 2245, 2911, 1335]	13	Present	NA	NA	PRESENT	0.23374104499816897	324.14765095710754	326.15172290802	327.3183967271774	327.66839863450605	330.2713041305542	4.11958122253418	[324.1701281070709, 324.28672194480896, 325.25463104248047, 325.43801712989807, 326.1891450881958, 326.3057551383972, 326.4223589897156, 326.53933000564575, 326.6560170650482, 326.77290201187134, 326.8896551132202, 327.00624108314514, 327.12325406074524, 327.2398679256439, 327.3568649291992, 327.4735629558563, 327.59039306640625, 327.7072501182556, 327.8240110874176, 327.94074392318726, 328.0575830936432, 328.2713029384613]	[324.1674352346771, 324.2841019013371, 325.2671019013371, 325.4338019013371, 326.1838019013371, 326.30046856799714, 326.41713523465717, 326.5338019013172, 326.6504685679772, 326.76713523463724, 326.88380190129726, 327.0004685679573, 327.1171352346173, 327.23380190127733, 327.35046856793736, 327.4671352345974, 327.5838019012574, 327.7004685679174, 327.81713523457745, 327.9338019012375, 328.0504685678975, 328.28380190123085]	2020_Nov_27_1119	59.91794379492806	1	0.375
6	55	FALSE	AV	a	['S', 'A', 'V', 'R', 'P', 'W', 'G', 'surprise', 'U', 'Y', 'X', 'M', 'E', 'J', 'Z', 'B']	[1731, 697, 2245, 1587, 1456, 2448, 944, 'stimAuditory/all_stimAuditory/119.wav', 2059, 2670, 4000, 1224, 904, 1029, 2911, 760]	11	Present	stimAuditory/all_stimAuditory/122.wav	NA	PRESENT	0.19911909103393555	330.2707579135895	332.2681350708008	333.2014762718939	333.5514784176411	336.3876700401306	4.119534969329834	[330.29323506355286, 330.39327812194824, 331.37099504470825, 331.54465913772583, 332.2952129840851, 332.4122040271759, 332.5291519165039, 332.64575695991516, 332.7626419067383, 332.8792259693146, 332.9961919784546, 333.11281991004944, 333.22969913482666, 333.34639596939087, 333.4633409976959, 333.5800271034241, 333.6970109939575, 333.8135681152344, 333.93052411079407, 334.0473289489746, 334.1641719341278, 334.3876700401306]	[330.28380190123085, 330.40046856789087, 331.3834685678909, 331.55016856789086, 332.30016856789086, 332.4168352345509, 332.5335019012109, 332.65016856787094, 332.76683523453096, 332.883501901191, 333.000168567851, 333.11683523451103, 333.23350190117105, 333.3501685678311, 333.4668352344911, 333.5835019011511, 333.70016856781115, 333.81683523447117, 333.9335019011312, 334.0501685677912, 334.16683523445124, 334.4001685677846]	2020_Nov_27_1119	59.91794379492806	1	0.375
6	56	FALSE	NN	a	['J', 'W', 'B', 'S', 'A', 'H', 'P', 'C', 'N', 'Y', 'M', 'T', 'Z', 'G', 'E', 'U']	[1029, 2448, 760, 1731, 697, 986, 1456, 829, 1335, 2670, 1224, 1888, 2911, 944, 904, 2059]	8	Absent	NA	NA	ABSENT	1.1314218044281006	336.37783193588257	338.3841860294342	338.9675274689659	339.31752937629454	342.5040371417999	4.119851112365723	[336.40031003952026, 336.51649713516235, 337.4873640537262, 337.66785407066345, 338.41867113113403, 338.53547501564026, 338.65213799476624, 338.7690329551697, 338.8856871128082, 339.00262093544006, 339.1194279193878, 339.236093044281, 339.35276103019714, 339.4697000980377, 339.5864200592041, 339.7034180164337, 339.8200480937958, 339.93694496154785, 340.0536880493164, 340.17038202285767, 340.28724908828735, 340.50403904914856]	[336.4001685677846, 336.5168352344446, 337.4998352344446, 337.6665352344446, 338.4165352344446, 338.53320190110463, 338.64986856776466, 338.7665352344247, 338.8832019010847, 338.9998685677447, 339.11653523440475, 339.2332019010648, 339.3498685677248, 339.4665352343848, 339.58320190104484, 339.69986856770487, 339.8165352343649, 339.9332019010249, 340.04986856768494, 340.16653523434496, 340.283201901005, 340.51653523433833]	2020_Nov_27_1119	59.91794379492806	1	0.375
6	57	FALSE	NV	a	['E', 'T', 'S', 'V', 'M', 'Y', 'W', 'K', 'H', 'X', 'Z', 'R', 'P', 'A', 'G', 'C']	[904, 1888, 1731, 2245, 1224, 2670, 2448, 1122, 986, 4000, 2911, 1587, 1456, 697, 944, 829]	10	Present	NA	NA	PRESENT	0.28075695037841797	342.5005979537964	344.5006630420685	345.31733662282727	345.6673387685745	348.62040400505066	4.119740962982178	[342.5230760574341, 342.63981008529663, 343.6037290096283, 343.7909710407257, 344.5419669151306, 344.6418390274048, 344.7586600780487, 344.8754599094391, 344.99225401878357, 345.1090259552002, 345.2257499694824, 345.3425190448761, 345.45963191986084, 345.5761959552765, 345.6930010318756, 345.80978298187256, 345.9267809391022, 346.0433909893036, 346.1603500843048, 346.27698493003845, 346.39386510849, 346.62040400505066]	[342.51653523433833, 342.63320190099836, 343.61620190099836, 343.78290190099835, 344.53290190099835, 344.6495685676584, 344.7662352343184, 344.8829019009784, 344.99956856763845, 345.1162352342985, 345.2329019009585, 345.3495685676185, 345.46623523427854, 345.58290190093857, 345.6995685675986, 345.8162352342586, 345.93290190091864, 346.04956856757866, 346.1662352342387, 346.2829019008987, 346.39956856755873, 346.6329019008921]	2020_Nov_27_1119	59.91794379492806	1	0.375
6	58	FALSE	NV	a	['U', 'N', 'G', 'K', 'S', 'A', 'M', 'E', 'C', 'T', 'X', 'B', 'P', 'J', 'W', 'H']	[2059, 1335, 944, 1122, 1731, 697, 1224, 904, 829, 1888, 4000, 760, 1456, 1029, 2448, 986]	11	Present	NA	NA	PRESENT	0.1254708766937256	348.60708594322205	350.6169650554657	351.5503053028845	351.9003074486317	354.73677110671997	4.1198060512542725	[348.62956404685974, 348.7463059425354, 349.7200961112976, 349.8976891040802, 350.6484200954437, 350.7650990486145, 350.88201212882996, 350.99874210357666, 351.1157400608063, 351.23248195648193, 351.34928607940674, 351.4659090042114, 351.582848072052, 351.6996030807495, 351.8162829875946, 351.93324398994446, 352.04997205734253, 352.1667249202728, 352.2835590839386, 352.40026092529297, 352.51709604263306, 352.7367699146271]	[348.6329019008921, 348.7495685675521, 349.7325685675521, 349.8992685675521, 350.6492685675521, 350.7659352342121, 350.88260190087215, 350.99926856753217, 351.1159352341922, 351.2326019008522, 351.34926856751224, 351.46593523417226, 351.5826019008323, 351.6992685674923, 351.81593523415233, 351.93260190081236, 352.0492685674724, 352.1659352341324, 352.28260190079243, 352.39926856745245, 352.5159352341125, 352.7492685674458]	2020_Nov_27_1119	59.91794379492806	1	0.375
6	59	FALSE	NA	a	['J', 'W', 'S', 'A', 'Z', 'M', 'T', 'B', 'H', 'Y', 'X', 'G', 'N', 'E', 'P', 'R']	[1029, 2448, 1731, 697, 2911, 1224, 1888, 760, 986, 2670, 4000, 944, 1335, 904, 1456, 1587]	11	Present	NA	NA	PRESENT	0.01794815063476562	354.73049092292786	356.7333860397339	357.666727240827	358.0167293865742	360.8531379699707	4.119751930236816	[354.7529709339142, 354.8695809841156, 355.83646512031555, 356.02118396759033, 356.77155113220215, 356.8885679244995, 357.0053279399872, 357.1221890449524, 357.2389540672302, 357.3556590080261, 357.4723560810089, 357.5891709327698, 357.705943107605, 357.822811126709, 357.93967509269714, 358.05645513534546, 358.1732380390167, 358.28985810279846, 358.4066390991211, 358.5235800743103, 358.6403579711914, 358.8531370162964]	[354.7492685674458, 354.86593523410585, 355.84893523410585, 356.01563523410584, 356.76563523410584, 356.88230190076587, 356.9989685674259, 357.1156352340859, 357.23230190074594, 357.34896856740596, 357.465635234066, 357.582301900726, 357.69896856738603, 357.81563523404606, 357.9323019007061, 358.0489685673661, 358.1656352340261, 358.28230190068615, 358.3989685673462, 358.5156352340062, 358.6323019006662, 358.86563523399957]	2020_Nov_27_1119	59.91794379492806	1	0.375
6	60	FALSE	NV	a	['C', 'U', 'S', 'K', 'J', 'E', 'G', 'A', 'R', 'W', 'M', 'X', 'Y', 'V', 'N', 'Z']	[829, 2059, 1731, 1122, 1029, 904, 944, 697, 1587, 2448, 1224, 4000, 2670, 2245, 1335, 2911]	12	Present	NA	NA	PRESENT	0.3113839626312256	360.8368260860443	362.8497841358185	363.8997920035716	364.2497939109002	366.9695029258728	4.119718790054321	[360.8593029975891, 360.9760990142822, 361.95282912254333, 362.1274240016937, 362.87812209129333, 362.9948971271515, 363.111624956131, 363.2285490036011, 363.34551095962524, 363.4622359275818, 363.5790650844574, 363.6956651210785, 363.8124530315399, 363.9293279647827, 364.04598212242126, 364.1629090309143, 364.2797179222107, 364.396488904953, 364.51322197914124, 364.6301441192627, 364.74693393707275, 364.9695041179657]	[360.86563523399957, 360.9823019006596, 361.9653019006596, 362.1320019006596, 362.8820019006596, 362.9986685673196, 363.11533523397964, 363.23200190063966, 363.3486685672997, 363.4653352339597, 363.58200190061973, 363.69866856727975, 363.8153352339398, 363.9320019005998, 364.0486685672598, 364.16533523391985, 364.28200190057987, 364.3986685672399, 364.5153352338999, 364.63200190055994, 364.74866856721997, 364.9820019005533]	2020_Nov_27_1119	59.91794379492806	1	0.375
6	61	FALSE	NA	a	['G', 'V', 'C', 'T', 'W', 'E', 'B', 'X', 'Y', 'K', 'J', 'N', 'U', 'A', 'R', 'P']	[944, 2245, 829, 1888, 2448, 904, 760, 4000, 2670, 1122, 1029, 1335, 2059, 697, 1587, 1456]	8	Present	NA	NA	PRESENT	0.2037749290466309	366.96053290367126	368.9661030769348	369.54944427804793	369.8994464237951	373.0858700275421	4.1197669506073	[366.98301100730896, 367.0993061065674, 368.06919503211975, 368.250648021698, 369.00143003463745, 369.11826491355896, 369.23506808280945, 369.351891040802, 369.4686441421509, 369.5854480266571, 369.70234394073486, 369.8190870285034, 369.9357109069824, 370.05252408981323, 370.16928005218506, 370.2862250804901, 370.4029870033264, 370.5197660923004, 370.63642406463623, 370.753319978714, 370.8700909614563, 371.08587098121643]	[366.9820019005533, 367.09866856721334, 368.08166856721334, 368.24836856721333, 368.99836856721333, 369.11503523387336, 369.2317019005334, 369.3483685671934, 369.4650352338534, 369.58170190051345, 369.6983685671735, 369.8150352338335, 369.9317019004935, 370.04836856715355, 370.16503523381357, 370.2817019004736, 370.3983685671336, 370.51503523379364, 370.63170190045366, 370.7483685671137, 370.8650352337737, 371.09836856710706]	2020_Nov_27_1119	59.91794379492806	1	0.375
6	62	FALSE	AV	a	['A', 'V', 'R', 'U', 'P', 'Y', 'S', 'K', 'surprise', 'E', 'T', 'X', 'N', 'W', 'M', 'B']	[697, 2245, 1587, 2059, 1456, 2670, 1731, 1122, 'stimAuditory/all_stimAuditory/212.wav', 904, 1888, 4000, 1335, 2448, 1224, 760]	12	Present	stimAuditory/all_stimAuditory/103.wav	NA	ABSENT	0.46509504318237305	373.0833039283752	375.0824790000915	376.1324871062632	376.4824890135919	379.20223808288574	4.1197590827941895	[373.1057810783386, 373.2225761413574, 374.18556094169617, 374.35708594322205, 375.1246039867401, 375.2246460914612, 375.34140610694885, 375.45826292037964, 375.5750050544739, 375.6918029785156, 375.80884408950806, 375.92553901672363, 376.0424680709839, 376.1591360569, 376.27572894096375, 376.39259791374207, 376.5098309516907, 376.62626695632935, 376.7432310581207, 376.8598461151123, 376.9765000343323, 377.2022371292114]	[373.09836856710706, 373.2150352337671, 374.1980352337671, 374.3647352337671, 375.1147352337671, 375.2314019004271, 375.3480685670871, 375.46473523374715, 375.5814019004072, 375.6980685670672, 375.8147352337272, 375.93140190038724, 376.04806856704727, 376.1647352337073, 376.2814019003673, 376.39806856702734, 376.51473523368736, 376.6314019003474, 376.7480685670074, 376.86473523366743, 376.98140190032746, 377.2147352336608]	2020_Nov_27_1119	59.91794379492806	1	0.375
6	63	FALSE	NV	a	['C', 'M', 'Z', 'H', 'R', 'T', 'S', 'A', 'N', 'G', 'V', 'X', 'U', 'P', 'Y', 'J']	[829, 1224, 2911, 986, 1587, 1888, 1731, 697, 1335, 944, 2245, 4000, 2059, 1456, 2670, 1029]	12	Present	NA	NA	PRESENT	0.3655519485473633	379.18995809555054	381.1987459659576	382.2487540721293	382.5987559794579	385.31860399246216	4.119858026504517	[379.21243500709534, 379.3291621208191, 380.30192494392395, 380.4803740978241, 381.2312500476837, 381.348032951355, 381.4648461341858, 381.58170104026794, 381.6985070705414, 381.81522607803345, 381.9319279193878, 382.04881501197815, 382.165678024292, 382.28240513801575, 382.399178981781, 382.51590609550476, 382.63260197639465, 382.7495439052582, 382.8663170337677, 382.9831290245056, 383.1000270843506, 383.31860303878784]	[379.2147352336608, 379.3314019003208, 380.31440190032083, 380.4811019003208, 381.2311019003208, 381.34776856698085, 381.46443523364087, 381.5811019003009, 381.6977685669609, 381.81443523362094, 381.93110190028096, 382.047768566941, 382.164435233601, 382.28110190026104, 382.39776856692106, 382.5144352335811, 382.6311019002411, 382.74776856690113, 382.86443523356115, 382.9811019002212, 383.0977685668812, 383.33110190021455]	2020_Nov_27_1119	59.91794379492806	1	0.375
6	64	FALSE	NV	a	['C', 'J', 'W', 'A', 'Z', 'B', 'N', 'Y', 'T', 'X', 'U', 'K', 'G', 'M', 'R', 'P']	[829, 1029, 2448, 697, 2911, 760, 1335, 2670, 1888, 4000, 2059, 1122, 944, 1224, 1587, 1456]	10	Present	NA	NA	PRESENT	0.18708086013793945	385.3132939338684	387.3152050971985	388.1318786779573	388.4818805852859	391.4349701404571	4.119765043258667	[385.3357710838318, 385.45291209220886, 386.4182960987091, 386.6040070056915, 387.35435605049133, 387.4714889526367, 387.58818793296814, 387.70488595962524, 387.82181096076965, 387.9384560585022, 388.0551960468292, 388.1721360683441, 388.2888460159302, 388.4057149887085, 388.5224959850311, 388.6392149925232, 388.75594210624695, 388.8728229999542, 388.989620923996, 389.0894899368286, 389.2064440250397, 389.43497014045715]	[385.33110190021455, 385.4477685668746, 386.4307685668746, 386.59746856687457, 387.34746856687457, 387.4641352335346, 387.5808019001946, 387.69746856685464, 387.81413523351466, 387.9308019001747, 388.0474685668347, 388.16413523349473, 388.28080190015476, 388.3974685668148, 388.5141352334748, 388.6308019001348, 388.74746856679485, 388.8641352334549, 388.9808019001149, 389.0974685667749, 389.21413523343494, 389.4474685667683]	2020_Nov_27_1119	59.91794379492806	1	0.375
6	65	FALSE	AA	a	['W', 'J', 'Z', 'R', 'surprise', 'N', 'M', 'X', 'K', 'A', 'E', 'V', 'S', 'P', 'T', 'U']	[2448, 1029, 2911, 1587, 'stimAuditory/all_stimAuditory/223.wav', 1335, 1224, 4000, 1122, 697, 904, 2245, 1731, 1456, 1888, 2059]	8	Present	stimAuditory/all_stimAuditory/119.wav	NA	PRESENT	0.28760290145874023	391.419713973999	393.4316301345825	394.0149713356956	394.3649732430243	397.5513379573822	4.119707822799683	[391.4421911239624, 391.5590069293976, 392.53466391563416, 392.7103021144867, 393.460923910141, 393.5777430534363, 393.6946530342102, 393.81142807006836, 393.9282240867615, 394.044939994812, 394.1618640422821, 394.2785921096802, 394.3952341079712, 394.51223611831665, 394.62891006469727, 394.7458930015564, 394.86251997947693, 394.9792420864105, 395.09603810310364, 395.2129271030426, 395.329638004303, 395.5513389110565]	[391.4474685667683, 391.5641352334283, 392.5471352334283, 392.7138352334283, 393.4638352334283, 393.58050190008834, 393.69716856674836, 393.8138352334084, 393.9305019000684, 394.04716856672843, 394.16383523338845, 394.2805019000485, 394.3971685667085, 394.5138352333685, 394.63050190002855, 394.7471685666886, 394.8638352333486, 394.9805019000086, 395.09716856666864, 395.21383523332867, 395.3305018999887, 395.56383523332204]	2020_Nov_27_1119	59.91794379492806	1	0.375
6	66	FALSE	NA	a	['B', 'C', 'Y', 'E', 'J', 'W', 'R', 'T', 'G', 'P', 'A', 'X', 'S', 'H', 'M', 'K']	[760, 829, 2670, 904, 1029, 2448, 1587, 1888, 944, 1456, 697, 4000, 1731, 986, 1224, 1122]	12	Present	NA	NA	PRESENT	0.6599991321563721	397.5431730747223	399.54805612564087	400.5980630397197	400.9480649470483	403.6677029132843	4.119646787643433	[397.5656521320343, 397.6822700500488, 398.65102910995483, 398.83342003822327, 399.58433508872986, 399.70117807388306, 399.817773103714, 399.9347069263458, 400.0513789653778, 400.16836309432983, 400.2850151062012, 400.4019639492035, 400.518590927124, 400.6353750228882, 400.75213408470154, 400.86898398399353, 400.9855749607086, 401.1026749610901, 401.2192690372467, 401.3361439704895, 401.4530210494995, 401.6677041053772]	[397.56383523332204, 397.68050189998206, 398.66350189998207, 398.83020189998206, 399.58020189998206, 399.6968685666421, 399.8135352333021, 399.9302018999621, 400.04686856662215, 400.1635352332822, 400.2802018999422, 400.3968685666022, 400.51353523326225, 400.63020189992227, 400.7468685665823, 400.8635352332423, 400.98020189990234, 401.09686856656236, 401.2135352332224, 401.3302018998824, 401.44686856654243, 401.6802018998758]	2020_Nov_27_1119	59.91794379492806	1	0.375
6	67	FALSE	NA	a	['G', 'A', 'J', 'Y', 'P', 'Z', 'K', 'M', 'E', 'N', 'X', 'S', 'H', 'W', 'V', 'C']	[944, 697, 1029, 2670, 1456, 2911, 1122, 1224, 904, 1335, 4000, 1731, 986, 2448, 2245, 829]	11	Present	NA	NA	PRESENT	0.16119909286499023	403.66626811027527	405.66441011428833	406.59776037528746	406.94776228261605	409.78407096862793	4.1196608543396	[403.6887481212616, 403.8054530620575, 404.76739501953125, 404.94011402130127, 405.70743107795715, 405.80750608444214, 405.9243109226227, 406.04116201400757, 406.15811800956726, 406.2747850418091, 406.39167308807373, 406.5083339214325, 406.6250469684601, 406.7419629096985, 406.85858511924744, 406.9755470752716, 407.0923581123352, 407.20904207229614, 407.3259451389313, 407.4426300525665, 407.55971693992615, 407.7840700149536]	[403.6802018998758, 403.7968685665358, 404.7798685665358, 404.9465685665358, 405.6965685665358, 405.8132352331958, 405.92990189985585, 406.0465685665159, 406.1632352331759, 406.2799018998359, 406.39656856649594, 406.51323523315597, 406.629901899816, 406.746568566476, 406.86323523313604, 406.97990189979606, 407.0965685664561, 407.2132352331161, 407.32990189977613, 407.44656856643616, 407.5632352330962, 407.7965685664295]	2020_Nov_27_1119	59.91794379492806	1	0.375
6	68	FALSE	VA	a	['E', 'B', 'J', 'N', 'G', 'Z', 'surprise', 'R', 'U', 'X', 'P', 'H', 'Y', 'M', 'S', 'V']	[904, 760, 1029, 1335, 944, 2911, 'stimAuditory/all_stimAuditory/224.wav', 1587, 2059, 4000, 1456, 986, 2670, 1224, 1731, 2245]	10	Present	NA	NA	NONE	-1	409.7728409767151	411.78060007095337	412.5972746053865	412.9472767511337	415.91843605041504	4.13783597946167	[409.7953190803528, 409.9118959903717, 410.88376092910767, 411.06325507164, 411.8140559196472, 411.9308829307556, 412.04776406288147, 412.1644859313965, 412.2811031341553, 412.39801502227783, 412.51469707489014, 412.6315689086914, 412.7482829093933, 412.86517310142517, 412.98204493522644, 413.09867000579834, 413.2155339717865, 413.3324029445648, 413.4490599632263, 413.5660479068756, 413.68278312683105, 413.90043807029724]	[409.7965685664295, 409.91323523308955, 410.89623523308956, 411.06293523308955, 411.81293523308955, 411.92960189974957, 412.0462685664096, 412.1629352330696, 412.27960189972964, 412.39626856638967, 412.5129352330497, 412.6296018997097, 412.74626856636974, 412.86293523302976, 412.9796018996898, 413.0962685663498, 413.21293523300983, 413.32960189966985, 413.4462685663299, 413.5629352329899, 413.6796018996499, 413.9129352329833]	2020_Nov_27_1119	59.91794379492806	1	0.375
6	69	FALSE	NV	a	['G', 'P', 'S', 'N', 'M', 'R', 'J', 'W', 'V', 'H', 'K', 'Z', 'E', 'X', 'B', 'A']	[944, 1456, 1731, 1335, 1224, 1587, 1029, 2448, 2245, 986, 1122, 2911, 904, 4000, 760, 697]	14	Present	NA	NA	PRESENT	0.27531981468200684	415.912593126297	417.89698696136475	419.1803284008564	419.53033030818506	422.01680397987366	4.119817018508911	[415.9350709915161, 416.0353081226349, 417.0001289844513, 417.1866419315338, 417.9377701282501, 418.054162979126, 418.1707570552826, 418.28750491142273, 418.4044940471649, 418.5214259624481, 418.63815212249756, 418.7547459602356, 418.85474610328674, 418.9716000556946, 419.08844208717346, 419.20526003837585, 419.32199597358704, 419.4387810230255, 419.5555729866028, 419.67230892181396, 419.78911113739014, 420.01680397987366]	[415.9129352329833, 416.0296018996433, 417.0126018996433, 417.1793018996433, 417.9293018996433, 418.0459685663033, 418.16263523296334, 418.27930189962336, 418.3959685662834, 418.5126352329434, 418.62930189960343, 418.74596856626346, 418.8626352329235, 418.9793018995835, 419.0959685662435, 419.21263523290355, 419.3293018995636, 419.4459685662236, 419.5626352328836, 419.67930189954365, 419.79596856620367, 420.029301899537]	2020_Nov_27_1119	59.91794379492806	1	0.375
6	70	FALSE	NV	a	['C', 'A', 'R', 'N', 'V', 'J', 'H', 'X', 'K', 'E', 'U', 'T', 'G', 'W', 'S', 'M']	[829, 697, 1587, 1335, 2245, 1029, 986, 4000, 1122, 904, 2059, 1888, 944, 2448, 1731, 1224]	8	Present	NA	NA	PRESENT	0.19983792304992676	422.0023839473725	424.01335406303406	424.5966952641472	424.9466964562201	428.13317108154297	4.119817018508911	[422.0248610973358, 422.141881942749, 423.1164929866791, 423.2930791378021, 424.0438070297241, 424.16064405441284, 424.2773940563202, 424.39425897598267, 424.5110991001129, 424.62780499458313, 424.74452900886536, 424.86141705513, 424.9780099391937, 425.0951089859009, 425.2117049694061, 425.32869005203247, 425.44531893730164, 425.5622229576111, 425.6788489818573, 425.7955160140991, 425.91250491142273, 426.13317108154297]	[422.029301899537, 422.14596856619704, 423.12896856619705, 423.29566856619704, 424.04566856619704, 424.16233523285706, 424.2790018995171, 424.3956685661771, 424.51233523283713, 424.62900189949715, 424.7456685661572, 424.8623352328172, 424.9790018994772, 425.09566856613725, 425.2123352327973, 425.3290018994573, 425.4456685661173, 425.56233523277734, 425.67900189943737, 425.7956685660974, 425.9123352327574, 426.14566856609076]	2020_Nov_27_1119	59.91794379492806	1	0.375
6	71	FALSE	VA	a	['S', 'P', 'T', 'Z', 'V', 'U', 'J', 'H', 'surprise', 'B', 'Y', 'X', 'R', 'E', 'N', 'A']	[1731, 1456, 1888, 2911, 2245, 2059, 1029, 986, 'stimAuditory/all_stimAuditory/220.wav', 760, 2670, 4000, 1587, 904, 1335, 697]	12	Present	NA	NA	PRESENT	0.26035499572753906	428.12608909606934	430.12983298301697	431.1798401355143	431.529842042843	434.2495379447937	4.119704961776733	[428.14856696128845, 428.2651150226593, 429.23286294937134, 429.4161219596863, 430.1670939922333, 430.2838499546051, 430.4005949497223, 430.517452955246, 430.6342680454254, 430.7511360645294, 430.8678629398346, 430.9845371246338, 431.10130190849304, 431.21814608573914, 431.3350739479065, 431.45197200775146, 431.5687599182129, 431.68546199798584, 431.80220198631287, 431.91906094551086, 432.03567695617676, 432.2495379447937]	[428.14566856609076, 428.2623352327508, 429.2453352327508, 429.4120352327508, 430.1620352327508, 430.2787018994108, 430.39536856607083, 430.51203523273085, 430.6287018993909, 430.7453685660509, 430.8620352327109, 430.97870189937095, 431.09536856603097, 431.212035232691, 431.328701899351, 431.44536856601104, 431.56203523267106, 431.6787018993311, 431.7953685659911, 431.91203523265114, 432.02870189931116, 432.2620352326445]	2020_Nov_27_1119	59.91794379492806	1	0.375
6	72	FALSE	NN	a	['J', 'N', 'T', 'P', 'Y', 'H', 'Z', 'U', 'K', 'C', 'S', 'E', 'M', 'A', 'W', 'V']	[1029, 1335, 1888, 1456, 2670, 986, 2911, 2059, 1122, 829, 1731, 904, 1224, 697, 2448, 2245]	13	Absent	NA	NA	ABSENT	0.2335968017578125	434.2489230632782	436.2460980415344	437.41277257594754	437.7627747216948	440.3659031391144	4.119805097579956	[434.271399974823, 434.37141704559326, 435.3492269515991, 435.5227220058441, 436.2734959125519, 436.39047408103943, 436.5072920322418, 436.623948097229, 436.7406220436096, 436.8575599193573, 436.9745280742645, 437.0911440849304, 437.2079939842224, 437.3247950077057, 437.441565990448, 437.55873799324036, 437.6750581264496, 437.79200196266174, 437.9086880683899, 438.0256519317627, 438.1424160003662, 438.3659031391144]	[434.2620352326445, 434.37870189930453, 435.36170189930453, 435.5284018993045, 436.2784018993045, 436.39506856596455, 436.5117352326246, 436.6284018992846, 436.7450685659446, 436.86173523260464, 436.97840189926467, 437.0950685659247, 437.2117352325847, 437.32840189924474, 437.44506856590476, 437.5617352325648, 437.6784018992248, 437.79506856588483, 437.91173523254486, 438.0284018992049, 438.1450685658649, 438.37840189919825]	2020_Nov_27_1119	59.91794379492806	1	0.375
6	73	FALSE	NN	a	['S', 'J', 'Z', 'U', 'V', 'W', 'H', 'G', 'P', 'A', 'R', 'M', 'T', 'E', 'C', 'N']	[1731, 1029, 2911, 2059, 2245, 2448, 986, 944, 1456, 697, 1587, 1224, 1888, 904, 829, 1335]	10	Absent	NA	NA	ABSENT	0.5501000881195068	440.3553409576416	442.3627231121063	443.1793966928651	443.52939979228665	446.48227095603943	4.1195478439331055	[440.377818107605, 440.4948000907898, 441.4655969142914, 441.64612102508545, 442.3967089653015, 442.5136079788208, 442.63042092323303, 442.7472929954529, 442.8640389442444, 442.9808931350708, 443.09753704071045, 443.2144949436188, 443.3311970233917, 443.44816613197327, 443.56490898132324, 443.6816520690918, 443.7983500957489, 443.9151029586792, 444.03210496902466, 444.1486129760742, 444.26560711860657, 444.48227190971375]	[440.37840189919825, 440.4950685658583, 441.4780685658583, 441.64476856585827, 442.39476856585827, 442.5114352325183, 442.6281018991783, 442.74476856583834, 442.86143523249837, 442.9781018991584, 443.0947685658184, 443.21143523247844, 443.32810189913846, 443.4447685657985, 443.5614352324585, 443.67810189911853, 443.79476856577855, 443.9114352324386, 444.0281018990986, 444.1447685657586, 444.26143523241865, 444.494768565752]	2020_Nov_27_1119	59.91794379492806	1	0.375
6	74	FALSE	VV	a	['A', 'C', 'S', 'Z', 'G', 'T', 'K', 'M', 'surprise', 'V', 'N', 'X', 'E', 'Y', 'R', 'J']	[697, 829, 1731, 2911, 944, 1888, 1122, 1224, 'stimAuditory/all_stimAuditory/114.wav', 2245, 1335, 4000, 904, 2670, 1587, 1029]	12	Present	NA	NA	PRESENT	0.531548023223877	446.478718996048	448.4788839817047	449.5288920878764	449.8788930415307	452.5986371040344	4.119753122329712	[446.5011959075928, 446.61815094947815, 447.58195900917053, 447.7695779800415, 448.5201370716095, 448.6200110912323, 448.7368941307068, 448.8535931110382, 448.9704399108887, 449.0872850418091, 449.2040100097656, 449.3208260536194, 449.43757796287537, 449.5543940067291, 449.6712019443512, 449.78819704055786, 449.9047739505768, 450.0217649936676, 450.1384139060974, 450.25536704063416, 450.3721890449524, 450.5986371040344]	[446.494768565752, 446.611435232412, 447.594435232412, 447.761135232412, 448.511135232412, 448.62780189907204, 448.74446856573206, 448.8611352323921, 448.9778018990521, 449.09446856571213, 449.21113523237216, 449.3278018990322, 449.4444685656922, 449.5611352323522, 449.67780189901225, 449.7944685656723, 449.9111352323323, 450.0278018989923, 450.14446856565235, 450.26113523231237, 450.3778018989724, 450.61113523230574]	2020_Nov_27_1119	59.91794379492806	1	0.375
6	75	FALSE	NN	a	['G', 'A', 'P', 'N', 'Y', 'T', 'B', 'W', 'S', 'V', 'C', 'E', 'Z', 'K', 'H', 'M']	[944, 697, 1456, 1335, 2670, 1888, 760, 2448, 1731, 2245, 829, 904, 2911, 1122, 986, 1224]	14	Absent	NA	NA	ABSENT	0.25591588020324707	452.5853660106659	454.59522795677185	455.8785693962635	456.22857130359216	458.7150030136109	4.119775056838989	[452.6078429222107, 452.7245829105377, 453.69832611083984, 453.8759570121765, 454.6267321109772, 454.7435441017151, 454.8601589202881, 454.9770119190216, 455.09374594688416, 455.2106840610504, 455.32751512527466, 455.4441840648651, 455.56086802482605, 455.6776530742645, 455.7944550514221, 455.91142201423645, 456.0280530452728, 456.1449921131134, 456.26173996925354, 456.3785741329193, 456.4953761100769, 456.71500396728516]	[452.61113523230574, 452.72780189896577, 453.71080189896577, 453.87750189896576, 454.62750189896576, 454.7441685656258, 454.8608352322858, 454.97750189894583, 455.09416856560586, 455.2108352322659, 455.3275018989259, 455.4441685655859, 455.56083523224595, 455.677501898906, 455.794168565566, 455.910835232226, 456.02750189888604, 456.14416856554607, 456.2608352322061, 456.3775018988661, 456.49416856552614, 456.7275018988595]	2020_Nov_27_1119	59.91794379492806	1	0.375
6	76	FALSE	NA	a	['K', 'A', 'Y', 'T', 'E', 'J', 'H', 'X', 'N', 'W', 'Z', 'S', 'U', 'C', 'R', 'B']	[1122, 697, 2670, 1888, 904, 1029, 986, 4000, 1335, 2448, 2911, 1731, 2059, 829, 1587, 760]	8	Present	NA	NA	PRESENT	0.06065201759338379	458.7088449001312	460.7116279602051	461.2949693997368	461.6449713070654	464.83137011528015	4.119742155075073	[458.7313220500946, 458.8478639125824, 459.8146951198578, 459.99921703338623, 460.7499620914459, 460.8666970729828, 460.9834089279175, 461.1001501083374, 461.2170789241791, 461.3338780403137, 461.4510979652405, 461.5675070285797, 461.6843650341034, 461.80105209350586, 461.9179389476776, 462.03447103500366, 462.1515679359436, 462.2681131362915, 462.38511300086975, 462.50174593925476, 462.6185691356659, 462.83137011528015]	[458.7275018988595, 458.8441685655195, 459.8271685655195, 459.9938685655195, 460.7438685655195, 460.86053523217953, 460.97720189883955, 461.0938685654996, 461.2105352321596, 461.3272018988196, 461.44386856547965, 461.56053523213967, 461.6772018987997, 461.7938685654597, 461.91053523211974, 462.02720189877977, 462.1438685654398, 462.2605352320998, 462.37720189875984, 462.49386856541986, 462.6105352320799, 462.84386856541323]	2020_Nov_27_1119	59.91794379492806	1	0.375
6	77	FALSE	NA	a	['H', 'V', 'C', 'R', 'Z', 'N', 'W', 'K', 'E', 'P', 'U', 'G', 'X', 'Y', 'S', 'T']	[986, 2245, 829, 1587, 2911, 1335, 2448, 1122, 904, 1456, 2059, 944, 4000, 2670, 1731, 1888]	13	Present	NA	NA	PRESENT	0.04174685478210449	464.81505703926086	466.8279390335083	467.9946135679214	468.34461571366865	470.9477369785309	4.119797945022583	[464.83753395080566, 464.954332113266, 465.9310619831085, 466.10567593574524, 466.85639905929565, 466.97325801849365, 467.0900330543518, 467.2067849636078, 467.3236119747162, 467.4404311180115, 467.5572819709778, 467.6739640235901, 467.79085206985474, 467.9076189994812, 468.024316072464, 468.14129304885864, 468.25795698165894, 468.37486696243286, 468.4919009208679, 468.60843205451965, 468.72517108917236, 468.9477379322052]	[464.84386856541323, 464.96053523207325, 465.94353523207326, 466.11023523207325, 466.86023523207325, 466.9769018987333, 467.0935685653933, 467.2102352320533, 467.32690189871334, 467.44356856537337, 467.5602352320334, 467.6769018986934, 467.79356856535344, 467.91023523201346, 468.0269018986735, 468.1435685653335, 468.26023523199353, 468.37690189865356, 468.4935685653136, 468.6102352319736, 468.7269018986336, 468.960235231967]	2020_Nov_27_1119	59.91794379492806	1	0.375
6	78	FALSE	NA	a	['Z', 'Y', 'P', 'V', 'J', 'E', 'C', 'G', 'B', 'X', 'K', 'H', 'U', 'A', 'W', 'R']	[2911, 2670, 1456, 2245, 1029, 904, 829, 944, 760, 4000, 1122, 986, 2059, 697, 2448, 1587]	10	Present	NA	NA	PRESENT	0.04659104347229004	470.9384050369262	472.9444200992584	473.7610946336915	474.1110967794387	477.0641031265259	4.119683027267456	[470.96088194847107, 471.07770013809204, 472.04742908477783, 472.22877311706543, 472.9795300960541, 473.0965111255646, 473.21325492858887, 473.3301479816437, 473.4468250274658, 473.5637540817261, 473.6804361343384, 473.7973201274872, 473.9140419960022, 474.0308380126953, 474.14747309684753, 474.26433300971985, 474.3812041282654, 474.4979429244995, 474.61493611335754, 474.73166704177856, 474.84847497940063, 475.0641040802002]	[470.960235231967, 471.076901898627, 472.059901898627, 472.226601898627, 472.976601898627, 473.093268565287, 473.20993523194704, 473.32660189860707, 473.4432685652671, 473.5599352319271, 473.67660189858714, 473.79326856524716, 473.9099352319072, 474.0266018985672, 474.14326856522723, 474.25993523188725, 474.3766018985473, 474.4932685652073, 474.6099352318673, 474.72660189852735, 474.8432685651874, 475.0766018985207]	2020_Nov_27_1119	59.91794379492806	1	0.375
6	79	FALSE	NN	a	['W', 'K', 'E', 'G', 'R', 'C', 'V', 'P', 'Z', 'J', 'B', 'H', 'S', 'M', 'U', 'Y']	[2448, 1122, 904, 944, 1587, 829, 2245, 1456, 2911, 1029, 760, 986, 1731, 1224, 2059, 2670]	13	Absent	NA	NA	ABSENT	0.27577781677246094	477.0616121292114	479.060830116272	480.2275036970108	480.5775056043394	483.1804709434509	4.119640827178955	[477.0840880870819, 477.2008249759674, 478.16379499435425, 478.3352289199829, 479.1033070087433, 479.2029149532318, 479.3197190761566, 479.43657207489014, 479.55353307724, 479.6700830459595, 479.78685307502747, 479.90379095077515, 480.020455121994, 480.1374521255493, 480.2540400028229, 480.3710160255432, 480.4876711368561, 480.6045169830322, 480.7211890220642, 480.83810210227966, 480.95482110977173, 481.1804699897766]	[477.0766018985207, 477.19326856518074, 478.17626856518075, 478.34296856518074, 479.09296856518074, 479.20963523184076, 479.3263018985008, 479.4429685651608, 479.55963523182083, 479.67630189848086, 479.7929685651409, 479.9096352318009, 480.02630189846093, 480.14296856512095, 480.259635231781, 480.376301898441, 480.492968565101, 480.60963523176105, 480.72630189842107, 480.8429685650811, 480.9596352317411, 481.19296856507447]	2020_Nov_27_1119	59.91794379492806	1	0.375
