participant	trial_num	practice	task	condition	RSVP	RAP	probePos	probe_presence	surprise_sound	surprise_img	probe_response	probe_resp_time	first_fixation_time	trial_start_time	surprise_start_time	probe_start_time	trial_end_time	trial_duration	actualEventTimes	plannedEventTimes	date	framerate	marker_vol	RAP_vol
10	1	FALSE	NA	a	['P', 'J', 'E', 'A', 'N', 'C', 'M', 'B', 'G', 'X', 'K', 'V', 'H', 'W', 'R', 'T']	[1456, 1029, 904, 697, 1335, 829, 1224, 760, 944, 4000, 1122, 2245, 986, 2448, 1587, 1888]	10	Present	NA	NA	PRESENT	0.4821350574493408	2.1457672119140625e-6	1.9978461265563965	2.814521853082402	3.164523760411035	6.1038689613342285	4.106022834777832	[0.012120962142944336, 0.11225104331970215, 1.0871920585632324, 1.2635180950164795, 2.0313169956207275, 2.1313750743865967, 2.248055934906006, 2.36482310295105, 2.4815220832824707, 2.5983669757843018, 2.715019941329956, 2.8317930698394775, 2.948496103286743, 3.0652289390563965, 3.1822519302368164, 3.2989771366119385, 3.415670156478882, 3.532654047012329, 3.6493711471557617, 3.766087055206299, 3.882956027984619, 4.1038689613342285]	[9.5367431640625e-07, 0.11666762033431641, 1.0996676203343163, 1.2663676203343164, 2.016367620334316, 2.133034286994316, 2.249700953654316, 2.3663676203143162, 2.4830342869743163, 2.5997009536343163, 2.7163676202943163, 2.8330342869543164, 2.9497009536143164, 3.0663676202743164, 3.1830342869343164, 3.2997009535943165, 3.4163676202543165, 3.5330342869143165, 3.6497009535743166, 3.7663676202343166, 3.8830342868943166, 4.11636762022765]	2021_Jan_26_1301	59.931899206252815	1	0.375
10	2	FALSE	NA	a	['C', 'N', 'H', 'P', 'W', 'Z', 'A', 'Y', 'G', 'T', 'S', 'X', 'V', 'U', 'E', 'K']	[829, 1335, 986, 1456, 2448, 2911, 697, 2670, 944, 1888, 1731, 4000, 2245, 2059, 904, 1122]	12	Present	NA	NA	PRESENT	0.9663100242614746	6.106508016586304	8.110934972763062	9.160943078934752	9.510944986263384	12.22023606300354	4.1093010902404785	[6.118627071380615, 6.235512971878052, 7.203557014465332, 7.386469125747681, 8.137334108352661, 8.254421949386597, 8.370931148529053, 8.487895011901855, 8.60487699508667, 8.72129511833191, 8.838068962097168, 8.954805135726929, 9.071622133255005, 9.188442945480347, 9.305406093597412, 9.422126054763794, 9.53895616531372, 9.65563416481018, 9.772592067718506, 9.889223098754883, 10.00617003440857, 10.22023606300354]	[6.11636762022765, 6.23303428688765, 7.216034286887649, 7.382734286887649, 8.132734286887649, 8.24940095354765, 8.36606762020765, 8.48273428686765, 8.59940095352765, 8.716067620187651, 8.832734286847652, 8.949400953507652, 9.066067620167653, 9.182734286827653, 9.299400953487654, 9.416067620147654, 9.532734286807655, 9.649400953467655, 9.766067620127656, 9.882734286787656, 9.999400953447656, 10.232734286780989]	2021_Jan_26_1301	59.931899206252815	1	0.375
10	3	FALSE	NA	a	['B', 'N', 'V', 'U', 'M', 'Y', 'Z', 'K', 'R', 'W', 'E', 'T', 'X', 'P', 'G', 'A']	[760, 1335, 2245, 2059, 1224, 2670, 2911, 1122, 1587, 2448, 904, 1888, 4000, 1456, 944, 697]	13	Present	NA	NA	PRESENT	0.851855993270874	12.23006820678711	14.227328062057495	15.394002834889184	15.744004742217818	18.33660316467285	4.1092751026153564	[12.242187976837158, 12.341706991195679, 13.319924116134644, 13.493098974227905, 14.260570049285889, 14.360665082931519, 14.477534055709839, 14.594292163848877, 14.711053133010864, 14.827713012695312, 14.944407939910889, 15.061413049697876, 15.178317070007324, 15.294894933700562, 15.411695957183838, 15.52860713005066, 15.645461082458496, 15.762135982513428, 15.878895044326782, 15.995849132537842, 16.112462043762207, 16.336601972579956]	[12.232734286780989, 12.34940095344099, 13.33240095344099, 13.49910095344099, 14.24910095344099, 14.365767620100991, 14.482434286760991, 14.599100953420992, 14.715767620080992, 14.832434286740993, 14.949100953400993, 15.065767620060994, 15.182434286720994, 15.299100953380995, 15.415767620040995, 15.532434286700996, 15.649100953360996, 15.765767620020997, 15.882434286680997, 15.999100953340998, 16.115767620000998, 16.349100953334332]	2021_Jan_26_1301	59.931899206252815	1	0.375
10	4	FALSE	VV	a	['C', 'A', 'T', 'R', 'S', 'G', 'Z', 'P', 'Y', 'surprise', 'M', 'E', 'X', 'U', 'W', 'J']	[829, 697, 1888, 1587, 1731, 944, 2911, 1456, 2670, 'stimAuditory/all_stimAuditory/120.wav', 1224, 904, 4000, 2059, 2448, 1029]	13	Present	NA	NA	NONE	-1	18.336011171340942	20.343631982803345	21.510306755635035	21.860308662963668	24.47123694419861	4.127604961395264	[18.34813094139099, 18.465003967285156, 19.436290979385376, 19.616311073303223, 20.366855144500732, 20.483888149261475, 20.600479125976562, 20.71750807762146, 20.834113121032715, 20.950881004333496, 21.067662954330444, 21.184448957443237, 21.301217079162598, 21.41821312904358, 21.534948110580444, 21.651538133621216, 21.768404960632324, 21.885376930236816, 22.002158164978027, 22.11894202232361, 22.23569393157959, 22.452970027923584]	[18.349100953334332, 18.46576761999433, 19.44876761999433, 19.61546761999433, 20.36546761999433, 20.48213428665433, 20.598800953314328, 20.715467619974326, 20.832134286634325, 20.948800953294324, 21.065467619954322, 21.18213428661432, 21.29880095327432, 21.41546761993432, 21.532134286594317, 21.648800953254316, 21.765467619914315, 21.882134286574313, 21.998800953234312, 22.11546761989431, 22.23213428655431, 22.465467619887644]	2021_Jan_26_1301	59.931899206252815	1	0.375
10	5	FALSE	NA	a	['H', 'V', 'U', 'G', 'B', 'K', 'P', 'C', 'R', 'W', 'X', 'A', 'T', 'S', 'Z', 'N']	[986, 2245, 2059, 944, 760, 1122, 1456, 829, 1587, 2448, 4000, 697, 1888, 1731, 2911, 1335]	11	Present	NA	NA	PRESENT	0.5256309509277344	24.475831985473633	26.45980715751648	27.393147404935274	27.743149312263903	30.5693359375	4.1095287799835205	[24.487950086593628, 24.58827805519104, 25.552659034729004, 25.73922896385193, 26.490198135375977, 26.60707402229309, 26.723773956298828, 26.840450048446655, 26.957157135009766, 27.05721116065979, 27.1740620136261, 27.290859937667847, 27.407546997070312, 27.52443814277649, 27.641211986541748, 27.75794506072998, 27.874799966812134, 27.991546154022217, 28.108376026153564, 28.22522807121277, 28.342031955718994, 28.5693359375]	[24.465467619887644, 24.582134286547642, 25.565134286547643, 25.73183428654764, 26.48183428654764, 26.59850095320764, 26.71516761986764, 26.831834286527638, 26.948500953187636, 27.065167619847635, 27.181834286507634, 27.298500953167633, 27.41516761982763, 27.53183428648763, 27.64850095314763, 27.765167619807627, 27.881834286467626, 27.998500953127625, 28.115167619787623, 28.231834286447622, 28.34850095310762, 28.581834286440955]	2021_Jan_26_1301	59.931899206252815	1	0.375
10	6	FALSE	NA	a	['P', 'U', 'A', 'T', 'Z', 'B', 'N', 'C', 'W', 'K', 'R', 'J', 'H', 'X', 'M', 'G']	[1456, 2059, 697, 1888, 2911, 760, 1335, 829, 2448, 1122, 1587, 1029, 986, 4000, 1224, 944]	14	Present	NA	NA	PRESENT	0.34613990783691406	30.56577515602112	32.57638597488403	33.859727414375726	34.20972932170436	36.685702085494995	4.109316110610962	[30.57789397239685, 30.69455909729004, 31.669023990631104, 31.84564709663391, 32.596900939941406, 32.71351909637451, 32.83009099960327, 32.947108030319214, 33.063786029815674, 33.18043303489685, 33.29720401763916, 33.414067029953, 33.530755043029785, 33.64773416519165, 33.76434898376465, 33.88133502006531, 33.99805212020874, 34.11494207382202, 34.23166513442993, 34.348264932632446, 34.46530294418335, 34.685702085494995]	[30.581834286440955, 30.698500953100954, 31.681500953100954, 31.848200953100953, 32.59820095310096, 32.71486761976096, 32.83153428642096, 32.94820095308096, 33.064867619740966, 33.18153428640097, 33.29820095306097, 33.41486761972097, 33.531534286380975, 33.64820095304098, 33.76486761970098, 33.88153428636098, 33.998200953020984, 34.114867619680986, 34.23153428634099, 34.34820095300099, 34.46486761966099, 34.69820095299433]	2021_Jan_26_1301	59.931899206252815	1	0.375
10	7	FALSE	NN	a	['S', 'C', 'Z', 'M', 'K', 'W', 'G', 'T', 'B', 'H', 'P', 'Y', 'N', 'R', 'E', 'V']	[1731, 829, 2911, 1224, 1122, 2448, 944, 1888, 760, 986, 1456, 2670, 1335, 1587, 904, 2245]	12	Absent	NA	NA	ABSENT	0.5826880931854248	36.688719034194946	38.692920207977295	39.74292902940472	40.09293117515193	42.80207014083862	4.109149932861328	[36.70083808898926, 36.817744970321655, 37.78539204597473, 37.96900200843811, 38.71961998939514, 38.83641004562378, 38.953248023986816, 39.07025194168091, 39.18687915802002, 39.303728103637695, 39.42034697532654, 39.53714299201965, 39.65405297279358, 39.77090406417847, 39.88772416114807, 40.004436016082764, 40.121320962905884, 40.237982988357544, 40.354716062545776, 40.471473932266235, 40.58857703208923, 40.80206894874573]	[36.69820095299433, 36.81486761965433, 37.797867619654326, 37.964567619654325, 38.714567619654325, 38.83123428631433, 38.94790095297433, 39.06456761963433, 39.181234286294334, 39.297900952954336, 39.41456761961434, 39.53123428627434, 39.64790095293434, 39.764567619594345, 39.88123428625435, 39.99790095291435, 40.11456761957435, 40.231234286234354, 40.347900952894356, 40.46456761955436, 40.58123428621436, 40.814567619547695]	2021_Jan_26_1301	59.931899206252815	1	0.375
10	8	FALSE	NV	a	['N', 'K', 'C', 'Y', 'Z', 'B', 'W', 'P', 'H', 'T', 'V', 'R', 'X', 'G', 'M', 'U']	[1335, 1122, 829, 2670, 2911, 760, 2448, 1456, 986, 1888, 2245, 1587, 4000, 944, 1224, 2059]	13	Present	NA	NA	PRESENT	0.3081200122833252	42.81264114379883	44.8093101978302	45.97598568591763	46.32598783166484	48.91843605041504	4.109125852584839	[42.824761152267456, 42.92409801483154, 43.90176296234131, 44.07544708251953, 44.82606506347656, 44.94294214248657, 45.059613943099976, 45.17651009559631, 45.29311203956604, 45.41010403633118, 45.52692103385925, 45.64370799064636, 45.760565996170044, 45.87721014022827, 45.99396514892578, 46.11095714569092, 46.2275071144104, 46.34451198577881, 46.46122598648071, 46.57806205749512, 46.694798946380615, 46.918437004089355]	[42.814567619547695, 42.9312342862077, 43.914234286207694, 44.08093428620769, 44.83093428620769, 44.947600952867695, 45.0642676195277, 45.1809342861877, 45.2976009528477, 45.414267619507704, 45.53093428616771, 45.64760095282771, 45.76426761948771, 45.88093428614771, 45.997600952807716, 46.11426761946772, 46.23093428612772, 46.34760095278772, 46.464267619447725, 46.58093428610773, 46.69760095276773, 46.93093428610106]	2021_Jan_26_1301	59.931899206252815	1	0.375
10	9	FALSE	NN	a	['H', 'Y', 'N', 'G', 'U', 'J', 'K', 'T', 'E', 'R', 'Z', 'V', 'S', 'A', 'P', 'C']	[986, 2670, 1335, 944, 2059, 1029, 1122, 1888, 904, 1587, 2911, 2245, 1731, 697, 1456, 829]	8	Absent	NA	NA	ABSENT	0.376492977142334	48.91853904724121	50.925379037857056	51.50872047738874	51.858722384717375	55.034801959991455	4.109422922134399	[48.930657148361206, 49.04728603363037, 50.01812505722046, 50.19840598106384, 50.94914507865906, 51.06618905067444, 51.18297600746155, 51.29976296424866, 51.416358947753906, 51.53301405906677, 51.65014600753784, 51.766900062561035, 51.88363194465637, 52.000458002090454, 52.11746096611023, 52.23381304740906, 52.350791931152344, 52.467496156692505, 52.5842649936676, 52.70126295089722, 52.81800293922424, 53.03480315208435]	[48.93093428610106, 49.047600952761066, 50.03060095276106, 50.19730095276106, 50.94730095276106, 51.063967619421064, 51.180634286081066, 51.29730095274107, 51.41396761940107, 51.53063428606107, 51.647300952721075, 51.76396761938108, 51.88063428604108, 51.99730095270108, 52.113967619361084, 52.230634286021086, 52.34730095268109, 52.46396761934109, 52.58063428600109, 52.697300952661095, 52.8139676193211, 53.04730095265443]	2021_Jan_26_1301	59.931899206252815	1	0.375
10	10	FALSE	NN	a	['R', 'B', 'C', 'Y', 'K', 'J', 'H', 'T', 'W', 'U', 'V', 'M', 'A', 'N', 'G', 'Z']	[1587, 760, 829, 2670, 1122, 1029, 986, 1888, 2448, 2059, 2245, 1224, 697, 1335, 944, 2911]	9	Absent	NA	NA	ABSENT	0.9018800258636476	55.04166507720947	57.04171800613403	57.74172611232572	58.091728019654354	61.15116906166077	4.109451055526733	[55.05378293991089, 55.17031407356262, 56.13449215888977, 56.321529150009155, 57.072530031204224, 57.172446966171265, 57.289226055145264, 57.406087160110474, 57.52276396751404, 57.639589071273804, 57.756284952163696, 57.87311816215515, 57.98986506462097, 58.10671401023865, 58.2234320640564, 58.34044098854065, 58.45707297325134, 58.57411313056946, 58.69076204299927, 58.807600021362305, 58.924328088760376, 59.15117001533508]	[55.04730095265443, 55.163967619314434, 56.14696761931443, 56.31366761931443, 57.06366761931443, 57.18033428597443, 57.297000952634434, 57.413667619294436, 57.53033428595444, 57.64700095261444, 57.76366761927444, 57.880334285934445, 57.99700095259445, 58.11366761925445, 58.23033428591445, 58.347000952574454, 58.46366761923446, 58.58033428589446, 58.69700095255446, 58.81366761921446, 58.930334285874466, 59.1636676192078]	2021_Jan_26_1301	59.931899206252815	1	0.375
10	11	FALSE	AA	a	['B', 'R', 'S', 'A', 'C', 'surprise', 'T', 'N', 'X', 'U', 'H', 'M', 'G', 'W', 'E', 'Z']	[760, 1587, 1731, 697, 829, 'stimAuditory/all_stimAuditory/215.wav', 1888, 1335, 4000, 2059, 986, 1224, 944, 2448, 904, 2911]	9	Present	stimAuditory/all_stimAuditory/120.wav	NA	PRESENT	0.3544929027557373	61.14801001548767	63.15823197364807	63.85824007983976	64.20824198716839	67.2675371170044	4.109305143356323	[61.16012907028198, 61.276962995529175, 62.25085806846619, 62.42847299575806, 63.17882800102234, 63.295719146728516, 63.41230797767639, 63.529191970825195, 63.64587903022766, 63.762778997421265, 63.8794801235199, 63.99645805358887, 64.11323094367981, 64.23004508018494, 64.34673500061035, 64.46352005004883, 64.5803530216217, 64.69716095924377, 64.81389093399048, 64.93077993392944, 65.04757404327393, 65.26753616333008]	[61.1636676192078, 61.2803342858678, 62.2633342858678, 62.4300342858678, 63.1800342858678, 63.2967009525278, 63.4133676191878, 63.530034285847805, 63.64670095250781, 63.76336761916781, 63.88003428582781, 63.996700952487814, 64.11336761914781, 64.2300342858078, 64.3467009524678, 64.4633676191278, 64.58003428578779, 64.69670095244778, 64.81336761910778, 64.93003428576777, 65.04670095242777, 65.2800342857611]	2021_Jan_26_1301	59.931899206252815	1	0.375
10	12	FALSE	NA	a	['E', 'Y', 'V', 'B', 'J', 'K', 'A', 'G', 'H', 'T', 'X', 'N', 'R', 'M', 'C', 'U']	[904, 2670, 2245, 760, 1029, 1122, 697, 944, 986, 1888, 4000, 1335, 1587, 1224, 829, 2059]	11	Present	NA	NA	PRESENT	0.2872028350830078	67.2710452079773	69.2744550704956	70.2077953179144	70.55779746366161	73.3839020729065	4.109447002410889	[67.28316402435303, 67.40013909339905, 68.36722898483276, 68.55127000808716, 69.30198001861572, 69.41875195503235, 69.53556513786316, 69.65243816375732, 69.76917505264282, 69.88598299026489, 70.00279998779297, 70.11939001083374, 70.23646903038025, 70.35308599472046, 70.46985197067261, 70.58653903007507, 70.70355010032654, 70.82039713859558, 70.937096118927, 71.05379796028137, 71.17066502571106, 71.38390398025513]	[67.2800342857611, 67.3967009524211, 68.3797009524211, 68.54640095242111, 69.29640095242111, 69.4130676190811, 69.5297342857411, 69.6464009524011, 69.76306761906109, 69.87973428572109, 69.99640095238108, 70.11306761904108, 70.22973428570107, 70.34640095236107, 70.46306761902106, 70.57973428568106, 70.69640095234105, 70.81306761900105, 70.92973428566104, 71.04640095232104, 71.16306761898103, 71.39640095231437]	2021_Jan_26_1301	59.931899206252815	1	0.375
10	13	FALSE	NA	a	['P', 'N', 'T', 'C', 'Y', 'G', 'K', 'Z', 'J', 'X', 'R', 'E', 'A', 'M', 'S', 'B']	[1456, 1335, 1888, 829, 2670, 944, 1122, 2911, 1029, 4000, 1587, 904, 697, 1224, 1731, 760]	10	Present	NA	NA	ABSENT	1.3403868675231934	73.37775802612305	75.3910231590271	76.20769673978589	76.55769864711452	79.50026893615723	4.109245777130127	[73.38987708091736, 73.50632810592651, 74.48359203338623, 74.6575710773468, 75.40832614898682, 75.52531313896179, 75.64194393157959, 75.75872993469238, 75.8753890991211, 75.9924681186676, 76.10909700393677, 76.22610592842102, 76.34265303611755, 76.45935797691345, 76.57624912261963, 76.69313311576843, 76.81003212928772, 76.92675614356995, 77.04347896575928, 77.16031694412231, 77.27711510658264, 77.50027108192444]	[73.39640095231437, 73.51306761897436, 74.49606761897437, 74.66276761897437, 75.41276761897437, 75.52943428563437, 75.64610095229436, 75.76276761895436, 75.87943428561435, 75.99610095227435, 76.11276761893434, 76.22943428559434, 76.34610095225433, 76.46276761891433, 76.57943428557432, 76.69610095223432, 76.81276761889431, 76.92943428555431, 77.0461009522143, 77.1627676188743, 77.2794342855343, 77.51276761886763]	2021_Jan_26_1301	59.931899206252815	1	0.375
10	14	FALSE	VA	a	['P', 'K', 'M', 'C', 'surprise', 'G', 'R', 'X', 'T', 'J', 'W', 'N', 'Z', 'U', 'A', 'V']	[1456, 1122, 1224, 829, 'stimAuditory/all_stimAuditory/112.wav', 944, 1587, 4000, 1888, 1029, 2448, 1335, 2911, 2059, 697, 2245]	8	Present	NA	NA	PRESENT	0.3049929141998291	79.50058698654175	81.50717616081238	82.09051640825118	82.44051831557981	85.61663603782654	4.10945987701416	[79.51270604133606, 79.62954616546631, 80.59995794296265, 80.78064894676208, 81.53154397010803, 81.6485390663147, 81.76516699790955, 81.88193893432617, 81.99863910675049, 82.11534214019775, 82.23226809501648, 82.3493480682373, 82.46585512161255, 82.58276200294495, 82.6996099948883, 82.81620907783508, 82.93309116363525, 83.04998302459717, 83.16702008247375, 83.28350901603699, 83.4002571105957, 83.61663603782654]	[79.51276761886763, 79.62943428552762, 80.61243428552763, 80.77913428552763, 81.52913428552763, 81.64580095218763, 81.76246761884762, 81.87913428550762, 81.99580095216761, 82.11246761882761, 82.2291342854876, 82.3458009521476, 82.4624676188076, 82.57913428546759, 82.69580095212758, 82.81246761878758, 82.92913428544757, 83.04580095210757, 83.16246761876756, 83.27913428542756, 83.39580095208755, 83.62913428542089]	2021_Jan_26_1301	59.931899206252815	1	0.375
10	15	FALSE	NN	a	['K', 'S', 'J', 'R', 'N', 'A', 'Z', 'B', 'C', 'P', 'W', 'V', 'T', 'U', 'E', 'G']	[1122, 1731, 1029, 1587, 1335, 697, 2911, 760, 829, 1456, 2448, 2245, 1888, 2059, 904, 944]	12	Absent	NA	NA	ABSENT	0.3661348819732666	85.62389397621155	87.62360215187073	88.67361001962384	89.02361216537105	91.73300313949584	4.109400987625122	[85.63601207733154, 85.75265002250671, 86.71632695198059, 86.90403604507446, 87.65473699569702, 87.75474715232849, 87.87144494056702, 87.98810195922852, 88.10505795478821, 88.22178602218628, 88.338632106781, 88.45535898208618, 88.57215714454651, 88.68904614448547, 88.80583596229553, 88.92258596420288, 89.03961396217346, 89.15625500679016, 89.2730040550232, 89.38977003097534, 89.50657296180725, 89.73300194740295]	[85.62913428542089, 85.74580095208088, 86.72880095208089, 86.8955009520809, 87.6455009520809, 87.76216761874089, 87.87883428540088, 87.99550095206088, 88.11216761872087, 88.22883428538087, 88.34550095204087, 88.46216761870086, 88.57883428536086, 88.69550095202085, 88.81216761868085, 88.92883428534084, 89.04550095200084, 89.16216761866083, 89.27883428532083, 89.39550095198082, 89.51216761864082, 89.74550095197415]	2021_Jan_26_1301	59.931899206252815	1	0.375
10	16	FALSE	NN	a	['N', 'Z', 'C', 'P', 'T', 'M', 'E', 'S', 'J', 'A', 'K', 'H', 'U', 'W', 'Y', 'V']	[1335, 2911, 829, 1456, 1888, 1224, 904, 1731, 1029, 697, 1122, 986, 2059, 2448, 2670, 2245]	11	Absent	NA	NA	ABSENT	0.4746739864349365	91.73020911216736	93.73985314369202	94.67319434478512	95.02319649053234	97.84937000274658	4.109516859054565	[91.74232697486877, 91.8592209815979, 92.83269500732422, 93.01030206680298, 93.76137495040894, 93.87802910804749, 93.99459099769592, 94.1115951538086, 94.22819113731384, 94.34508514404297, 94.46177005767822, 94.5786030292511, 94.69551396369934, 94.8121690750122, 94.92915797233582, 95.04572200775146, 95.16262197494507, 95.27944016456604, 95.3962299823761, 95.5129611492157, 95.62979507446289, 95.84937000274658]	[91.74550095197415, 91.86216761863415, 92.84516761863415, 93.01186761863416, 93.76186761863416, 93.87853428529415, 93.99520095195415, 94.11186761861414, 94.22853428527414, 94.34520095193413, 94.46186761859413, 94.57853428525412, 94.69520095191412, 94.81186761857411, 94.92853428523411, 95.0452009518941, 95.1618676185541, 95.27853428521409, 95.39520095187409, 95.51186761853408, 95.62853428519408, 95.86186761852741]	2021_Jan_26_1301	59.931899206252815	1	0.375
10	17	FALSE	NA	a	['Z', 'N', 'T', 'P', 'M', 'H', 'S', 'G', 'W', 'X', 'A', 'U', 'Y', 'R', 'V', 'J']	[2911, 1335, 1888, 1456, 1224, 986, 1731, 944, 2448, 4000, 697, 2059, 2670, 1587, 2245, 1029]	10	Present	NA	NA	PRESENT	0.35939502716064453	97.85338306427002	99.856379032135	100.67305285131238	101.023054758641	103.9657371044159	4.109358072280884	[97.86550307273865, 97.98239207267761, 98.949059009552, 99.13354706764221, 99.88434100151062, 100.0011191368103, 100.11789512634277, 100.23449897766113, 100.35146713256836, 100.46831703186035, 100.58510613441467, 100.7018301486969, 100.81893610954285, 100.93545413017273, 101.0521969795227, 101.16900110244751, 101.28590202331543, 101.40247297286987, 101.51928210258484, 101.63615393638611, 101.75293493270874, 101.9657371044159]	[97.86186761852741, 97.97853428518741, 98.96153428518741, 99.12823428518742, 99.87823428518742, 99.99490095184741, 100.11156761850741, 100.2282342851674, 100.3449009518274, 100.4615676184874, 100.57823428514739, 100.69490095180738, 100.81156761846738, 100.92823428512737, 101.04490095178737, 101.16156761844736, 101.27823428510736, 101.39490095176735, 101.51156761842735, 101.62823428508734, 101.74490095174734, 101.97823428508067]	2021_Jan_26_1301	59.931899206252815	1	0.375
10	18	FALSE	NA	a	['M', 'B', 'E', 'T', 'V', 'P', 'S', 'C', 'H', 'J', 'R', 'N', 'K', 'X', 'Y', 'A']	[1224, 760, 904, 1888, 2245, 1456, 1731, 829, 986, 1029, 1587, 1335, 1122, 4000, 2670, 697]	14	Present	NA	NA	PRESENT	0.3883950710296631	103.95997500419617	105.97284197807312	107.2561834175648	107.60618532489345	110.082102060318	4.109260082244873	[103.97209405899048, 104.08861708641052, 105.06542611122131, 105.23994708061218, 105.99064707756042, 106.1076271533966, 106.22420907020569, 106.3411021232605, 106.45775699615479, 106.57469916343689, 106.69132399559021, 106.80828809738159, 106.92501401901245, 107.04179215431213, 107.1586229801178, 107.27523112297058, 107.39220404624939, 107.50893115997314, 107.62569904327393, 107.74272799491882, 107.8594000339508, 108.08210301399231]	[103.97823428508067, 104.09490095174067, 105.07790095174067, 105.24460095174068, 105.99460095174068, 106.11126761840067, 106.22793428506067, 106.34460095172066, 106.46126761838066, 106.57793428504066, 106.69460095170065, 106.81126761836065, 106.92793428502064, 107.04460095168064, 107.16126761834063, 107.27793428500063, 107.39460095166062, 107.51126761832062, 107.62793428498061, 107.7446009516406, 107.8612676183006, 108.09460095163394]	2021_Jan_26_1301	59.931899206252815	1	0.375
10	19	FALSE	AV	a	['H', 'W', 'A', 'E', 'Z', 'P', 'Y', 'surprise', 'J', 'S', 'X', 'R', 'B', 'U', 'V', 'K']	[986, 2448, 697, 904, 2911, 1456, 2670, 'stimAuditory/all_stimAuditory/118.wav', 1029, 1731, 4000, 1587, 760, 2059, 2245, 1122]	11	Present	stimAuditory/all_stimAuditory/215.wav	NA	PRESENT	0.313126802444458	110.08284306526184	112.08920907974245	113.02255051925412	113.37255147290844	116.1984691619873	4.109260082244873	[110.09496307373047, 110.21191501617432, 111.18179297447205, 111.36308598518372, 112.11375594139099, 112.23069310188293, 112.34732103347778, 112.46413016319275, 112.58105206489563, 112.69769501686096, 112.8147189617157, 112.9313690662384, 113.04821801185608, 113.16521310806274, 113.2816960811615, 113.39849305152893, 113.51545095443726, 113.6320059299469, 113.74905014038086, 113.86563110351562, 113.98241305351257, 114.19847011566162]	[110.09460095163394, 110.21126761829393, 111.19426761829394, 111.36096761829394, 112.11096761829394, 112.22763428495394, 112.34430095161393, 112.46096761827393, 112.57763428493392, 112.69430095159392, 112.81096761825391, 112.9276342849139, 113.0443009515739, 113.1609676182339, 113.27763428489389, 113.39430095155389, 113.51096761821388, 113.62763428487388, 113.74430095153387, 113.86096761819387, 113.97763428485386, 114.2109676181872]	2021_Jan_26_1301	59.931899206252815	1	0.375
10	20	FALSE	NA	a	['C', 'P', 'B', 'A', 'K', 'Y', 'J', 'E', 'X', 'H', 'M', 'T', 'S', 'W', 'U', 'V']	[829, 1456, 760, 697, 1122, 2670, 1029, 904, 4000, 986, 1224, 1888, 1731, 2448, 2059, 2245]	9	Present	NA	NA	PRESENT	0.48662900924682617	116.20611000061037	118.20552206039427	118.90553016658598	119.2555401801463	122.31483602523804	4.10931396484375	[116.21822905540466, 116.33482694625854, 117.29815793037415, 117.48642802238464, 118.2370240688324, 118.33696007728577, 118.4536681175232, 118.57045912742615, 118.68734908103943, 118.8040919303894, 118.92088603973389, 119.03773808479309, 119.15450310707092, 119.27127599716187, 119.38832211494446, 119.505038022995, 119.62170100212097, 119.7384819984436, 119.85533714294434, 119.97204399108887, 120.08882594108582, 120.31483602523804]	[116.2109676181872, 116.32763428484719, 117.3106342848472, 117.4773342848472, 118.2273342848472, 118.3440009515072, 118.4606676181672, 118.57733428482719, 118.69400095148718, 118.81066761814718, 118.92733428480717, 119.04400095146717, 119.16066761812716, 119.27733428478716, 119.39400095144715, 119.51066761810715, 119.62733428476714, 119.74400095142714, 119.86066761808713, 119.97733428474713, 120.09400095140712, 120.32733428474046]	2021_Jan_26_1301	59.931899206252815	1	0.375
10	21	FALSE	NN	a	['H', 'E', 'G', 'B', 'Z', 'C', 'N', 'M', 'T', 'Y', 'W', 'P', 'A', 'V', 'S', 'R']	[986, 904, 944, 760, 2911, 829, 1335, 1224, 1888, 2670, 2448, 1456, 697, 2245, 1731, 1587]	12	Absent	NA	NA	ABSENT	0.5068728923797607	122.31245517730711	124.32174515724182	125.37175302499492	125.72175517074214	128.43120312690735	4.109457969665527	[122.32457304000854, 122.44143009185791, 123.41452693939209, 123.59280300140381, 124.34337902069092, 124.46022200584412, 124.57701110839844, 124.69387292861938, 124.8106300830841, 124.9272871017456, 125.04439616203308, 125.16092014312744, 125.27779293060303, 125.3946521282196, 125.51129603385925, 125.62798500061035, 125.74494099617004, 125.86157703399658, 125.97861099243164, 126.09538292884827, 126.2121970653534, 126.43120408058167]	[122.32733428474046, 122.44400095140045, 123.42700095140046, 123.59370095140046, 124.34370095140046, 124.46036761806046, 124.57703428472045, 124.69370095138045, 124.81036761804044, 124.92703428470044, 125.04370095136044, 125.16036761802043, 125.27703428468043, 125.39370095134042, 125.51036761800042, 125.62703428466041, 125.7437009513204, 125.8603676179804, 125.9770342846404, 126.09370095130039, 126.21036761796039, 126.44370095129372]	2021_Jan_26_1301	59.931899206252815	1	0.375
10	22	FALSE	AA	a	['K', 'Y', 'S', 'R', 'surprise', 'P', 'H', 'X', 'G', 'C', 'T', 'A', 'E', 'V', 'M', 'N']	[1122, 2670, 1731, 1587, 'stimAuditory/all_stimAuditory/217.wav', 1456, 986, 4000, 944, 829, 1888, 697, 904, 2245, 1224, 1335]	8	Present	stimAuditory/all_stimAuditory/112.wav	NA	PRESENT	0.4957578182220459	128.43560814857483	130.43821907043457	131.02156050996626	131.37156241729488	134.54756903648376	4.109349966049194	[128.44772696495056, 128.56457495689392, 129.5308940410614, 129.71583914756775, 130.46659898757935, 130.58329916000366, 130.70017313957214, 130.81730914115906, 130.93379402160645, 131.0505759716034, 131.1671199798584, 131.28417301177979, 131.40088510513306, 131.5175449848175, 131.63437294960022, 131.75118398666382, 131.8679370880127, 131.98474311828613, 132.1015751361847, 132.21851015090942, 132.33517408370972, 132.54756999015808]	[128.44370095129372, 128.56036761795372, 129.54336761795372, 129.7100676179537, 130.4600676179537, 130.5767342846137, 130.6934009512737, 130.8100676179337, 130.9267342845937, 131.0434009512537, 131.16006761791368, 131.27673428457368, 131.39340095123367, 131.51006761789367, 131.62673428455366, 131.74340095121366, 131.86006761787365, 131.97673428453365, 132.09340095119364, 132.21006761785364, 132.32673428451363, 132.56006761784695]	2021_Jan_26_1301	59.931899206252815	1	0.375
10	23	FALSE	NN	a	['W', 'J', 'Z', 'T', 'Y', 'V', 'H', 'A', 'N', 'K', 'C', 'B', 'U', 'R', 'E', 'G']	[2448, 1029, 2911, 1888, 2670, 2245, 986, 697, 1335, 1122, 829, 760, 2059, 1587, 904, 944]	11	Absent	NA	NA	ABSENT	0.532965898513794	134.54222297668457	136.5545370578766	137.48787849738827	137.8378804047169	140.6639370918274	4.109400033950806	[134.55434203147888, 134.67081212997437, 135.6472611427307, 135.82207608222961, 136.57300209999084, 136.68985104560852, 136.80662894248962, 136.92343306541443, 137.0400800704956, 137.15690994262695, 137.27368116378784, 137.39038014411926, 137.50734114646912, 137.62424898147583, 137.7409541606903, 137.85755109786987, 137.9745750427246, 138.09122705459595, 138.20820999145508, 138.3247890472412, 138.44180512428284, 138.66393613815308]	[134.56006761784695, 134.67673428450695, 135.65973428450695, 135.82643428450695, 136.57643428450695, 136.69310095116694, 136.80976761782694, 136.92643428448693, 137.04310095114693, 137.15976761780692, 137.27643428446692, 137.3931009511269, 137.5097676177869, 137.6264342844469, 137.7431009511069, 137.8597676177669, 137.9764342844269, 138.09310095108688, 138.20976761774688, 138.32643428440687, 138.44310095106687, 138.6764342844002]	2021_Jan_26_1301	59.931899206252815	1	0.375
10	24	FALSE	NA	a	['U', 'K', 'B', 'J', 'S', 'T', 'Y', 'A', 'M', 'N', 'Z', 'H', 'R', 'X', 'W', 'G']	[2059, 1122, 760, 1029, 1731, 1888, 2670, 697, 1224, 1335, 2911, 986, 1587, 4000, 2448, 944]	14	Present	NA	NA	PRESENT	0.6493880748748779	140.6651680469513	142.67063903808594	143.95398047757763	144.30398333858057	146.7803020477295	4.109663009643555	[140.67728900909424, 140.79419493675232, 141.76362800598145, 141.94536304473877, 142.69602298736572, 142.81332993507385, 142.92978596687317, 143.04641699790955, 143.16334509849548, 143.2799789905548, 143.39696502685547, 143.51360201835632, 143.63054609298706, 143.7473659515381, 143.8640739917755, 143.9808051586151, 144.09804105758667, 144.21438813209534, 144.33130812644958, 144.44787216186523, 144.56482195854187, 144.7803020477295]	[140.6764342844002, 140.79310095106018, 141.7761009510602, 141.94280095106018, 142.69280095106018, 142.80946761772017, 142.92613428438017, 143.04280095104016, 143.15946761770016, 143.27613428436015, 143.39280095102015, 143.50946761768014, 143.62613428434014, 143.74280095100013, 143.85946761766013, 143.97613428432012, 144.09280095098012, 144.20946761764012, 144.3261342843001, 144.4428009509601, 144.5594676176201, 144.79280095095342]	2021_Jan_26_1301	59.931899206252815	1	0.375
10	25	FALSE	NV	a	['A', 'C', 'M', 'J', 'K', 'N', 'W', 'X', 'E', 'V', 'Y', 'G', 'T', 'P', 'H', 'S']	[697, 829, 1224, 1029, 1122, 1335, 2448, 4000, 904, 2245, 2670, 944, 1888, 1456, 986, 1731]	8	Present	NA	NA	PRESENT	0.2947230339050293	146.78808903694153	148.78715705871582	149.3704984982475	149.72050040557613	152.8966691493988	4.109512090682983	[146.80020809173584, 146.91722702980042, 147.87999510765076, 148.05166792869568, 148.8193280696869, 148.9192099571228, 149.03610014915466, 149.15299916267395, 149.2696931362152, 149.38664412498474, 149.5032160282135, 149.61996293067932, 149.73685312271118, 149.85376906394958, 149.97044014930725, 150.08713698387146, 150.20411205291748, 150.32079195976257, 150.4377040863037, 150.5545060634613, 150.67133808135986, 150.89667010307312]	[146.79280095095342, 146.90946761761342, 147.89246761761342, 148.0591676176134, 148.8091676176134, 148.9258342842734, 149.0425009509334, 149.1591676175934, 149.2758342842534, 149.3925009509134, 149.50916761757338, 149.62583428423338, 149.74250095089337, 149.85916761755337, 149.97583428421336, 150.09250095087336, 150.20916761753335, 150.32583428419335, 150.44250095085334, 150.55916761751334, 150.67583428417333, 150.90916761750665]	2021_Jan_26_1301	59.931899206252815	1	0.375
10	26	FALSE	AV	a	['G', 'J', 'K', 'H', 'R', 'P', 'V', 'surprise', 'Z', 'S', 'X', 'Y', 'W', 'T', 'C', 'B']	[944, 1029, 1122, 986, 1587, 1456, 2245, 'stimAuditory/all_stimAuditory/117.wav', 2911, 1731, 4000, 2670, 2448, 1888, 829, 760]	11	Present	stimAuditory/all_stimAuditory/118.wav	NA	PRESENT	0.363407850265503	152.89465618133545	154.90345311164856	155.83679550483456	156.1867974121632	159.01303601264954	4.109582901000977	[152.90677499771118, 153.02355194091797, 153.9963619709015, 154.17523407936096, 154.92567110061646, 155.0422821044922, 155.15921211242676, 155.2759301662445, 155.39279007911682, 155.5095329284668, 155.62643814086914, 155.7431161403656, 155.86008501052856, 155.97687602043152, 156.09374809265137, 156.21035814285278, 156.32728815078735, 156.44398498535156, 156.56086897850037, 156.67755007743835, 156.7943799495697, 157.01303696632385]	[152.90916761750665, 153.02583428416665, 154.00883428416665, 154.17553428416664, 154.92553428416664, 155.04220095082664, 155.15886761748664, 155.27553428414663, 155.39220095080663, 155.50886761746662, 155.62553428412662, 155.7422009507866, 155.8588676174466, 155.9755342841066, 156.0922009507666, 156.2088676174266, 156.3255342840866, 156.44220095074658, 156.55886761740658, 156.67553428406657, 156.79220095072657, 157.0255342840599]	2021_Jan_26_1301	59.931899206252815	1	0.375
10	27	FALSE	NA	a	['T', 'K', 'S', 'Z', 'B', 'H', 'E', 'X', 'G', 'U', 'V', 'J', 'M', 'A', 'N', 'C']	[1888, 1122, 1731, 2911, 760, 986, 904, 4000, 944, 2059, 2245, 1029, 1224, 697, 1335, 829]	8	Present	NA	NA	PRESENT	0.26475000381469727	159.01786708831787	161.0199761390686	161.60331734018172	161.95331948592892	165.12940216064453	4.109426021575928	[159.0299870967865, 159.1467821598053, 160.11272597312927, 160.298082113266, 161.0487470626831, 161.16550612449646, 161.28240513801575, 161.39931797981262, 161.51604413986206, 161.6326949596405, 161.7494831085205, 161.86639094352722, 161.9832580089569, 162.10000896453857, 162.2165720462799, 162.33410716056824, 162.450581073761, 162.5671510696411, 162.6838800907135, 162.80081915855408, 162.90073704719543, 163.12940311431885]	[159.0255342840599, 159.14220095071988, 160.1252009507199, 160.29190095071988, 161.04190095071988, 161.15856761737987, 161.27523428403987, 161.39190095069986, 161.50856761735986, 161.62523428401985, 161.74190095067985, 161.85856761733984, 161.97523428399984, 162.09190095065983, 162.20856761731983, 162.32523428397982, 162.44190095063982, 162.55856761729981, 162.6752342839598, 162.7919009506198, 162.9085676172798, 163.14190095061312]	2021_Jan_26_1301	59.931899206252815	1	0.375
10	28	FALSE	NV	a	['U', 'Y', 'M', 'A', 'V', 'T', 'K', 'G', 'H', 'Z', 'C', 'X', 'P', 'J', 'E', 'S']	[2059, 2670, 1224, 697, 2245, 1888, 1122, 944, 986, 2911, 829, 4000, 1456, 1029, 904, 1731]	12	Present	NA	NA	PRESENT	0.32515692710876465	165.12462997436523	167.13605999946594	168.18606810563764	168.53607001296626	171.24576902389526	4.109709024429321	[165.13674807548523, 165.25305008888245, 166.22909307479858, 166.40446996688843, 167.1551480293274, 167.27186608314514, 167.38886094093323, 167.50552916526794, 167.62225794792175, 167.73905515670776, 167.8560631275177, 167.97261810302734, 168.08966612815857, 168.2064700126648, 168.32321095466614, 168.43988609313965, 168.55685710906982, 168.67351007461548, 168.79041409492493, 168.9071581363678, 169.02398705482483, 169.24576997756958]	[165.14190095061312, 165.25856761727312, 166.24156761727312, 166.4082676172731, 167.1582676172731, 167.2749342839331, 167.3916009505931, 167.5082676172531, 167.6249342839131, 167.7416009505731, 167.85826761723308, 167.97493428389308, 168.09160095055307, 168.20826761721307, 168.32493428387306, 168.44160095053306, 168.55826761719305, 168.67493428385305, 168.79160095051304, 168.90826761717304, 169.02493428383303, 169.25826761716635]	2021_Jan_26_1301	59.931899206252815	1	0.375
10	29	FALSE	NA	a	['G', 'P', 'U', 'H', 'S', 'V', 'T', 'A', 'X', 'M', 'E', 'Y', 'C', 'K', 'Z', 'J']	[944, 1456, 2059, 986, 1731, 2245, 1888, 697, 4000, 1224, 904, 2670, 829, 1122, 2911, 1029]	9	Present	NA	NA	PRESENT	0.30565810203552246	171.2474501132965	173.25250220298767	173.95251007076078	174.30251197808943	177.3621370792389	4.109634876251221	[171.25956892967224, 171.37643599510193, 172.3454611301422, 172.52770400047302, 173.27842807769775, 173.39504313468933, 173.51180911064148, 173.62869000434875, 173.74542999267578, 173.86220407485962, 173.97918009757996, 174.09595799446106, 174.21261310577393, 174.3294551372528, 174.44642806053162, 174.56313395500183, 174.67976808547974, 174.79671216011047, 174.9135730266571, 175.0302541255951, 175.1473159790039, 175.3621370792389]	[171.25826761716635, 171.37493428382635, 172.35793428382635, 172.52463428382634, 173.27463428382634, 173.39130095048634, 173.50796761714633, 173.62463428380633, 173.74130095046633, 173.85796761712632, 173.97463428378632, 174.0913009504463, 174.2079676171063, 174.3246342837663, 174.4413009504263, 174.5579676170863, 174.6746342837463, 174.79130095040628, 174.90796761706628, 175.02463428372627, 175.14130095038627, 175.3746342837196]	2021_Jan_26_1301	59.931899206252815	1	0.375
10	30	FALSE	AA	a	['G', 'Y', 'W', 'U', 'K', 'V', 'T', 'N', 'surprise', 'H', 'R', 'X', 'J', 'A', 'Z', 'E']	[944, 2670, 2448, 2059, 1122, 2245, 1888, 1335, 'stimAuditory/all_stimAuditory/221.wav', 986, 1587, 4000, 1029, 697, 2911, 904]	12	Present	stimAuditory/all_stimAuditory/217.wav	NA	PRESENT	0.3828999996185303	177.37075400352478	179.3687560558319	180.4187632083293	180.76876606933223	183.478502035141	4.109745979309082	[177.3828730583191, 177.49940299987793, 178.4618260860443, 178.6340470314026, 179.40140414237976, 179.50142407417297, 179.61837911605835, 179.7351450920105, 179.85188007354736, 179.96887111663818, 180.08555698394775, 180.20242595672607, 180.31905913352966, 180.4359209537506, 180.55264902114868, 180.66945910453796, 180.78639698028564, 180.9030351638794, 181.02007508277893, 181.13662195205688, 181.25361800193787, 181.4785029888153]	[177.3746342837196, 177.49130095037958, 178.4743009503796, 178.64100095037958, 179.39100095037958, 179.50766761703957, 179.62433428369957, 179.74100095035956, 179.85766761701956, 179.97433428367955, 180.09100095033955, 180.20766761699954, 180.32433428365954, 180.44100095031953, 180.55766761697953, 180.67433428363952, 180.79100095029952, 180.90766761695951, 181.0243342836195, 181.1410009502795, 181.2576676169395, 181.49100095027282]	2021_Jan_26_1301	59.931899206252815	1	0.375
10	31	FALSE	NV	a	['G', 'B', 'W', 'M', 'A', 'N', 'C', 'P', 'Y', 'J', 'V', 'T', 'X', 'U', 'Z', 'R']	[944, 760, 2448, 1224, 697, 1335, 829, 1456, 2670, 1029, 2245, 1888, 4000, 2059, 2911, 1587]	13	Present	NA	NA	PRESENT	0.3315770626068115	183.47709608078003	185.48525619506836	186.65193072948148	187.00193287522868	189.5948691368103	4.109612941741943	[183.48921513557434, 183.60598802566528, 184.57819414138794, 184.75724697113037, 185.5080361366272, 185.62474703788757, 185.74164009094238, 185.8582489490509, 185.97516703605652, 186.0918791294098, 186.20884799957275, 186.32541704177856, 186.44245600700378, 186.55906510353088, 186.67603206634521, 186.7928340435028, 186.9096281528473, 187.02632308006287, 187.14313006401062, 187.25980305671692, 187.37662410736084, 187.59487009048462]	[183.49100095027282, 183.60766761693282, 184.59066761693282, 184.7573676169328, 185.5073676169328, 185.6240342835928, 185.7407009502528, 185.8573676169128, 185.9740342835728, 186.0907009502328, 186.20736761689278, 186.32403428355278, 186.44070095021277, 186.55736761687277, 186.67403428353276, 186.79070095019276, 186.90736761685275, 187.02403428351275, 187.14070095017274, 187.25736761683274, 187.37403428349273, 187.60736761682605]	2021_Jan_26_1301	59.931899206252815	1	0.375
10	32	FALSE	NN	a	['R', 'U', 'N', 'J', 'K', 'P', 'A', 'Y', 'M', 'H', 'C', 'Z', 'G', 'B', 'E', 'S']	[1587, 2059, 1335, 1029, 1122, 1456, 697, 2670, 1224, 986, 829, 2911, 944, 760, 904, 1731]	10	Absent	NA	NA	ABSENT	0.6649570465087891	189.60028314590457	191.6019971370697	192.4186716715028	192.76867381725003	195.71123695373535	4.109239816665649	[189.61240100860596, 189.72900795936584, 190.69455909729004, 190.88022994995117, 191.63112497329712, 191.74800515174866, 191.86457896232605, 191.9814350605011, 192.0983431339264, 192.21514797210693, 192.33193492889404, 192.44858503341675, 192.56532311439514, 192.68221402168274, 192.79892206192017, 192.91585493087769, 193.01580095291138, 193.13258504867554, 193.24950003623962, 193.36623811721802, 193.48291993141174, 193.71123695373535]	[189.60736761682605, 189.72403428348605, 190.70703428348605, 190.87373428348604, 191.62373428348604, 191.74040095014604, 191.85706761680603, 191.97373428346603, 192.09040095012602, 192.20706761678602, 192.32373428344602, 192.440400950106, 192.557067616766, 192.673734283426, 192.790400950086, 192.907067616746, 193.023734283406, 193.14040095006598, 193.25706761672598, 193.37373428338597, 193.49040095004597, 193.7237342833793]	2021_Jan_26_1301	59.931899206252815	1	0.375
10	33	FALSE	VA	a	['V', 'Z', 'T', 'P', 'S', 'H', 'J', 'G', 'R', 'C', 'surprise', 'E', 'B', 'X', 'Y', 'A']	[2245, 2911, 1888, 1456, 1731, 986, 1029, 944, 1587, 829, 'stimAuditory/all_stimAuditory/207.wav', 904, 760, 4000, 2670, 697]	14	Present	NA	NA	PRESENT	0.3493690490722656	195.7069141864777	197.71796298027041	199.00130346608776	199.3513053734164	201.82760214805603	4.1096391677856445	[195.7190351486206, 195.8355269432068, 196.81092309951782, 196.98678493499756, 197.73748302459717, 197.8541510105133, 197.97114300727844, 198.0879430770874, 198.2047290802002, 198.32152795791626, 198.4382140636444, 198.55509901046753, 198.67200803756714, 198.78859210014343, 198.90531015396118, 199.02218008041382, 199.1389570236206, 199.25582814216614, 199.37273406982422, 199.48947715759277, 199.60623407363892, 199.82760310173035]	[195.7237342833793, 195.84040095003928, 196.8234009500393, 196.99010095003928, 197.74010095003928, 197.85676761669927, 197.97343428335927, 198.09010095001926, 198.20676761667926, 198.32343428333925, 198.44010094999925, 198.55676761665924, 198.67343428331924, 198.79010094997923, 198.90676761663923, 199.02343428329922, 199.14010094995922, 199.25676761661921, 199.3734342832792, 199.4901009499392, 199.6067676165992, 199.84010094993252]	2021_Jan_26_1301	59.931899206252815	1	0.375
10	34	FALSE	NV	a	['Z', 'V', 'H', 'T', 'U', 'N', 'W', 'X', 'K', 'C', 'A', 'P', 'Y', 'R', 'G', 'S']	[2911, 2245, 986, 1888, 2059, 1335, 2448, 4000, 1122, 829, 697, 1456, 2670, 1587, 944, 1731]	8	Present	NA	NA	PRESENT	0.5299851894378662	201.82971215248108	203.83423018455505	204.41757043199385	204.76757233932247	207.94396901130676	4.109738826751709	[201.8418309688568, 201.9587631225586, 202.9272961616516, 203.1100561618805, 203.86056900024414, 203.97759294509888, 204.09423208236694, 204.21108198165894, 204.32789993286133, 204.44452810287476, 204.56132102012634, 204.67812705039978, 204.79499912261963, 204.91183996200562, 205.02866506576538, 205.14558815956116, 205.26215505599976, 205.37882900238037, 205.49571800231934, 205.61258006095886, 205.72938203811646, 205.94396901130676]	[201.84010094993252, 201.95676761659251, 202.93976761659252, 203.1064676165925, 203.8564676165925, 203.9731342832525, 204.0898009499125, 204.2064676165725, 204.3231342832325, 204.4398009498925, 204.55646761655248, 204.67313428321248, 204.78980094987247, 204.90646761653247, 205.02313428319246, 205.13980094985246, 205.25646761651245, 205.37313428317245, 205.48980094983244, 205.60646761649244, 205.72313428315243, 205.95646761648575]	2021_Jan_26_1301	59.931899206252815	1	0.375
10	35	FALSE	NV	a	['U', 'C', 'Z', 'M', 'Y', 'V', 'J', 'E', 'B', 'X', 'A', 'S', 'T', 'N', 'H', 'P']	[2059, 829, 2911, 1224, 2670, 2245, 1029, 904, 760, 4000, 697, 1731, 1888, 1335, 986, 1456]	10	Present	NA	NA	PRESENT	0.49514007568359375	207.95304203033447	209.951012134552	210.7676866689851	211.11768881473233	214.06033611297607	4.109323978424072	[207.96516108512878, 208.08205604553223, 209.0436601638794, 209.2162320613861, 209.98374915122986, 210.08395314216614, 210.2005159854889, 210.31745100021362, 210.43415713310242, 210.55096912384033, 210.66791605949402, 210.78473114967346, 210.90147995948792, 211.01810097694397, 211.13516902923584, 211.2516689300537, 211.3687801361084, 211.48526406288147, 211.60215306282043, 211.71878814697266, 211.8356490135193, 212.06033611297607]	[207.95646761648575, 208.07313428314575, 209.05613428314575, 209.22283428314574, 209.97283428314574, 210.08950094980574, 210.20616761646573, 210.32283428312573, 210.43950094978572, 210.55616761644572, 210.67283428310571, 210.7895009497657, 210.9061676164257, 211.0228342830857, 211.1395009497457, 211.2561676164057, 211.37283428306569, 211.48950094972568, 211.60616761638568, 211.72283428304567, 211.83950094970567, 212.072834283039]	2021_Jan_26_1301	59.931899206252815	1	0.375
10	36	FALSE	VV	a	['B', 'K', 'P', 'H', 'C', 'V', 'R', 'J', 'T', 'W', 'surprise', 'A', 'E', 'X', 'N', 'G']	[760, 1122, 1456, 986, 829, 2245, 1587, 1029, 1888, 2448, 'stimAuditory/all_stimAuditory/102.wav', 697, 904, 4000, 1335, 944]	14	Present	NA	NA	PRESENT	0.30802106857299805	214.0593650341034	216.06712317466736	217.35046437574047	217.70046652148767	220.1767029762268	4.109579801559448	[214.0714831352234, 214.1881411075592, 215.16002416610718, 215.33968997001648, 216.09027314186096, 216.2071030139923, 216.32385993003845, 216.440505027771, 216.55748414993286, 216.6742069721222, 216.79114198684692, 216.90790104866028, 217.02454900741577, 217.14122700691223, 217.25816798210144, 217.3748860359192, 217.49169397354126, 217.60840606689453, 217.7252950668335, 217.84237408638, 217.95877194404602, 218.1767029762268]	[214.072834283039, 214.18950094969898, 215.17250094969899, 215.33920094969898, 216.08920094969898, 216.20586761635897, 216.32253428301897, 216.43920094967896, 216.55586761633896, 216.67253428299895, 216.78920094965895, 216.90586761631894, 217.02253428297894, 217.13920094963893, 217.25586761629893, 217.37253428295892, 217.48920094961892, 217.6058676162789, 217.7225342829389, 217.8392009495989, 217.9558676162589, 218.18920094959222]	2021_Jan_26_1301	59.931899206252815	1	0.375
10	37	FALSE	NN	a	['P', 'G', 'M', 'Z', 'V', 'K', 'B', 'W', 'T', 'R', 'C', 'Y', 'U', 'H', 'J', 'N']	[1456, 944, 1224, 2911, 2245, 1122, 760, 2448, 1888, 1587, 829, 2670, 2059, 986, 1029, 1335]	12	Absent	NA	NA	ABSENT	0.4492330551147461	220.1824882030487	222.1834042072296	223.2334120749827	223.58341398231136	226.29307007789612	4.109665870666504	[220.19460701942444, 220.3112919330597, 221.27639198303223, 221.46259713172913, 222.21332502365112, 222.33018112182617, 222.44704794883728, 222.56390500068665, 222.6806001663208, 222.79719614982605, 222.91411304473877, 223.0309989452362, 223.13090205192566, 223.24762415885925, 223.3644609451294, 223.48132300376892, 223.59803795814514, 223.71489810943604, 223.83174109458923, 223.9483780860901, 224.06519603729248, 224.2930691242218]	[220.18920094959222, 220.30586761625221, 221.28886761625222, 221.4555676162522, 222.2055676162522, 222.3222342829122, 222.4389009495722, 222.5555676162322, 222.6722342828922, 222.7889009495522, 222.90556761621218, 223.02223428287218, 223.13890094953217, 223.25556761619217, 223.37223428285216, 223.48890094951216, 223.60556761617215, 223.72223428283215, 223.83890094949214, 223.95556761615214, 224.07223428281213, 224.30556761614545]	2021_Jan_26_1301	59.931899206252815	1	0.375
10	38	FALSE	NA	a	['E', 'R', 'P', 'M', 'G', 'Y', 'W', 'N', 'K', 'U', 'C', 'V', 'X', 'J', 'S', 'Z']	[904, 1587, 1456, 1224, 944, 2670, 2448, 1335, 1122, 2059, 829, 2245, 4000, 1029, 1731, 2911]	13	Present	NA	NA	PRESENT	0.44567179679870605	226.28920698165896	228.30049300193787	229.46716777476956	229.81716968209815	232.40943694114685	4.108943939208984	[226.30132699012756, 226.41781997680664, 227.3927619457245, 227.56911301612854, 228.31986498832703, 228.43657398223877, 228.5534861087799, 228.67014002799988, 228.78706908226013, 228.90366315841675, 229.0207450389862, 229.1374101638794, 229.25418901443481, 229.37101006507874, 229.4878261089325, 229.60455894470215, 229.72138595581055, 229.83816814422607, 229.9550290107727, 230.07166695594788, 230.18825912475586, 230.40943813323975]	[226.30556761614545, 226.42223428280545, 227.40523428280545, 227.57193428280544, 228.32193428280544, 228.43860094946544, 228.55526761612543, 228.67193428278543, 228.78860094944542, 228.90526761610542, 229.02193428276541, 229.1386009494254, 229.2552676160854, 229.3719342827454, 229.4886009494054, 229.6052676160654, 229.72193428272539, 229.83860094938538, 229.95526761604538, 230.07193428270537, 230.18860094936537, 230.4219342826987]	2021_Jan_26_1301	59.931899206252815	1	0.375
10	39	FALSE	NV	a	['M', 'U', 'A', 'J', 'C', 'E', 'N', 'S', 'T', 'K', 'Y', 'H', 'X', 'R', 'B', 'V']	[1224, 2059, 697, 1029, 829, 904, 1335, 1731, 1888, 1122, 2670, 986, 4000, 1587, 760, 2245]	13	Present	NA	NA	PRESENT	0.30615806579589844	232.41201519966123	234.4165790081024	235.58325473460843	235.93325664193705	238.52580308914185	4.109224081039429	[232.42413306236267, 232.54095697402954, 233.50912499427795, 233.69223403930664, 234.44291710853577, 234.55963110923767, 234.67670798301697, 234.79333400726318, 234.91016006469727, 235.02702403068542, 235.1436710357666, 235.26045203208923, 235.37727403640747, 235.49415802955627, 235.61097407341003, 235.72778701782227, 235.84439516067505, 235.96130204200745, 236.0779070854187, 236.1952109336853, 236.3122661113739, 236.52580404281616]	[232.4219342826987, 232.53860094935868, 233.52160094935869, 233.68830094935868, 234.43830094935868, 234.55496761601867, 234.67163428267867, 234.78830094933866, 234.90496761599866, 235.02163428265865, 235.13830094931865, 235.25496761597864, 235.37163428263864, 235.48830094929863, 235.60496761595863, 235.72163428261862, 235.83830094927862, 235.9549676159386, 236.0716342825986, 236.1883009492586, 236.3049676159186, 236.53830094925192]	2021_Jan_26_1301	59.931899206252815	1	0.375
10	40	FALSE	VA	a	['A', 'N', 'E', 'W', 'P', 'H', 'Y', 'Z', 'J', 'S', 'surprise', 'U', 'K', 'X', 'M', 'V']	[697, 1335, 904, 2448, 1456, 986, 2670, 2911, 1029, 1731, 'stimAuditory/all_stimAuditory/213.wav', 2059, 1122, 4000, 1224, 2245]	14	Present	NA	NA	PRESENT	0.4957880973815918	238.53530311584473	240.53272700309753	241.8160674889149	242.16606939624353	244.64216899871823	4.1094419956207275	[238.54742097854614, 238.64720702171326, 239.62549304962158, 239.79866409301758, 240.5492250919342, 240.66610193252563, 240.7828550338745, 240.8996660709381, 241.01665496826172, 241.1332869529724, 241.25032806396484, 241.36692905426025, 241.48386311531067, 241.60052299499512, 241.71732997894287, 241.83408904075623, 241.95105814933777, 242.0676691532135, 242.18448615074158, 242.30111408233643, 242.41812896728516, 242.64216899871826]	[238.53830094925192, 238.65496761591191, 239.63796761591192, 239.8046676159119, 240.5546676159119, 240.6713342825719, 240.7880009492319, 240.9046676158919, 241.0213342825519, 241.1380009492119, 241.25466761587188, 241.37133428253188, 241.48800094919187, 241.60466761585187, 241.72133428251186, 241.83800094917186, 241.95466761583185, 242.07133428249185, 242.18800094915184, 242.30466761581184, 242.42133428247183, 242.65466761580515]	2021_Jan_26_1301	59.931899206252815	1	0.375
10	41	FALSE	NN	a	['K', 'B', 'J', 'U', 'P', 'E', 'H', 'V', 'S', 'N', 'Z', 'A', 'T', 'M', 'W', 'G']	[1122, 760, 1029, 2059, 1456, 904, 986, 2245, 1731, 1335, 2911, 697, 1888, 1224, 2448, 944]	12	Absent	NA	NA	ABSENT	0.3162848949432373	244.64172220230105	246.64890813827515	247.69891600602827	248.04891815177547	250.75853610038757	4.109627962112427	[244.65384006500244, 244.77061915397644, 245.7418601512909, 245.92193698883057, 246.67290496826172, 246.78931999206543, 246.90631103515625, 247.02292704582214, 247.13962507247925, 247.25660610198975, 247.37322902679443, 247.48999309539795, 247.6069850921631, 247.7236189842224, 247.84028100967407, 247.95734095573425, 248.07415795326233, 248.19082593917847, 248.30769610404968, 248.4243540763855, 248.5411319732666, 248.75853610038757]	[244.65466761580515, 244.77133428246515, 245.75433428246515, 245.92103428246514, 246.67103428246514, 246.78770094912514, 246.90436761578513, 247.02103428244513, 247.13770094910512, 247.25436761576512, 247.37103428242511, 247.4877009490851, 247.6043676157451, 247.7210342824051, 247.8377009490651, 247.9543676157251, 248.07103428238509, 248.18770094904508, 248.30436761570508, 248.42103428236507, 248.53770094902507, 248.77103428235839]	2021_Jan_26_1301	59.931899206252815	1	0.375
10	42	FALSE	NA	a	['W', 'C', 'H', 'E', 'Z', 'A', 'J', 'P', 'V', 'M', 'R', 'X', 'K', 'S', 'U', 'N']	[2448, 829, 986, 904, 2911, 697, 1029, 1456, 2245, 1224, 1587, 4000, 1122, 1731, 2059, 1335]	12	Present	NA	NA	PRESENT	0.4892539978027344	250.7648150920868	252.76545906066897	253.81546597474775	254.16546812049495	256.8749029636383	4.10944390296936	[250.7769329547882, 250.89376997947693, 251.85822916030884, 252.04497909545898, 252.79566502571106, 252.9125361442566, 253.02914309501648, 253.14612698554993, 253.26290011405945, 253.36276412010193, 253.47964906692505, 253.5964379310608, 253.71315503120422, 253.83000898361206, 253.94678807258606, 254.06357407569885, 254.18043494224548, 254.29717206954956, 254.41388702392578, 254.5306911468506, 254.64769315719604, 254.8749041557312]	[250.77103428235839, 250.88770094901838, 251.87070094901839, 252.03740094901838, 252.78740094901838, 252.90406761567837, 253.02073428233837, 253.13740094899836, 253.25406761565836, 253.37073428231835, 253.48740094897835, 253.60406761563834, 253.72073428229834, 253.83740094895833, 253.95406761561833, 254.07073428227832, 254.18740094893832, 254.3040676155983, 254.4207342822583, 254.5374009489183, 254.6540676155783, 254.88740094891162]	2021_Jan_26_1301	59.931899206252815	1	0.375
10	43	FALSE	NA	a	['J', 'A', 'G', 'S', 'W', 'N', 'R', 'C', 'K', 'H', 'Z', 'E', 'B', 'X', 'M', 'Y']	[1029, 697, 944, 1731, 2448, 1335, 1587, 829, 1122, 986, 2911, 904, 760, 4000, 1224, 2670]	14	Present	NA	NA	PRESENT	0.4059069156646729	256.8715431690216	258.8818941116333	260.16523435903207	260.5152365047793	262.9912691116333	4.109375	[256.883661031723, 257.0000081062317, 257.97459411621094, 258.1514410972595, 258.9020640850067, 259.01875400543213, 259.13575410842896, 259.2525291442871, 259.36940908432007, 259.4860429763794, 259.60279393196106, 259.7196731567383, 259.8364510536194, 259.95327711105347, 260.0699360370636, 260.1868441104889, 260.30360198020935, 260.42042112350464, 260.5370590686798, 260.6539239883423, 260.7707130908966, 260.99127101898193]	[256.8874009489116, 257.0040676155716, 257.9870676155716, 258.1537676155716, 258.9037676155716, 259.02043428223163, 259.13710094889166, 259.2537676155517, 259.3704342822117, 259.4871009488717, 259.60376761553175, 259.7204342821918, 259.8371009488518, 259.9537676155118, 260.07043428217185, 260.18710094883187, 260.3037676154919, 260.4204342821519, 260.53710094881194, 260.65376761547196, 260.770434282132, 261.00376761546534]	2021_Jan_26_1301	59.931899206252815	1	0.375
10	44	FALSE	NA	a	['E', 'W', 'S', 'N', 'C', 'T', 'U', 'P', 'Y', 'V', 'J', 'H', 'B', 'X', 'A', 'G']	[904, 2448, 1731, 1335, 829, 1888, 2059, 1456, 2670, 2245, 1029, 986, 760, 4000, 697, 944]	14	Present	NA	NA	PRESENT	0.418424129486084	262.9943811893463	264.99823117256165	266.2815714199604	266.63157332728906	269.10763597488403	4.109404802322388	[263.00649905204773, 263.12324714660645, 264.09096097946167, 264.2745201587677, 265.0252411365509, 265.1420760154724, 265.25879096984863, 265.37569212913513, 265.49254608154297, 265.60934805870056, 265.72609305381775, 265.8427560329437, 265.95965909957886, 266.07645201683044, 266.19358015060425, 266.31014704704285, 266.426833152771, 266.54341101646423, 266.6603150367737, 266.77737498283386, 266.8940761089325, 267.10763597488403]	[263.00376761546534, 263.12043428212536, 264.10343428212536, 264.27013428212535, 265.02013428212535, 265.1368009487854, 265.2534676154454, 265.3701342821054, 265.48680094876545, 265.6034676154255, 265.7201342820855, 265.8368009487455, 265.95346761540554, 266.07013428206557, 266.1868009487256, 266.3034676153856, 266.42013428204564, 266.53680094870566, 266.6534676153657, 266.7701342820257, 266.88680094868573, 267.1201342820191]	2021_Jan_26_1301	59.931899206252815	1	0.375
10	45	FALSE	NN	a	['B', 'A', 'U', 'V', 'Y', 'N', 'T', 'R', 'P', 'G', 'J', 'M', 'C', 'Z', 'S', 'H']	[760, 697, 2059, 2245, 2670, 1335, 1888, 1587, 1456, 944, 1029, 1224, 829, 2911, 1731, 986]	12	Absent	NA	NA	ABSENT	0.3917858600616455	269.1174302101135	271.114737033844	272.16474418634135	272.51474609367	275.22400403022766	4.109266996383667	[269.12954902648926, 269.2296209335327, 270.20732498168945, 270.38099908828735, 271.13161396980286, 271.24835300445557, 271.3654360771179, 271.48216795921326, 271.59898495674133, 271.71556401252747, 271.8325300216675, 271.9492509365082, 272.0661051273346, 272.1828441619873, 272.29972100257874, 272.41633701324463, 272.5333061218262, 272.6499230861664, 272.76684308052063, 272.8834991455078, 273.00034403800964, 273.22400403022766]	[269.1201342820191, 269.2368009486791, 270.2198009486791, 270.3865009486791, 271.1365009486791, 271.2531676153391, 271.36983428199915, 271.48650094865917, 271.6031676153192, 271.7198342819792, 271.83650094863924, 271.95316761529926, 272.0698342819593, 272.1865009486193, 272.30316761527934, 272.41983428193936, 272.5365009485994, 272.6531676152594, 272.76983428191943, 272.88650094857945, 273.0031676152395, 273.2365009485728]	2021_Jan_26_1301	59.931899206252815	1	0.375
10	46	FALSE	NV	a	['U', 'B', 'C', 'J', 'K', 'H', 'Y', 'G', 'E', 'T', 'N', 'S', 'X', 'P', 'Z', 'V']	[2059, 760, 829, 1029, 1122, 986, 2670, 944, 904, 1888, 1335, 1731, 4000, 1456, 2911, 2245]	13	Present	NA	NA	PRESENT	0.252410888671875	275.224249124527	277.2309260368347	278.3976008096664	278.74760271699506	281.34036898612976	4.109442949295044	[275.2363679409027, 275.3526539802551, 276.3236961364746, 276.50442004203796, 277.2548940181732, 277.3715491294861, 277.4882380962372, 277.6052761077881, 277.72187209129333, 277.83882999420166, 277.95546102523804, 278.07237005233765, 278.18907499313354, 278.3059470653534, 278.42293214797974, 278.5397140979767, 278.6563150882721, 278.77320194244385, 278.88993096351624, 279.0067639350891, 279.1234850883484, 279.3403699398041]	[275.2365009485728, 275.35316761523285, 276.33616761523285, 276.50286761523284, 277.25286761523284, 277.36953428189287, 277.4862009485529, 277.6028676152129, 277.71953428187294, 277.83620094853296, 277.952867615193, 278.069534281853, 278.18620094851303, 278.30286761517306, 278.4195342818331, 278.5362009484931, 278.6528676151531, 278.76953428181315, 278.8862009484732, 279.0028676151332, 279.1195342817932, 279.35286761512657]	2021_Jan_26_1301	59.931899206252815	1	0.375
10	47	FALSE	NA	a	['A', 'M', 'E', 'T', 'P', 'J', 'G', 'R', 'S', 'Z', 'N', 'H', 'X', 'W', 'U', 'B']	[697, 1224, 904, 1888, 1456, 1029, 944, 1587, 1731, 2911, 1335, 986, 4000, 2448, 2059, 760]	13	Present	NA	NA	PRESENT	0.28946399688720703	281.34712505340576	283.34733510017395	284.51400868091275	284.86401082666	287.4567360877991	4.109400987625122	[281.35924315452576, 281.476047039032, 282.4400589466095, 282.6271710395813, 283.37791109085083, 283.47802996635437, 283.5947561264038, 283.71149802207947, 283.828351020813, 283.94508695602417, 284.06197905540466, 284.1787049770355, 284.29556703567505, 284.41232109069824, 284.5291030406952, 284.6459081172943, 284.76270294189453, 284.87945914268494, 284.99619603157043, 285.11307311058044, 285.2300000190735, 285.4567379951477]	[281.35286761512657, 281.4695342817866, 282.4525342817866, 282.6192342817866, 283.3692342817866, 283.4859009484466, 283.60256761510664, 283.71923428176666, 283.8359009484267, 283.9525676150867, 284.06923428174673, 284.18590094840675, 284.3025676150668, 284.4192342817268, 284.5359009483868, 284.65256761504685, 284.7692342817069, 284.8859009483669, 285.0025676150269, 285.11923428168694, 285.23590094834697, 285.4692342816803]	2021_Jan_26_1301	59.931899206252815	1	0.375
10	48	FALSE	NN	a	['T', 'H', 'U', 'P', 'R', 'J', 'V', 'M', 'W', 'C', 'N', 'G', 'Z', 'B', 'A', 'S']	[1888, 986, 2059, 1456, 1587, 1029, 2245, 1224, 2448, 829, 1335, 944, 2911, 760, 697, 1731]	10	Absent	NA	NA	ABSENT	0.4541819095611572	287.4539330005646	289.4638240337372	290.28049880658887	290.6305007139175	293.5731019973755	4.109277963638306	[287.4660520553589, 287.582307100296, 288.5564260482788, 288.7337839603424, 289.4844400882721, 289.601145029068, 289.7180550098419, 289.8348410129547, 289.9515309333801, 290.06838512420654, 290.1850321292877, 290.30195212364197, 290.41885900497437, 290.5356090068817, 290.6525139808655, 290.7691841125488, 290.8858439922333, 291.00266313552856, 291.11935806274414, 291.2363610267639, 291.3529739379883, 291.5731019973755]	[287.4692342816803, 287.58590094834034, 288.56890094834034, 288.73560094834033, 289.48560094834033, 289.60226761500036, 289.7189342816604, 289.8356009483204, 289.9522676149804, 290.06893428164045, 290.1856009483005, 290.3022676149605, 290.4189342816205, 290.53560094828055, 290.65226761494057, 290.7689342816006, 290.8856009482606, 291.00226761492064, 291.11893428158066, 291.2356009482407, 291.3522676149007, 291.58560094823406]	2021_Jan_26_1301	59.931899206252815	1	0.375
10	49	FALSE	AV	a	['N', 'Z', 'Y', 'W', 'E', 'T', 'P', 'G', 'surprise', 'C', 'H', 'X', 'B', 'A', 'K', 'V']	[1335, 2911, 2670, 2448, 904, 1888, 1456, 944, 'stimAuditory/all_stimAuditory/209.wav', 829, 986, 4000, 760, 697, 1122, 2245]	12	Present	stimAuditory/all_stimAuditory/117.wav	NA	PRESENT	0.3787209987640381	293.57675099372864	295.5800540447235	296.6300621508952	296.98006405822383	299.6894700527191	4.1094160079956055	[293.58886909484863, 293.7055549621582, 294.67279410362244, 294.8567669391632, 295.6076030731201, 295.7243621349335, 295.8411509990692, 295.958055973053, 296.0747859477997, 296.1916289329529, 296.3085460662842, 296.425213098526, 296.5418839454651, 296.65885615348816, 296.77558302879333, 296.8921711444855, 297.0090711116791, 297.1261510848999, 297.2427010536194, 297.3593339920044, 297.4761860370636, 297.6894700527191]	[293.58560094823406, 293.7022676148941, 294.6852676148941, 294.8519676148941, 295.6019676148941, 295.7186342815541, 295.8353009482141, 295.95196761487415, 296.0686342815342, 296.1853009481942, 296.3019676148542, 296.41863428151424, 296.53530094817427, 296.6519676148343, 296.7686342814943, 296.88530094815434, 297.00196761481436, 297.1186342814744, 297.2353009481344, 297.35196761479443, 297.46863428145446, 297.7019676147878]	2021_Jan_26_1301	59.931899206252815	1	0.375
10	50	FALSE	NN	a	['K', 'Z', 'U', 'Y', 'S', 'V', 'M', 'G', 'R', 'B', 'P', 'N', 'C', 'T', 'J', 'W']	[1122, 2911, 2059, 2670, 1731, 2245, 1224, 944, 1587, 760, 1456, 1335, 829, 1888, 1029, 2448]	11	Absent	NA	NA	ABSENT	0.2560231685638428	299.6829171180725	301.69649720191956	302.62983744933837	302.97983935666696	305.8058371543884	4.109339952468872	[299.6950349807739, 299.81193494796753, 300.78916096687317, 300.9632430076599, 301.71383810043335, 301.8307149410248, 301.947674036026, 302.0642960071564, 302.1811740398407, 302.2979209423065, 302.4146339893341, 302.5315909385681, 302.6482231616974, 302.76514410972595, 302.8820331096649, 302.99875116348267, 303.11537408828735, 303.23232793807983, 303.34913516044617, 303.46588110923767, 303.58258295059204, 303.8058371543884]	[299.7019676147878, 299.8186342814478, 300.80163428144783, 300.9683342814478, 301.7183342814478, 301.83500094810785, 301.95166761476787, 302.0683342814279, 302.1850009480879, 302.30166761474794, 302.41833428140797, 302.535000948068, 302.651667614728, 302.76833428138804, 302.88500094804806, 303.0016676147081, 303.1183342813681, 303.23500094802813, 303.35166761468815, 303.4683342813482, 303.5850009480082, 303.81833428134155]	2021_Jan_26_1301	59.931899206252815	1	0.375
10	51	FALSE	NN	a	['K', 'T', 'S', 'W', 'J', 'C', 'N', 'G', 'R', 'H', 'P', 'M', 'U', 'A', 'E', 'V']	[1122, 1888, 1731, 2448, 1029, 829, 1335, 944, 1587, 986, 1456, 1224, 2059, 697, 904, 2245]	12	Absent	NA	NA	ABSENT	0.3326590061187744	305.80625104904175	307.81304597854614	308.86305503839213	309.21305718413936	311.92220306396484	4.109157085418701	[305.81837010383606, 305.9352300167084, 306.9055280685425, 307.0867929458618, 307.83699011802673, 307.9538850784302, 308.0706059932709, 308.1874761581421, 308.304162979126, 308.42115902900696, 308.5380139350891, 308.65481305122375, 308.77143812179565, 308.88837814331055, 309.0050461292267, 309.12199115753174, 309.2385790348053, 309.35546803474426, 309.4721169471741, 309.589035987854, 309.70586609840393, 309.9222021102905]	[305.81833428134155, 305.9350009480016, 306.9180009480016, 307.08470094800157, 307.83470094800157, 307.9513676146616, 308.0680342813216, 308.18470094798164, 308.30136761464166, 308.4180342813017, 308.5347009479617, 308.65136761462173, 308.76803428128176, 308.8847009479418, 309.0013676146018, 309.1180342812618, 309.23470094792185, 309.3513676145819, 309.4680342812419, 309.5847009479019, 309.70136761456195, 309.9347009478953]	2021_Jan_26_1301	59.931899206252815	1	0.375
10	52	FALSE	NA	a	['Y', 'M', 'U', 'N', 'C', 'V', 'J', 'X', 'Z', 'P', 'B', 'W', 'R', 'T', 'G', 'A']	[2670, 1224, 2059, 1335, 829, 2245, 1029, 4000, 2911, 1456, 760, 2448, 1587, 1888, 944, 697]	8	Present	NA	NA	PRESENT	0.4019789695739746	311.92949509620667	313.9293191432953	314.5126603444084	314.86266344382994	318.03857016563416	4.109251022338867	[311.941614151001, 312.05826807022095, 313.0218930244446, 313.2096209526062, 313.96015310287476, 314.0602090358734, 314.17700695991516, 314.29381108283997, 314.41060304641724, 314.5274181365967, 314.6442229747772, 314.76099610328674, 314.8778281211853, 314.9945991039276, 315.11160612106323, 315.2281701564789, 315.3448910713196, 315.46169805526733, 315.57875204086304, 315.6952979564667, 315.81202697753906, 316.03856897354126]	[311.9347009478953, 312.0513676145553, 313.0343676145553, 313.2010676145553, 313.9510676145553, 314.06773428121534, 314.18440094787536, 314.3010676145354, 314.4177342811954, 314.53440094785543, 314.65106761451545, 314.7677342811755, 314.8844009478355, 315.0010676144955, 315.11773428115555, 315.2344009478156, 315.3510676144756, 315.4677342811356, 315.58440094779564, 315.70106761445567, 315.8177342811157, 316.05106761444904]	2021_Jan_26_1301	59.931899206252815	1	0.375
10	53	FALSE	VV	a	['Z', 'A', 'P', 'C', 'S', 'surprise', 'B', 'G', 'X', 'R', 'M', 'T', 'J', 'K', 'Y', 'E']	[2911, 697, 1456, 829, 1731, 'stimAuditory/all_stimAuditory/109.wav', 760, 944, 4000, 1587, 1224, 1888, 1029, 1122, 2670, 904]	9	Present	NA	NA	PRESENT	0.30240797996520996	318.03622102737427	320.0455400943756	320.7455482005673	321.0955491542216	324.1549370288849	4.109396934509277	[318.0483400821686, 318.1648349761963, 319.1382601261139, 319.31588411331177, 320.0667359828949, 320.1834330558777, 320.3004500865936, 320.4171380996704, 320.53382897377014, 320.65072202682495, 320.76741194725037, 320.88422107696533, 321.0011610984802, 321.1177251338959, 321.2346670627594, 321.3514151573181, 321.4680299758911, 321.5849950313568, 321.7017149925232, 321.8185360431671, 321.9353380203247, 322.1549370288849]	[318.05106761444904, 318.16773428110906, 319.15073428110907, 319.31743428110906, 320.06743428110906, 320.1841009477691, 320.3007676144291, 320.41743428108913, 320.53410094774915, 320.6507676144092, 320.7674342810692, 320.8841009477292, 321.00076761438925, 321.11743428104927, 321.2341009477093, 321.3507676143693, 321.46743428102934, 321.58410094768936, 321.7007676143494, 321.8174342810094, 321.93410094766944, 322.1674342810028]	2021_Jan_26_1301	59.931899206252815	1	0.375
10	54	FALSE	NN	a	['N', 'A', 'M', 'C', 'S', 'P', 'B', 'Z', 'K', 'G', 'T', 'Y', 'V', 'W', 'R', 'J']	[1335, 697, 1224, 829, 1731, 1456, 760, 2911, 1122, 944, 1888, 2670, 2245, 2448, 1587, 1029]	12	Absent	NA	NA	ABSENT	0.3868381977081299	324.15897607803345	326.1619350910187	327.21194319719035	327.561945104519	330.271301984787	4.1093668937683105	[324.17109513282776, 324.28779101371765, 325.2546269893646, 325.4388630390167, 326.1898629665375, 326.30695509910583, 326.423504114151, 326.5401830673218, 326.65693712234497, 326.77389907836914, 326.8907461166382, 327.00747895240784, 327.1245651245117, 327.24105310440063, 327.35787415504456, 327.4745669364929, 327.59118604660034, 327.7080249786377, 327.8249170780182, 327.9417459964752, 328.0585091114044, 328.271301984787]	[324.1674342810028, 324.2841009476628, 325.2671009476628, 325.4338009476628, 326.1838009476628, 326.3004676143228, 326.41713428098285, 326.5338009476429, 326.6504676143029, 326.7671342809629, 326.88380094762294, 327.00046761428297, 327.117134280943, 327.233800947603, 327.35046761426304, 327.46713428092306, 327.5838009475831, 327.7004676142431, 327.81713428090313, 327.93380094756316, 328.0504676142232, 328.28380094755653]	2021_Jan_26_1301	59.931899206252815	1	0.375
10	55	FALSE	NA	a	['S', 'N', 'G', 'P', 'M', 'U', 'Y', 'H', 'X', 'R', 'C', 'B', 'A', 'E', 'T', 'W']	[1731, 1335, 944, 1456, 1224, 2059, 2670, 986, 4000, 1587, 829, 760, 697, 904, 1888, 2448]	9	Present	NA	NA	PRESENT	0.41647791862487793	330.2651791572571	332.27825903892517	332.9782671451169	333.3282690524455	336.3876700401306	4.109411001205444	[330.2772970199585, 330.3941559791565, 331.37099599838257, 331.5455060005188, 332.2961540222168, 332.4130289554596, 332.5298640727997, 332.6465280056, 332.76354813575745, 332.8802180290222, 332.9971640110016, 333.11384201049805, 333.23072504997253, 333.3474659919739, 333.46418595314026, 333.58105206489563, 333.697762966156, 333.81456208229065, 333.9312961101532, 334.0481870174408, 334.1649351119995, 334.38767099380493]	[330.28380094755653, 330.40046761421655, 331.38346761421656, 331.55016761421655, 332.30016761421655, 332.41683428087657, 332.5335009475366, 332.6501676141966, 332.76683428085664, 332.88350094751667, 333.0001676141767, 333.1168342808367, 333.23350094749674, 333.35016761415676, 333.4668342808168, 333.5835009474768, 333.70016761413683, 333.81683428079685, 333.9335009474569, 334.0501676141169, 334.1668342807769, 334.4001676141103]	2021_Jan_26_1301	59.931899206252815	1	0.375
10	56	FALSE	NA	a	['M', 'W', 'B', 'U', 'P', 'J', 'Y', 'A', 'K', 'X', 'C', 'S', 'R', 'H', 'T', 'V']	[1224, 2448, 760, 2059, 1456, 1029, 2670, 697, 1122, 4000, 829, 1731, 1587, 986, 1888, 2245]	10	Present	NA	NA	PRESENT	0.3249049186706543	336.3885099887848	338.39472007751465	339.21139485036633	339.561396757695	342.5040371417999	4.109317064285278	[336.4006280899048, 336.5174219608307, 337.48736214637756, 337.66901111602783, 338.4192509651184, 338.5363349914551, 338.6529531478882, 338.76970195770264, 338.8865520954132, 339.0035209655762, 339.1201751232147, 339.2370960712433, 339.35381603240967, 339.4706971645355, 339.58743810653687, 339.7040650844574, 339.82081604003906, 339.9377031326294, 340.05438899993896, 340.1712861061096, 340.2880480289459, 340.5040371417999]	[336.4001676141103, 336.5168342807703, 337.4998342807703, 337.6665342807703, 338.4165342807703, 338.5332009474303, 338.64986761409034, 338.76653428075036, 338.8832009474104, 338.9998676140704, 339.11653428073043, 339.23320094739046, 339.3498676140505, 339.4665342807105, 339.5832009473705, 339.69986761403055, 339.8165342806906, 339.9332009473506, 340.0498676140106, 340.16653428067065, 340.28320094733067, 340.516534280664]	2021_Jan_26_1301	59.931899206252815	1	0.375
10	57	FALSE	NA	a	['C', 'J', 'S', 'Y', 'M', 'H', 'U', 'W', 'N', 'G', 'E', 'X', 'K', 'V', 'T', 'P']	[829, 1029, 1731, 2670, 1224, 986, 2059, 2448, 1335, 944, 904, 4000, 1122, 2245, 1888, 1456]	12	Present	NA	NA	PRESENT	0.4022200107574463	342.51158618927	344.51103115081787	345.56103901857097	345.9110421179925	348.620402097702	4.109370946884155	[342.52370715141296, 342.640625, 343.60372614860535, 343.7748341560364, 344.54260993003845, 344.6425039768219, 344.7593071460724, 344.87618708610535, 344.9931240081787, 345.10970997810364, 345.22675013542175, 345.34331703186035, 345.46012806892395, 345.57688212394714, 345.69360303878784, 345.8104360103607, 345.9271459579468, 346.0442669391632, 346.16093397140503, 346.2777831554413, 346.3943660259247, 346.620402097702]	[342.516534280664, 342.63320094732404, 343.61620094732405, 343.78290094732404, 344.53290094732404, 344.64956761398406, 344.7662342806441, 344.8829009473041, 344.99956761396413, 345.11623428062416, 345.2329009472842, 345.3495676139442, 345.4662342806042, 345.58290094726425, 345.6995676139243, 345.8162342805843, 345.9329009472443, 346.04956761390434, 346.16623428056437, 346.2829009472244, 346.3995676138844, 346.63290094721776]	2021_Jan_26_1301	59.931899206252815	1	0.375
10	58	FALSE	VA	a	['K', 'H', 'Y', 'B', 'W', 'R', 'Z', 'A', 'surprise', 'C', 'U', 'X', 'V', 'J', 'N', 'M']	[1122, 986, 2670, 760, 2448, 1587, 2911, 697, 'stimAuditory/all_stimAuditory/220.wav', 829, 2059, 4000, 2245, 1029, 1335, 1224]	12	Present	NA	NA	PRESENT	0.2627291679382324	348.6184711456299	350.62754917144775	351.67756514543254	352.0275670527612	354.73677015304565	4.1092209815979	[348.6305899620056, 348.7469289302826, 349.7200951576233, 349.89805698394775, 350.64901399612427, 350.76584815979004, 350.882511138916, 350.9993529319763, 351.1162610054016, 351.2330119609833, 351.3496870994568, 351.46656107902527, 351.5834159851074, 351.70022892951965, 351.81680512428284, 351.9336950778961, 352.0503921508789, 352.16722297668457, 352.28415513038635, 352.40080213546753, 352.51762795448303, 352.73677015304565]	[348.63290094721776, 348.7495676138778, 349.7325676138778, 349.8992676138778, 350.6492676138778, 350.7659342805378, 350.88260094719783, 350.99926761385785, 351.1159342805179, 351.2326009471779, 351.3492676138379, 351.46593428049795, 351.58260094715797, 351.699267613818, 351.815934280478, 351.93260094713804, 352.04926761379807, 352.1659342804581, 352.2826009471181, 352.39926761377814, 352.51593428043816, 352.7492676137715]	2021_Jan_26_1301	59.931899206252815	1	0.375
10	59	FALSE	NA	a	['N', 'C', 'J', 'R', 'S', 'Y', 'K', 'X', 'A', 'P', 'M', 'H', 'E', 'W', 'V', 'U']	[1335, 829, 1029, 1587, 1731, 2670, 1122, 4000, 697, 1456, 1224, 986, 904, 2448, 2245, 2059]	8	Present	NA	NA	PRESENT	0.33124303817749023	354.7412211894989	356.74363017082214	357.32697041826094	357.6769723255896	360.85313606262207	4.109505891799927	[354.75334000587463, 354.8701491355896, 355.83646297454834, 356.02126693725586, 356.7720241546631, 356.8889989852905, 357.0056610107422, 357.1225390434265, 357.23936009407043, 357.35605096817017, 357.4728500843048, 357.58976316452026, 357.70658707618713, 357.8233959674835, 357.94001507759094, 358.0567350387573, 358.17387294769287, 358.2904050350189, 358.4070210456848, 358.52393913269043, 358.64085602760315, 358.8531370162964]	[354.7492676137715, 354.86593428043153, 355.84893428043154, 356.0156342804315, 356.7656342804315, 356.88230094709155, 356.9989676137516, 357.1156342804116, 357.2323009470716, 357.34896761373165, 357.46563428039167, 357.5823009470517, 357.6989676137117, 357.81563428037174, 357.93230094703176, 358.0489676136918, 358.1656342803518, 358.28230094701183, 358.39896761367186, 358.5156342803319, 358.6323009469919, 358.86563428032525]	2021_Jan_26_1301	59.931899206252815	1	0.375
10	60	FALSE	NV	a	['B', 'H', 'E', 'A', 'T', 'S', 'G', 'Y', 'X', 'U', 'Z', 'M', 'W', 'R', 'C', 'J']	[760, 986, 904, 697, 1888, 1731, 944, 2670, 4000, 2059, 2911, 1224, 2448, 1587, 829, 1029]	9	Present	NA	NA	PRESENT	0.36855196952819824	360.84753012657166	362.8601121902466	363.5601200580197	363.9101222037669	366.9695019721985	4.109389781951904	[360.8596489429474, 360.97647309303284, 361.95282793045044, 362.12790608406067, 362.8784170150757, 362.99538493156433, 363.1122679710388, 363.229040145874, 363.34564304351807, 363.46265411376953, 363.57930302619934, 363.6962139606476, 363.8129451274872, 363.9298851490021, 364.0463590621948, 364.16333508491516, 364.2797989845276, 364.3966820240021, 364.51353693008423, 364.6302671432495, 364.7471580505371, 364.9695031642914]	[360.86563428032525, 360.9823009469853, 361.9653009469853, 362.1320009469853, 362.8820009469853, 362.9986676136453, 363.1153342803053, 363.23200094696534, 363.34866761362537, 363.4653342802854, 363.5820009469454, 363.69866761360544, 363.81533428026546, 363.9320009469255, 364.0486676135855, 364.16533428024553, 364.28200094690555, 364.3986676135656, 364.5153342802256, 364.6320009468856, 364.74866761354565, 364.982000946879]	2021_Jan_26_1301	59.931899206252815	1	0.375
10	61	FALSE	NA	a	['B', 'U', 'Z', 'A', 'T', 'H', 'V', 'Y', 'R', 'G', 'M', 'S', 'K', 'X', 'P', 'J']	[760, 2059, 2911, 697, 1888, 986, 2245, 2670, 1587, 944, 1224, 1731, 1122, 4000, 1456, 1029]	14	Present	NA	NA	PRESENT	0.30899691581726074	366.9709131717682	368.97629499435425	370.2596354801716	370.60963738750024	373.0858690738678	4.10957407951355	[366.9830310344696, 367.09977293014526, 368.06919407844543, 368.2511341571808, 369.0016920566559, 369.1186490058899, 369.2352900505066, 369.35211205482483, 369.46894812583923, 369.58584213256836, 369.70239210128784, 369.81926107406616, 369.93623208999634, 370.0527970790863, 370.1695261001587, 370.2864649295807, 370.40316796302795, 370.5198299884796, 370.6368019580841, 370.7536709308624, 370.870432138443, 371.0858700275421]	[366.982000946879, 367.098667613539, 368.081667613539, 368.248367613539, 368.998367613539, 369.11503428019904, 369.23170094685906, 369.3483676135191, 369.4650342801791, 369.58170094683913, 369.69836761349916, 369.8150342801592, 369.9317009468192, 370.04836761347923, 370.16503428013925, 370.2817009467993, 370.3983676134593, 370.5150342801193, 370.63170094677935, 370.74836761343937, 370.8650342800994, 371.09836761343274]	2021_Jan_26_1301	59.931899206252815	1	0.375
10	62	FALSE	AN	a	['A', 'W', 'H', 'B', 'R', 'S', 'Y', 'J', 'U', 'E', 'surprise', 'N', 'M', 'G', 'K', 'C']	[697, 2448, 986, 760, 1587, 1731, 2670, 1029, 2059, 904, 'stimAuditory/all_stimAuditory/107.wav', 1335, 1224, 944, 1122, 829]	14	Absent	stimAuditory/all_stimAuditory/221.wav	NA	ABSENT	0.6744120121002197	373.0940911769867	375.09282517433167	376.3761663754047	376.726168521152	379.2022359371186	4.109410762786865	[373.1062099933624, 373.22293400764465, 374.18555998802185, 374.3572630882263, 375.12486815452576, 375.2248799800873, 375.34185910224915, 375.4584729671478, 375.57545804977417, 375.692085981369, 375.80882811546326, 375.92575311660767, 376.04240107536316, 376.1592559814453, 376.27592515945435, 376.3928909301758, 376.50946497917175, 376.6263630390167, 376.7430970668793, 376.8599750995636, 376.97675800323486, 377.2022371292114]	[373.09836761343274, 373.21503428009277, 374.19803428009277, 374.36473428009276, 375.11473428009276, 375.2314009467528, 375.3480676134128, 375.46473428007283, 375.58140094673286, 375.6980676133929, 375.8147342800529, 375.9314009467129, 376.04806761337295, 376.164734280033, 376.281400946693, 376.398067613353, 376.51473428001304, 376.63140094667307, 376.7480676133331, 376.8647342799931, 376.98140094665314, 377.2147342799865]	2021_Jan_26_1301	59.931899206252815	1	0.375
10	63	FALSE	NV	a	['E', 'G', 'J', 'K', 'T', 'H', 'R', 'V', 'N', 'B', 'X', 'U', 'A', 'S', 'W', 'Z']	[904, 944, 1029, 1122, 1888, 986, 1587, 2245, 1335, 760, 4000, 2059, 697, 1731, 2448, 2911]	11	Present	NA	NA	PRESENT	0.3909459114074707	379.20074820518494	381.2091281414032	382.1424693424963	382.4924714882435	385.31860303878784	4.1094748973846436	[379.212867975235, 379.3291759490967, 380.30192708969116, 380.48057794570923, 381.23108410835266, 381.34817814826965, 381.46494913101196, 381.5817301273346, 381.69838213920593, 381.81525802612305, 381.9320001602173, 382.0489571094513, 382.1656789779663, 382.2823979854584, 382.39918303489685, 382.51603412628174, 382.6327109336853, 382.74967193603516, 382.86636900901794, 382.9830400943756, 383.1000039577484, 383.31860303878784]	[379.2147342799865, 379.3314009466465, 380.3144009466465, 380.4811009466465, 381.2311009466465, 381.34776761330653, 381.46443427996655, 381.5811009466266, 381.6977676132866, 381.8144342799466, 381.93110094660665, 382.04776761326667, 382.1644342799267, 382.2811009465867, 382.39776761324674, 382.51443427990677, 382.6311009465668, 382.7477676132268, 382.86443427988684, 382.98110094654686, 383.0977676132069, 383.33110094654023]	2021_Jan_26_1301	59.931899206252815	1	0.375
10	64	FALSE	NN	a	['E', 'R', 'Z', 'M', 'U', 'W', 'K', 'T', 'H', 'C', 'V', 'Y', 'P', 'G', 'B', 'J']	[904, 1587, 2911, 1224, 2059, 2448, 1122, 1888, 986, 829, 2245, 2670, 1456, 944, 760, 1029]	10	Absent	NA	NA	ABSENT	0.3883569240570069	385.3234190940857	387.3257369995117	388.1424117723634	388.4924136796921	391.43496894836426	4.109231948852539	[385.3355391025543, 385.45259714126587, 386.4182939529419, 386.60353803634644, 387.3543951511383, 387.47133016586304, 387.58811497688293, 387.7047870159149, 387.82159996032715, 387.9383399486542, 388.05523109436035, 388.1718940734863, 388.2888009548187, 388.4054181575775, 388.522164106369, 388.63898611068726, 388.75603199005127, 388.8727340698242, 388.98957204818726, 389.0896580219269, 389.2231659889221, 389.43497014045715]	[385.33110094654023, 385.44776761320026, 386.43076761320026, 386.59746761320025, 387.34746761320025, 387.4641342798603, 387.5808009465203, 387.6974676131803, 387.81413427984035, 387.93080094650037, 388.0474676131604, 388.1641342798204, 388.28080094648044, 388.39746761314046, 388.5141342798005, 388.6308009464605, 388.74746761312053, 388.86413427978056, 388.9808009464406, 389.0974676131006, 389.21413427976063, 389.447467613094]	2021_Jan_26_1301	59.931899206252815	1	0.375
10	65	FALSE	NV	a	['H', 'G', 'B', 'K', 'J', 'T', 'W', 'M', 'U', 'R', 'X', 'C', 'P', 'V', 'E', 'A']	[986, 944, 760, 1122, 1029, 1888, 2448, 1224, 2059, 1587, 4000, 829, 1456, 2245, 904, 697]	11	Present	NA	NA	PRESENT	0.4729189872741699	391.43000507354736	393.4420499801636	394.3753914196753	394.7253933270038	397.5513360500336	4.109286069869995	[391.442125082016, 391.5588309764862, 392.5346591472626, 392.7101471424103, 393.4608290195465, 393.57777309417725, 393.69437193870544, 393.8112871646881, 393.9281280040741, 394.04496812820435, 394.1617670059204, 394.27859115600586, 394.395143032074, 394.5117919445038, 394.6286931037903, 394.7455611228943, 394.86225414276123, 394.9792630672455, 395.0958721637726, 395.2128610610962, 395.3295249938965, 395.55133605003357]	[391.447467613094, 391.564134279754, 392.547134279754, 392.713834279754, 393.463834279754, 393.580500946414, 393.69716761307404, 393.81383427973407, 393.9305009463941, 394.0471676130541, 394.16383427971414, 394.28050094637416, 394.3971676130342, 394.5138342796942, 394.63050094635423, 394.74716761301426, 394.8638342796743, 394.9805009463343, 395.0971676129943, 395.21383427965435, 395.3305009463144, 395.5638342796477]	2021_Jan_26_1301	59.931899206252815	1	0.375
10	66	FALSE	NN	a	['Y', 'B', 'S', 'U', 'A', 'C', 'W', 'J', 'R', 'M', 'K', 'E', 'G', 'Z', 'T', 'P']	[2670, 760, 1731, 2059, 697, 829, 2448, 1029, 1587, 1224, 1122, 904, 944, 2911, 1888, 1456]	11	Absent	NA	NA	ABSENT	0.3893578052520752	397.5531611442566	399.5583031177521	400.4916443188452	400.8416464645924	403.66770195961	4.10939884185791	[397.5652811527252, 397.68206310272217, 398.651025056839, 398.83311009407043, 399.5843391418457, 399.70066809654236, 399.81756615638733, 399.9342839717865, 400.05132508277893, 400.16786193847656, 400.28474497795105, 400.4014530181885, 400.51829504966736, 400.6351320743561, 400.75193309783936, 400.8687529563904, 400.98559308052063, 401.1022319793701, 401.21913409233093, 401.33578300476074, 401.45265793800354, 401.66770195961]	[397.5638342796477, 397.68050094630775, 398.66350094630775, 398.83020094630774, 399.58020094630774, 399.69686761296776, 399.8135342796278, 399.9302009462878, 400.04686761294784, 400.16353427960786, 400.2802009462679, 400.3968676129279, 400.51353427958793, 400.63020094624795, 400.746867612908, 400.863534279568, 400.980200946228, 401.09686761288805, 401.21353427954807, 401.3302009462081, 401.4468676128681, 401.68020094620147]	2021_Jan_26_1301	59.931899206252815	1	0.375
10	67	FALSE	NV	a	['S', 'A', 'M', 'B', 'H', 'R', 'C', 'X', 'G', 'Y', 'V', 'N', 'T', 'U', 'K', 'Z']	[1731, 697, 1224, 760, 986, 1587, 829, 4000, 944, 2670, 2245, 1335, 1888, 2059, 1122, 2911]	8	Present	NA	NA	PRESENT	0.2265770435333252	403.6764090061188	405.6747591495514	406.2581015427574	406.60810249641173	409.7840690612793	4.109309911727905	[403.6885280609131, 403.80519914627075, 404.7673931121826, 404.93948197364807, 405.7071919441223, 405.8071520328522, 405.92396211624146, 406.0409240722656, 406.15747714042664, 406.27448201179504, 406.3911020755768, 406.5080759525299, 406.62459993362427, 406.7414610385895, 406.8584830760956, 406.9751441478729, 407.0917580127716, 407.20871210098267, 407.3257329463959, 407.44216895103455, 407.5590760707855, 407.7840690612793]	[403.68020094620147, 403.7968676128615, 404.7798676128615, 404.9465676128615, 405.6965676128615, 405.8132342795215, 405.92990094618153, 406.04656761284156, 406.1632342795016, 406.2799009461616, 406.3965676128216, 406.51323427948165, 406.6299009461417, 406.7465676128017, 406.8632342794617, 406.97990094612175, 407.09656761278177, 407.2132342794418, 407.3299009461018, 407.44656761276184, 407.56323427942186, 407.7965676127552]	2021_Jan_26_1301	59.931899206252815	1	0.375
10	68	FALSE	NV	a	['B', 'R', 'Y', 'C', 'S', 'U', 'G', 'V', 'X', 'Z', 'H', 'A', 'E', 'M', 'P', 'K']	[760, 1587, 2670, 829, 1731, 2059, 944, 2245, 4000, 2911, 986, 697, 904, 1224, 1456, 1122]	9	Present	NA	NA	PRESENT	0.1911020278930664	409.7829210758209	411.79115319252014	412.49116010661896	412.8411620139475	415.9004371166229	4.109283924102783	[409.79504013061523, 409.91168093681335, 410.88376212120056, 411.0627131462097, 411.81360912323, 411.93026208877563, 412.0471730232239, 412.16406893730164, 412.28091406822205, 412.39754700660706, 412.5143699645996, 412.6312680244446, 412.7477250099182, 412.86459612846375, 412.98138403892517, 413.09807205200195, 413.21510195732117, 413.33182311058044, 413.4485111236572, 413.56542015075684, 413.68225502967834, 413.9004361629486]	[409.7965676127552, 409.91323427941524, 410.89623427941524, 411.06293427941523, 411.81293427941523, 411.92960094607525, 412.0462676127353, 412.1629342793953, 412.2796009460553, 412.39626761271535, 412.5129342793754, 412.6296009460354, 412.7462676126954, 412.86293427935544, 412.97960094601547, 413.0962676126755, 413.2129342793355, 413.32960094599554, 413.44626761265556, 413.5629342793156, 413.6796009459756, 413.91293427930896]	2021_Jan_26_1301	59.931899206252815	1	0.375
10	69	FALSE	AV	a	['T', 'S', 'J', 'Z', 'A', 'surprise', 'W', 'B', 'X', 'U', 'N', 'P', 'C', 'R', 'E', 'V']	[1888, 1731, 1029, 2911, 697, 'stimAuditory/all_stimAuditory/123.wav', 2448, 760, 4000, 2059, 1335, 1456, 829, 1587, 904, 2245]	9	Present	stimAuditory/all_stimAuditory/207.wav	NA	PRESENT	1.2765541076660156	415.9057881832123	417.9075381755829	418.607546043356	418.9575481891032	422.016802072525	4.109263896942139	[415.917906999588, 416.0347030162811, 417.00012612342834, 417.18578815460205, 417.93674492836, 418.0534131526947, 418.1703281402588, 418.28703713417053, 418.40398502349854, 418.52068400382996, 418.63748812675476, 418.75449204444885, 418.87111711502075, 418.9876971244812, 419.1049461364746, 419.22135400772095, 419.33821296691895, 419.43811297416687, 419.5549330711365, 419.6717040538788, 419.7885401248932, 420.01680397987366]	[415.91293427930896, 416.029600945969, 417.012600945969, 417.179300945969, 417.929300945969, 418.045967612629, 418.162634279289, 418.27930094594905, 418.39596761260907, 418.5126342792691, 418.6293009459291, 418.74596761258914, 418.86263427924916, 418.9793009459092, 419.0959676125692, 419.21263427922923, 419.32930094588926, 419.4459676125493, 419.5626342792093, 419.67930094586933, 419.79596761252935, 420.0293009458627]	2021_Jan_26_1301	59.931899206252815	1	0.375
10	70	FALSE	NV	a	['H', 'A', 'U', 'Z', 'K', 'E', 'M', 'S', 'W', 'Y', 'N', 'X', 'B', 'V', 'G', 'T']	[986, 697, 2059, 2911, 1122, 904, 1224, 1731, 2448, 2670, 1335, 4000, 760, 2245, 944, 1888]	12	Present	NA	NA	PRESENT	0.25699806213378906	422.0121932029724	424.0238151550293	425.0738230227824	425.4238251685296	428.13317012786865	4.1093549728393555	[422.02431201934814, 422.141184091568, 423.1164929866791, 423.2921941280365, 424.04306507110596, 424.1600880622864, 424.2765669822693, 424.3938009738922, 424.51029205322266, 424.62713503837585, 424.74408411979675, 424.860799074173, 424.9773609638214, 425.09422302246094, 425.2114019393921, 425.3279049396515, 425.4446361064911, 425.56135296821594, 425.6783039569855, 425.7949049472809, 425.91197299957275, 426.13316893577576]	[422.0293009458627, 422.1459676125227, 423.12896761252273, 423.2956676125227, 424.0456676125227, 424.16233427918274, 424.27900094584277, 424.3956676125028, 424.5123342791628, 424.62900094582284, 424.74566761248286, 424.8623342791429, 424.9790009458029, 425.09566761246293, 425.21233427912296, 425.329000945783, 425.445667612443, 425.562334279103, 425.67900094576305, 425.7956676124231, 425.9123342790831, 426.14566761241645]	2021_Jan_26_1301	59.931899206252815	1	0.375
10	71	FALSE	NV	a	['P', 'U', 'A', 'J', 'Z', 'C', 'W', 'R', 'M', 'N', 'B', 'V', 'E', 'X', 'Y', 'H']	[1456, 2059, 697, 1029, 2911, 829, 2448, 1587, 1224, 1335, 760, 2245, 904, 4000, 2670, 986]	14	Present	NA	NA	PRESENT	0.245682954788208	428.1354761123657	430.14029812812805	431.423640521294	431.7736424286227	434.24953603744507	4.109237909317017	[428.14759397506714, 428.2643971443176, 429.2328579425812, 429.415894985199, 430.16629099845886, 430.2831780910492, 430.3999581336975, 430.51656794548035, 430.6334159374237, 430.75023198127747, 430.8670871257782, 430.9839129447937, 431.1004569530487, 431.2174940109253, 431.33419704437256, 431.45091104507446, 431.56791496276855, 431.68440294265747, 431.8014979362488, 431.9181880950928, 432.03486609458923, 432.24953603744507]	[428.14566761241645, 428.26233427907647, 429.2453342790765, 429.41203427907647, 430.16203427907647, 430.2787009457365, 430.3953676123965, 430.51203427905654, 430.62870094571656, 430.7453676123766, 430.8620342790366, 430.97870094569663, 431.09536761235665, 431.2120342790167, 431.3287009456767, 431.4453676123367, 431.56203427899675, 431.6787009456568, 431.7953676123168, 431.9120342789768, 432.02870094563684, 432.2620342789702]	2021_Jan_26_1301	59.931899206252815	1	0.375
10	72	FALSE	NA	a	['T', 'B', 'S', 'K', 'E', 'U', 'P', 'W', 'H', 'Z', 'V', 'C', 'X', 'J', 'Y', 'M']	[1888, 760, 1731, 1122, 904, 2059, 1456, 2448, 986, 2911, 2245, 829, 4000, 1029, 2670, 1224]	13	Present	NA	NA	PRESENT	0.6827311515808105	434.2584960460663	436.2564821243286	437.42315665874173	437.77315880448896	440.3659031391144	4.109421014785767	[434.2706141471863, 434.387570142746, 435.349228143692, 435.52184200286865, 436.28950810432434, 436.3895900249481, 436.5063741207123, 436.6232240200043, 436.7398500442505, 436.8568079471588, 436.9737060070038, 437.090213060379, 437.2069070339203, 437.3238649368286, 437.4405851364136, 437.5574610233307, 437.6742219924927, 437.7910580635071, 437.9077799320221, 438.0244150161743, 438.1414270401001, 438.3659031391144]	[434.2620342789702, 434.3787009456302, 435.3617009456302, 435.5284009456302, 436.2784009456302, 436.39506761229023, 436.51173427895026, 436.6284009456103, 436.7450676122703, 436.8617342789303, 436.97840094559035, 437.0950676122504, 437.2117342789104, 437.3284009455704, 437.44506761223045, 437.56173427889047, 437.6784009455505, 437.7950676122105, 437.91173427887054, 438.02840094553056, 438.1450676121906, 438.37840094552394]	2021_Jan_26_1301	59.931899206252815	1	0.375
10	73	FALSE	NA	a	['Z', 'G', 'A', 'S', 'C', 'K', 'E', 'U', 'N', 'M', 'X', 'B', 'T', 'Y', 'V', 'P']	[2911, 944, 697, 1731, 829, 1122, 904, 2059, 1335, 1224, 4000, 760, 1888, 2670, 2245, 1456]	11	Present	NA	NA	PRESENT	0.20755505561828613	440.3652970790863	442.3726630210877	443.30600446059935	443.65600636792794	446.4822690486908	4.109606027603149	[440.37741708755493, 440.4939489364624, 441.46559596061707, 441.64502811431885, 442.3958351612091, 442.5125811100006, 442.6294391155243, 442.7462000846863, 442.8631229400635, 442.9798059463501, 443.0966820716858, 443.2132520675659, 443.3300049304962, 443.44705414772034, 443.5637991428375, 443.6804130077362, 443.79745602607727, 443.9140131473541, 444.031042098999, 444.14769101142883, 444.26458716392517, 444.4822700023651]	[440.37840094552394, 440.49506761218396, 441.47806761218396, 441.64476761218395, 442.39476761218395, 442.511434278844, 442.628100945504, 442.744767612164, 442.86143427882405, 442.9781009454841, 443.0947676121441, 443.2114342788041, 443.32810094546414, 443.44476761212417, 443.5614342787842, 443.6781009454442, 443.79476761210424, 443.91143427876426, 444.0281009454243, 444.1447676120843, 444.26143427874433, 444.4947676120777]	2021_Jan_26_1301	59.931899206252815	1	0.375
10	74	FALSE	NN	a	['W', 'M', 'T', 'C', 'G', 'R', 'P', 'N', 'S', 'H', 'Z', 'Y', 'K', 'J', 'B', 'V']	[2448, 1224, 1888, 829, 944, 1587, 1456, 1335, 1731, 986, 2911, 2670, 1122, 1029, 760, 2245]	12	Absent	NA	NA	ABSENT	0.7888078689575195	446.4880580902099	448.489196062088	449.5392041682597	449.88920607558833	452.5986361503601	4.109440088272095	[446.5001790523529, 446.61707305908203, 447.58195996284485, 447.76823711395264, 448.51901507377625, 448.6357901096344, 448.75257110595703, 448.8694269657135, 448.9861071109772, 449.1029119491577, 449.2199079990387, 449.33637499809265, 449.4533200263977, 449.5532250404358, 449.6700360774994, 449.78681802749634, 449.9036259651184, 450.0204620361328, 450.1375229358673, 450.25410294532776, 450.37090396881104, 450.5986361503601]	[446.4947676120777, 446.6114342787377, 447.5944342787377, 447.7611342787377, 448.5111342787377, 448.6278009453977, 448.74446761205775, 448.86113427871777, 448.9778009453778, 449.0944676120378, 449.21113427869784, 449.32780094535786, 449.4444676120179, 449.5611342786779, 449.67780094533794, 449.79446761199796, 449.911134278658, 450.027800945318, 450.14446761197803, 450.26113427863805, 450.3778009452981, 450.6111342786314]	2021_Jan_26_1301	59.931899206252815	1	0.375
10	75	FALSE	NV	a	['J', 'A', 'R', 'N', 'H', 'B', 'Z', 'M', 'X', 'Y', 'P', 'E', 'W', 'V', 'T', 'S']	[1029, 697, 1587, 1335, 986, 760, 2911, 1224, 4000, 2670, 1456, 904, 2448, 2245, 1888, 1731]	9	Present	NA	NA	PRESENT	0.24137592315673828	452.5947132110596	454.6054151058197	455.3054220199185	455.6554241656657	458.7150020599365	4.109586954116821	[452.606831073761, 452.7235200405121, 453.69832706451416, 453.87455701828003, 454.6253399848938, 454.74222803115845, 454.8590021133423, 454.9757001399994, 455.09257912635803, 455.20951795578003, 455.3262860774994, 455.4430501461029, 455.5598020553589, 455.6764099597931, 455.79341101646423, 455.9100589752197, 456.0269911289215, 456.14376401901245, 456.26064801216125, 456.3771970272064, 456.4942581653595, 456.7150020599365]	[452.6111342786314, 452.72780094529145, 453.71080094529145, 453.87750094529144, 454.62750094529144, 454.74416761195147, 454.8608342786115, 454.9775009452715, 455.09416761193154, 455.21083427859156, 455.3275009452516, 455.4441676119116, 455.56083427857163, 455.67750094523166, 455.7941676118917, 455.9108342785517, 456.0275009452117, 456.14416761187175, 456.2608342785318, 456.3775009451918, 456.4941676118518, 456.72750094518517]	2021_Jan_26_1301	59.931899206252815	1	0.375
10	76	FALSE	NV	a	['B', 'T', 'S', 'G', 'E', 'H', 'P', 'M', 'Y', 'A', 'W', 'X', 'K', 'J', 'R', 'N']	[760, 1888, 1731, 944, 904, 986, 1456, 1224, 2670, 697, 2448, 4000, 1122, 1029, 1587, 1335]	12	Present	NA	NA	PRESENT	0.23786187171936035	458.717679977417	460.7218790054322	461.7718861579295	462.12188806525813	464.83137011528015	4.1094911098480225	[458.729798078537, 458.8466999530792, 459.8146970272064, 459.99780893325806, 460.7489261627197, 460.86521100997925, 460.98215103149414, 461.099112033844, 461.2158761024475, 461.33242416381836, 461.4493751525879, 461.56611609458923, 461.68314003944397, 461.7996470928192, 461.9163501262665, 462.03332805633545, 462.15013003349304, 462.26698303222656, 462.38381695747375, 462.5005450248718, 462.61706805229187, 462.83137011528015]	[458.72750094518517, 458.8441676118452, 459.8271676118452, 459.9938676118452, 460.7438676118452, 460.8605342785052, 460.97720094516524, 461.09386761182526, 461.2105342784853, 461.3272009451453, 461.44386761180533, 461.56053427846535, 461.6772009451254, 461.7938676117854, 461.9105342784454, 462.02720094510545, 462.1438676117655, 462.2605342784255, 462.3772009450855, 462.49386761174554, 462.61053427840557, 462.8438676117389]	2021_Jan_26_1301	59.931899206252815	1	0.375
10	77	FALSE	NA	a	['N', 'M', 'E', 'H', 'A', 'Z', 'R', 'X', 'B', 'S', 'G', 'T', 'W', 'C', 'P', 'V']	[1335, 1224, 904, 986, 697, 2911, 1587, 4000, 760, 1731, 944, 1888, 2448, 829, 1456, 2245]	8	Present	NA	NA	PRESENT	0.26714301109313965	464.8408410549164	466.8384931087494	467.4218343098625	467.7718355019354	470.9477369785309	4.109243869781494	[464.852961063385, 464.95298314094543, 465.9310600757599, 466.1041729450226, 466.8716859817505, 466.9718379974365, 467.08855509757996, 467.2054841518402, 467.32216596603394, 467.43913197517395, 467.5556449890137, 467.6726379394531, 467.7892711162567, 467.9060380458832, 468.0228419303894, 468.1395580768585, 468.25650215148926, 468.3731789588928, 468.49028515815735, 468.6069190502167, 468.72369408607483, 468.9477369785309]	[464.8438676117389, 464.96053427839894, 465.94353427839894, 466.11023427839893, 466.86023427839893, 466.97690094505896, 467.093567611719, 467.210234278379, 467.32690094503903, 467.44356761169905, 467.5602342783591, 467.6769009450191, 467.7935676116791, 467.91023427833915, 468.02690094499917, 468.1435676116592, 468.2602342783192, 468.37690094497924, 468.49356761163926, 468.6102342782993, 468.7269009449593, 468.96023427829266]	2021_Jan_26_1301	59.931899206252815	1	0.375
10	78	FALSE	AA	a	['C', 'J', 'Z', 'T', 'W', 'Y', 'surprise', 'K', 'G', 'X', 'A', 'M', 'U', 'S', 'B', 'E']	[829, 1029, 2911, 1888, 2448, 2670, 'stimAuditory/all_stimAuditory/218.wav', 1122, 944, 4000, 697, 1224, 2059, 1731, 760, 904]	10	Present	stimAuditory/all_stimAuditory/102.wav	NA	ABSENT	0.7517459392547607	470.9476041793823	472.9546151161194	473.7712886968782	474.1212908426254	477.0641031265259	4.109488010406494	[470.95972299575806, 471.07618498802185, 472.04742407798767, 472.22726798057556, 472.9781811237335, 473.094938993454, 473.21192812919617, 473.32839798927307, 473.44538402557373, 473.5622351169586, 473.6789331436157, 473.7957270145416, 473.91256403923035, 474.0291540622711, 474.1461639404297, 474.26281809806824, 474.37971210479736, 474.4963221549988, 474.6133041381836, 474.72991704940796, 474.8466830253601, 475.0641031265259]	[470.96023427829266, 471.0769009449527, 472.0599009449527, 472.2266009449527, 472.9766009449527, 473.0932676116127, 473.2099342782727, 473.32660094493275, 473.4432676115928, 473.5599342782528, 473.6766009449128, 473.79326761157284, 473.90993427823287, 474.0266009448929, 474.1432676115529, 474.25993427821294, 474.37660094487296, 474.493267611533, 474.609934278193, 474.72660094485303, 474.84326761151306, 475.0766009448464]	2021_Jan_26_1301	59.931899206252815	1	0.375
10	79	FALSE	NN	a	['M', 'Y', 'W', 'S', 'K', 'N', 'T', 'J', 'G', 'P', 'H', 'Z', 'C', 'B', 'E', 'U']	[1224, 2670, 2448, 1731, 1122, 1335, 1888, 1029, 944, 1456, 986, 2911, 829, 760, 904, 2059]	8	Absent	NA	NA	ABSENT	0.9010660648345948	477.0704309940338	479.07105016708374	479.65439136819685	480.0043935139441	483.1804690361023	4.109418869018555	[477.0825500488281, 477.1992530822754, 478.16379404067993, 478.3505129814148, 479.1013021469116, 479.2181839942932, 479.33499908447266, 479.4347939491272, 479.5516059398651, 479.6684420108795, 479.78515815734863, 479.9019501209259, 480.018837928772, 480.13583993911743, 480.2523629665375, 480.3691351413727, 480.48595809936523, 480.60270714759827, 480.7195529937744, 480.83633613586426, 480.95311212539673, 481.1804690361023]	[477.0766009448464, 477.1932676115064, 478.17626761150643, 478.3429676115064, 479.0929676115064, 479.20963427816645, 479.32630094482647, 479.4429676114865, 479.5596342781465, 479.67630094480654, 479.79296761146657, 479.9096342781266, 480.0263009447866, 480.14296761144664, 480.25963427810666, 480.3763009447667, 480.4929676114267, 480.60963427808673, 480.72630094474675, 480.8429676114068, 480.9596342780668, 481.19296761140015]	2021_Jan_26_1301	59.931899206252815	1	0.375
