participant	trial_num	practice	task	condition	RSVP	RAP	probePos	probe_presence	surprise_sound	surprise_img	probe_response	probe_resp_time	first_fixation_time	trial_start_time	surprise_start_time	probe_start_time	trial_end_time	trial_duration	actualEventTimes	plannedEventTimes	date	framerate	marker_vol	RAP_vol
10	1	FALSE	NV	v	['H', 'N', 'V', 'C', 'P', 'E', 'Z', 'W', 'Y', 'G', 'J', 'X', 'S', 'R', 'U', 'A']	[986, 1335, 2245, 829, 1456, 904, 2911, 2448, 2670, 944, 1029, 4000, 1731, 1587, 2059, 697]	12	Present	NA	NA	NONE	-1	3.0994415283203125e-6	1.9915790557861328	3.039583921432495	3.389899969100952	6.124846935272217	4.133267879486084	[0.01858997344970703, 0.11836504936218262, 1.1026921272277832, 1.2694311141967773, 2.0201590061187744, 2.137242078781128, 2.2537760734558105, 2.3708419799804688, 2.487499952316284, 2.604236125946045, 2.720979928970337, 2.8379459381103516, 2.9545741081237793, 3.071514129638672, 3.188143014907837, 3.30507493019104, 3.421674966812134, 3.538532018661499, 3.655359983444214, 3.77215313911438, 3.889155149459839, 4.1038689613342285]	[9.5367431640625e-07, 0.11666762034098306, 1.099667620340983, 1.266367620340983, 2.016367620340983, 2.1330342870076495, 2.249700953674316, 2.366367620340983, 2.4830342870076496, 2.5997009536743163, 2.716367620340983, 2.8330342870076497, 2.9497009536743164, 3.066367620340983, 3.18303428700765, 3.2997009536743165, 3.416367620340983, 3.53303428700765, 3.6497009536743166, 3.7663676203409833, 3.88303428700765, 4.116367620340983]	2021_Jan_26_1323	59.95888668105728	1	1
10	2	FALSE	NA	v	['G', 'Y', 'M', 'V', 'Z', 'A', 'J', 'W', 'X', 'U', 'E', 'T', 'C', 'H', 'R', 'K']	[944, 2670, 1224, 2245, 2911, 697, 1029, 2448, 4000, 2059, 904, 1888, 829, 986, 1587, 1122]	9	Present	NA	NA	PRESENT	0.35312390327453613	6.122789144515991	8.104429006576538	8.804934978485107	9.1548309326171875	12.220237016677856	4.115808010101318	[6.1413750648498535, 6.241477012634277, 7.2089221477508545, 7.375800132751465, 8.143404960632324, 8.260281085968018, 8.377072095870972, 8.493760108947754, 8.61066198348999, 8.727362155914307, 8.844179153442383, 8.96083402633667, 9.077986001968384, 9.177688121795654, 9.294518947601318, 9.428180932998657, 9.528075933456421, 9.64490008354187, 9.761696100234985, 9.87839412689209, 9.995614051818848, 10.220237016677856]	[6.116367620340983, 6.23303428700765, 7.216034287007649, 7.382734287007649, 8.132734287007649, 8.249400953674316, 8.366067620340983, 8.48273428700765, 8.599400953674317, 8.716067620340985, 8.832734287007652, 8.949400953674319, 9.066067620340986, 9.182734287007653, 9.29940095367432, 9.416067620340987, 9.532734287007655, 9.649400953674322, 9.766067620340989, 9.882734287007656, 9.999400953674323, 10.232734287007656]	2021_Jan_26_1323	59.95888668105728	1	1
10	3	FALSE	NV	v	['Y', 'G', 'R', 'J', 'B', 'H', 'S', 'N', 'T', 'X', 'A', 'K', 'E', 'Z', 'C', 'W']	[2670, 944, 1587, 1029, 760, 986, 1731, 1335, 1888, 4000, 697, 1122, 904, 2911, 829, 2448]	10	Present	NA	NA	PRESENT	0.34158992767333984	12.21245503425598	14.22081208229065	15.037750005722046	15.387948989868164	18.336602926254272	4.115790843963623	[12.23104214668274, 12.348031044006348, 13.332262992858887, 13.49901294708252, 14.249774932861328, 14.366718053817749, 14.483649015426636, 14.600465059280396, 14.716984987258911, 14.834006071090698, 14.95058012008667, 15.06746792793274, 15.184183120727539, 15.301027059555054, 15.417712926864624, 15.534625053405762, 15.651251077651978, 15.768166065216064, 15.88499402999878, 16.001569986343384, 16.1184720993042, 16.336601972579956]	[12.232734287007656, 12.349400953674323, 13.332400953674323, 13.499100953674324, 14.249100953674324, 14.365767620340991, 14.482434287007658, 14.599100953674325, 14.715767620340992, 14.83243428700766, 14.949100953674327, 15.065767620340994, 15.182434287007661, 15.299100953674328, 15.415767620340995, 15.532434287007662, 15.64910095367433, 15.765767620340997, 15.882434287007664, 15.999100953674331, 16.115767620340996, 16.34910095367433]	2021_Jan_26_1323	59.95888668105728	1	1
10	4	FALSE	VV	v	['E', 'M', 'J', 'P', 'surprise', 'R', 'B', 'X', 'T', 'K', 'A', 'C', 'U', 'Z', 'S', 'H']	[904, 1224, 1029, 1456, 'stimAuditory/all_stimAuditory/213.wav', 1587, 760, 4000, 1888, 1122, 697, 829, 2059, 2911, 1731, 986]	8	Present	NA	stimVisual/all_stimVisual/224.jpg	PRESENT	0.4430849552154541	18.33576011657715	20.337100982666016	20.92102813720703	21.2706561088562	24.452970027923584	4.115869045257568	[18.35434603691101, 18.471091985702515, 19.455496072769165, 19.62223196029663, 20.373213052749634, 20.489999055862427, 20.60656714439392, 20.72344994544983, 20.85690712928772, 20.956790924072266, 21.073748111724854, 21.190547943115234, 21.30734395980835, 21.424226999282837, 21.54103994369507, 21.657686948776245, 21.774394989013672, 21.891412019729614, 22.008201122283936, 22.124837160110474, 22.224947929382324, 22.452969074249268]	[18.34910095367433, 18.465767620340998, 19.448767620341, 19.615467620340997, 20.365467620340997, 20.482134287007664, 20.59880095367433, 20.715467620341, 20.832134287007666, 20.948800953674333, 21.065467620341, 21.182134287007667, 21.298800953674334, 21.415467620341, 21.53213428700767, 21.648800953674336, 21.765467620341003, 21.88213428700767, 21.998800953674337, 22.115467620341004, 22.23213428700767, 22.465467620341006]	2021_Jan_26_1323	59.95888668105728	1	1
10	5	FALSE	NV	v	['H', 'V', 'Z', 'P', 'A', 'Y', 'K', 'S', 'E', 'X', 'C', 'N', 'J', 'B', 'W', 'T']	[986, 2245, 2911, 1456, 697, 2670, 1122, 1731, 904, 4000, 829, 1335, 1029, 760, 2448, 1888]	10	Present	NA	NA	PRESENT	0.27951598167419434	24.44215703010559	26.453545093536377	27.27031207084656	27.620661973953247	30.5693359375	4.115790843963623	[24.460742950439453, 24.577404022216797, 25.561726093292236, 25.728747129440308, 26.496358156204224, 26.596187114715576, 26.713109016418457, 26.82987093925476, 26.946704149246216, 27.063537120819092, 27.18002414703369, 27.29704713821411, 27.41364598274231, 27.53066897392273, 27.647310972213745, 27.764081954956055, 27.880901098251343, 27.997637033462524, 28.11444401741028, 28.23146414756775, 28.348092079162598, 28.5693359375]	[24.465467620341006, 24.582134287007673, 25.565134287007673, 25.731834287007672, 26.481834287007672, 26.59850095367434, 26.715167620341006, 26.831834287007673, 26.94850095367434, 27.065167620341008, 27.181834287007675, 27.298500953674342, 27.41516762034101, 27.531834287007676, 27.648500953674343, 27.76516762034101, 27.881834287007678, 27.998500953674345, 28.115167620341012, 28.23183428700768, 28.348500953674346, 28.58183428700768]	2021_Jan_26_1323	59.95888668105728	1	1
10	6	FALSE	NA	v	['P', 'J', 'E', 'V', 'S', 'W', 'Z', 'C', 'T', 'B', 'X', 'Y', 'H', 'A', 'N', 'R']	[1456, 1029, 904, 2245, 1731, 2448, 2911, 829, 1888, 760, 4000, 2670, 986, 697, 1335, 1587]	11	Present	NA	NA	PRESENT	0.2680368423461914	30.56548810005188	32.5704391002655	33.503329038619995	33.85380697250366	36.68570303916931	4.115263938903809	[30.584074020385742, 30.700730085372925, 31.685063123703003, 31.851727962493896, 32.60252499580383, 32.71954393386841, 32.83621692657471, 32.953047037124634, 33.069775104522705, 33.186437129974365, 33.303364992141724, 33.420007944107056, 33.53700804710388, 33.65356492996216, 33.77055811882019, 33.88720393180847, 34.004096031188965, 34.12099099159241, 34.237728118896484, 34.35433292388916, 34.4713339805603, 34.68570303916931]	[30.58183428700768, 30.698500953674348, 31.681500953674348, 31.848200953674347, 32.59820095367435, 32.71486762034102, 32.831534287007685, 32.94820095367435, 33.06486762034102, 33.181534287007686, 33.29820095367435, 33.41486762034102, 33.53153428700769, 33.648200953674355, 33.76486762034102, 33.88153428700769, 33.998200953674356, 34.11486762034102, 34.23153428700769, 34.34820095367436, 34.464867620341025, 34.69820095367436]	2021_Jan_26_1323	59.95888668105728	1	1
10	7	FALSE	NN	v	['T', 'E', 'U', 'V', 'R', 'S', 'N', 'J', 'G', 'Z', 'C', 'P', 'B', 'H', 'K', 'A']	[1888, 904, 2059, 2245, 1587, 1731, 1335, 1029, 944, 2911, 829, 1456, 760, 986, 1122, 697]	8	Absent	NA	NA	NONE	-1	36.68836212158203	38.68635106086731	39.26972699165344	39.620007038116455	42.813472032547	4.1271209716796875	[36.706948041915894, 36.80686902999878, 37.79127812385559, 37.95839214324951, 38.7257399559021, 38.84273409843445, 38.95941495895386, 39.05935215950012, 39.19302010536194, 39.29284906387329, 39.409685134887695, 39.52639412879944, 39.64327812194824, 39.76011109352112, 39.876827001571655, 39.99395298957825, 40.110342025756836, 40.22718596458435, 40.34394812583923, 40.46101903915405, 40.57774209976196, 40.80207014083862]	[36.69820095367436, 36.814867620341026, 37.79786762034102, 37.96456762034102, 38.71456762034102, 38.83123428700769, 38.947900953674356, 39.06456762034102, 39.18123428700769, 39.29790095367436, 39.414567620341025, 39.53123428700769, 39.64790095367436, 39.764567620341026, 39.88123428700769, 39.99790095367436, 40.11456762034103, 40.231234287007695, 40.34790095367436, 40.46456762034103, 40.581234287007696, 40.81456762034103]	2021_Jan_26_1323	59.95888668105728	1	1
10	8	FALSE	NA	v	['Y', 'P', 'T', 'B', 'U', 'V', 'R', 'N', 'H', 'C', 'S', 'X', 'E', 'M', 'G', 'J']	[2670, 1456, 1888, 760, 2059, 2245, 1587, 1335, 986, 829, 1731, 4000, 904, 1224, 944, 1029]	12	Present	NA	NA	PRESENT	0.28581881523132324	42.81148600578308	44.80252695083618	45.85297894477844	46.20303797721863	48.91843605041504	4.115909099578857	[42.83007192611694, 42.93021893501282, 43.91470003128052, 44.0813729763031, 44.832273960113525, 44.949137926101685, 45.0657639503479, 45.18279504776001, 45.29936504364014, 45.41618204116821, 45.53278613090515, 45.649556159973145, 45.76652812957764, 45.883373975753784, 46.00006294250488, 46.116750955581665, 46.23368692398071, 46.35039305686951, 46.46740007400513, 46.58395004272461, 46.7009220123291, 46.91843605041504]	[42.81456762034103, 42.9312342870077, 43.914234287007694, 44.08093428700769, 44.83093428700769, 44.94760095367436, 45.06426762034103, 45.180934287007695, 45.29760095367436, 45.41426762034103, 45.530934287007696, 45.64760095367436, 45.76426762034103, 45.8809342870077, 45.997600953674365, 46.11426762034103, 46.2309342870077, 46.347600953674366, 46.46426762034103, 46.5809342870077, 46.69760095367437, 46.9309342870077]	2021_Jan_26_1323	59.95888668105728	1	1
10	9	FALSE	AA	v	['E', 'P', 'G', 'A', 'Y', 'W', 'T', 'K', 'surprise', 'N', 'V', 'X', 'R', 'U', 'B', 'H']	[904, 1456, 944, 697, 2670, 2448, 1888, 1122, 'stimAuditory/all_stimAuditory/216.wav', 1335, 2245, 4000, 1587, 2059, 760, 986]	12	Present	stimAuditory/all_stimAuditory/213.wav	stimVisual/all_stimVisual/112.jpg	PRESENT	0.33940815925598145	48.9178740978241	50.918899059295654	51.96968102455139	52.31928396224976	55.03480315208435	4.115904092788696	[48.93646001815796, 49.05341196060181, 50.03798508644104, 50.20465302467346, 50.95522093772888, 51.07217812538147, 51.18900513648987, 51.30588507652283, 51.423150062561035, 51.53917193412781, 51.656170129776, 51.772680044174194, 51.889739990234375, 52.00636911392212, 52.12321400642395, 52.239959955215454, 52.35687708854675, 52.47363495826721, 52.59044313430786, 52.70708608627319, 52.80715608596802, 53.03480315208435]	[48.9309342870077, 49.04760095367437, 50.030600953674366, 50.197300953674365, 50.947300953674365, 51.06396762034103, 51.1806342870077, 51.297300953674366, 51.41396762034103, 51.5306342870077, 51.64730095367437, 51.763967620341035, 51.8806342870077, 51.99730095367437, 52.113967620341036, 52.2306342870077, 52.34730095367437, 52.46396762034104, 52.580634287007705, 52.69730095367437, 52.81396762034104, 53.04730095367437]	2021_Jan_26_1323	59.95888668105728	1	1
10	10	FALSE	NA	v	['H', 'W', 'M', 'P', 'C', 'G', 'A', 'J', 'R', 'B', 'E', 'Y', 'Z', 'X', 'U', 'S']	[986, 2448, 1224, 1456, 829, 944, 697, 1029, 1587, 760, 904, 2670, 2911, 4000, 2059, 1731]	14	Present	NA	NA	PRESENT	0.3198671340942383	55.02448892593384	57.03510499000549	58.31947708129883	58.66912603378296	61.15116906166077	4.116064071655273	[55.04307508468628, 55.159680128097534, 56.14422392845154, 56.31101202964783, 57.06171011924744, 57.17864108085632, 57.29528594017029, 57.412243127822876, 57.52896213531494, 57.645787954330444, 57.76243615150452, 57.87934994697571, 57.99603796005249, 58.112849950790405, 58.2297101020813, 58.34634613990784, 58.463212966918945, 58.580217123031616, 58.69678997993469, 58.813647985458374, 58.930503129959106, 59.15117001533508]	[55.04730095367437, 55.16396762034104, 56.14696762034104, 56.313667620341036, 57.063667620341036, 57.1803342870077, 57.29700095367437, 57.41366762034104, 57.530334287007705, 57.64700095367437, 57.76366762034104, 57.880334287007706, 57.99700095367437, 58.11366762034104, 58.23033428700771, 58.347000953674375, 58.46366762034104, 58.58033428700771, 58.697000953674376, 58.81366762034104, 58.93033428700771, 59.163667620341045]	2021_Jan_26_1323	59.95888668105728	1	1
10	11	FALSE	NV	v	['V', 'H', 'K', 'A', 'G', 'R', 'W', 'J', 'X', 'Z', 'P', 'B', 'E', 'U', 'C', 'T']	[2245, 986, 1122, 697, 944, 1587, 2448, 1029, 4000, 2911, 1456, 760, 904, 2059, 829, 1888]	9	Present	NA	NA	PRESENT	0.4281899929046631	61.14777112007141	63.15177297592163	63.85204100608826	64.20198392868042	67.2675371170044	4.115764141082764	[61.16635704040527, 61.283113956451416, 62.267308950424194, 62.43406009674072, 63.18487000465393, 63.301878929138184, 63.41855502128601, 63.53517293930054, 63.65204215049744, 63.76887893676758, 63.885607957839966, 64.00242304801941, 64.11926198005676, 64.23588705062866, 64.35283708572388, 64.46962404251099, 64.58648705482483, 64.70306897163391, 64.82007598876953, 64.93694305419922, 65.05365800857544, 65.2675371170044]	[61.163667620341045, 61.28033428700771, 62.26333428700771, 62.43003428700771, 63.18003428700771, 63.296700953674375, 63.41336762034104, 63.53003428700771, 63.646700953674376, 63.76336762034104, 63.88003428700771, 63.99670095367438, 64.11336762034104, 64.2300342870077, 64.34670095367436, 64.46336762034102, 64.58003428700768, 64.69670095367434, 64.813367620341, 64.93003428700766, 65.04670095367432, 65.28003428700765]	2021_Jan_26_1323	59.95888668105728	1	1
10	12	FALSE	VA	v	['G', 'V', 'H', 'Z', 'C', 'M', 'Y', 'J', 'P', 'A', 'surprise', 'T', 'K', 'X', 'N', 'U']	[944, 2245, 986, 2911, 829, 1224, 2670, 1029, 1456, 697, 'stimAuditory/all_stimAuditory/211.wav', 1888, 1122, 4000, 1335, 2059]	14	Present	NA	stimVisual/all_stimVisual/214.jpg	ABSENT	1.241546869277954	67.27064394950867	69.26821613311768	70.55164813995361	70.90166592597961	73.38390302658081	4.115686893463135	[67.28923201560974, 67.38930201530457, 68.37379097938538, 68.54059505462646, 69.3080461025238, 69.40802311897278, 69.52481603622437, 69.64170503616333, 69.75839900970459, 69.87518000602722, 69.99195098876953, 70.10871815681458, 70.22553896903992, 70.34230709075928, 70.4757730960846, 70.57588005065918, 70.69277095794678, 70.80954003334045, 70.92658400535583, 71.04311394691467, 71.16007900238037, 71.3839020729065]	[67.28003428700765, 67.39670095367431, 68.37970095367432, 68.54640095367432, 69.29640095367432, 69.41306762034098, 69.52973428700764, 69.6464009536743, 69.76306762034096, 69.87973428700762, 69.99640095367428, 70.11306762034094, 70.2297342870076, 70.34640095367426, 70.46306762034092, 70.57973428700758, 70.69640095367424, 70.8130676203409, 70.92973428700756, 71.04640095367422, 71.16306762034088, 71.39640095367422]	2021_Jan_26_1323	59.95888668105728	1	1
10	13	FALSE	NA	v	['C', 'A', 'M', 'T', 'Z', 'G', 'E', 'P', 'N', 'X', 'H', 'W', 'S', 'B', 'K', 'R']	[829, 697, 1224, 1888, 2911, 944, 904, 1456, 1335, 4000, 986, 2448, 1731, 760, 1122, 1587]	10	Present	NA	NA	ABSENT	0.6380441188812256	73.37722396850586	75.38467597961426	76.20131611824036	76.55138397216797	79.50027012825012	4.115594148635864	[73.3958101272583, 73.51262998580933, 74.49696207046509, 74.66357493400574, 75.41438913345337, 75.53132700920105, 75.64820194244385, 75.76496601104736, 75.88152503967285, 75.99847507476807, 76.11514711380005, 76.23183107376099, 76.34881806373596, 76.51561093330383, 76.58246994018555, 76.69913792610168, 76.81607699394226, 76.93272399902344, 77.04969692230225, 77.16626906394958, 77.28329610824585, 77.50026893615723]	[73.39640095367422, 73.51306762034088, 74.49606762034088, 74.66276762034089, 75.41276762034089, 75.52943428700755, 75.6461009536742, 75.76276762034087, 75.87943428700753, 75.99610095367419, 76.11276762034085, 76.2294342870075, 76.34610095367417, 76.46276762034083, 76.57943428700749, 76.69610095367415, 76.81276762034081, 76.92943428700747, 77.04610095367413, 77.16276762034079, 77.27943428700745, 77.51276762034078]	2021_Jan_26_1323	59.95888668105728	1	1
10	14	FALSE	NV	v	['Z', 'B', 'N', 'M', 'U', 'Y', 'R', 'J', 'T', 'H', 'C', 'X', 'E', 'V', 'K', 'G']	[2911, 760, 1335, 1224, 2059, 2670, 1587, 1029, 1888, 986, 829, 4000, 904, 2245, 1122, 944]	12	Present	NA	NA	PRESENT	0.2994239330291748	79.50024700164795	81.50098514556885	82.55100011825562	82.90115308761597	85.61663699150085	4.115651845932007	[79.51883506774902, 79.63562512397766, 80.61986303329468, 80.7867341041565, 81.53802013397217, 81.65435910224915, 81.7712881565094, 81.88811111450195, 82.00474715232849, 82.12158799171448, 82.23845601081848, 82.35497808456421, 82.47195601463318, 82.58883094787598, 82.70553612709045, 82.82219195365906, 82.93915796279907, 83.05602693557739, 83.17282915115356, 83.28944301605225, 83.38958096504211, 83.61663699150085]	[79.51276762034078, 79.62943428700744, 80.61243428700745, 80.77913428700745, 81.52913428700745, 81.64580095367411, 81.76246762034077, 81.87913428700743, 81.99580095367409, 82.11246762034075, 82.22913428700741, 82.34580095367407, 82.46246762034073, 82.57913428700739, 82.69580095367405, 82.81246762034071, 82.92913428700737, 83.04580095367403, 83.16246762034069, 83.27913428700735, 83.39580095367401, 83.62913428700735]	2021_Jan_26_1323	59.95888668105728	1	1
10	15	FALSE	NN	v	['G', 'U', 'C', 'N', 'V', 'M', 'Z', 'R', 'B', 'Y', 'W', 'J', 'H', 'E', 'S', 'P']	[944, 2059, 829, 1335, 2245, 1224, 2911, 1587, 760, 2670, 2448, 1029, 986, 904, 1731, 1456]	11	Absent	NA	NA	ABSENT	0.3439009189605713	85.60678696632385	87.61715602874756	88.5509021282196	88.9008309841156	91.73300313949584	4.115847110748291	[85.62537407875061, 85.74221801757812, 86.72650408744812, 86.89323306083679, 87.64397597312927, 87.76104307174683, 87.87765693664551, 87.9944200515747, 88.111074924469, 88.22816014289856, 88.34477210044861, 88.46172213554382, 88.57827615737915, 88.69507908821106, 88.81195998191833, 88.92888593673706, 89.04558205604553, 89.16221714019775, 89.27919697761536, 89.39578700065613, 89.51289010047913, 89.73300313949585]	[85.62913428700735, 85.745800953674, 86.72880095367401, 86.89550095367402, 87.64550095367402, 87.76216762034068, 87.87883428700734, 87.995500953674, 88.11216762034066, 88.22883428700732, 88.34550095367398, 88.46216762034064, 88.5788342870073, 88.69550095367396, 88.81216762034062, 88.92883428700728, 89.04550095367394, 89.1621676203406, 89.27883428700726, 89.39550095367392, 89.51216762034058, 89.74550095367391]	2021_Jan_26_1323	59.95888668105728	1	1
10	16	FALSE	NN	v	['H', 'E', 'S', 'G', 'C', 'J', 'Y', 'Z', 'U', 'R', 'K', 'N', 'M', 'T', 'A', 'P']	[986, 904, 1731, 944, 829, 1029, 2670, 2911, 2059, 1587, 1122, 1335, 1224, 1888, 697, 1456]	14	Absent	NA	NA	ABSENT	0.29261302947998047	91.73010897636414	93.73363709449768	95.01713013648988	95.36705994606018	97.84937000274658	4.115732908248901	[91.74869704246521, 91.86512112617493, 92.84967303276062, 93.01628494262695, 93.7672700881958, 93.88387894630432, 94.00081706047058, 94.1176209449768, 94.23434495925903, 94.35100197792053, 94.46795892715454, 94.58475494384766, 94.7015221118927, 94.81840014457703, 94.93523406982422, 95.05181193351746, 95.16884994506836, 95.28547215461731, 95.40232801437378, 95.51900315284729, 95.6359851360321, 95.84936904907227]	[91.74550095367391, 91.86216762034057, 92.84516762034058, 93.01186762034058, 93.76186762034058, 93.87853428700724, 93.9952009536739, 94.11186762034056, 94.22853428700722, 94.34520095367388, 94.46186762034054, 94.5785342870072, 94.69520095367386, 94.81186762034052, 94.92853428700718, 95.04520095367384, 95.1618676203405, 95.27853428700716, 95.39520095367382, 95.51186762034048, 95.62853428700714, 95.86186762034048]	2021_Jan_26_1323	59.95888668105728	1	1
10	17	FALSE	NA	v	['N', 'R', 'G', 'T', 'J', 'U', 'B', 'W', 'H', 'P', 'C', 'S', 'K', 'X', 'A', 'V']	[1335, 1587, 944, 1888, 1029, 2059, 760, 2448, 986, 1456, 829, 1731, 1122, 4000, 697, 2245]	14	Present	NA	NA	PRESENT	0.28987979888916016	97.83622908592224	99.84990096092224	101.13425612449646	101.48360109329224	103.9657371044159	4.115836143493652	[97.8548150062561, 97.97152996063232, 98.95618796348572, 99.12278509140015, 99.89035296440125, 99.99037504196167, 100.10715794563293, 100.22381901741028, 100.3407289981842, 100.45744800567627, 100.57429504394531, 100.69105195999146, 100.80787205696106, 100.92501711845398, 101.04156994819641, 101.15818309783936, 101.27517414093018, 101.39198112487793, 101.5087959766388, 101.62562394142151, 101.74244713783264, 101.96573615074158]	[97.86186762034048, 97.97853428700714, 98.96153428700714, 99.12823428700715, 99.87823428700715, 99.9949009536738, 100.11156762034047, 100.22823428700713, 100.34490095367379, 100.46156762034045, 100.5782342870071, 100.69490095367377, 100.81156762034043, 100.92823428700709, 101.04490095367375, 101.1615676203404, 101.27823428700707, 101.39490095367373, 101.51156762034039, 101.62823428700705, 101.7449009536737, 101.97823428700704]	2021_Jan_26_1323	59.95888668105728	1	1
10	18	FALSE	NV	v	['R', 'J', 'P', 'H', 'M', 'T', 'G', 'Z', 'W', 'N', 'C', 'X', 'B', 'Y', 'U', 'V']	[1587, 1029, 1456, 986, 1224, 1888, 944, 2911, 2448, 1335, 829, 4000, 760, 2670, 2059, 2245]	12	Present	NA	NA	PRESENT	0.2862861156463623	103.95934104919434	105.96643900871275	107.0165331363678	107.36703491210938	110.08210301399232	4.115664005279541	[103.97792792320251, 104.09481906890869, 105.07919907569885, 105.24597811698914, 105.99672794342041, 106.11396503448486, 106.23040103912354, 106.34720802307129, 106.46399092674255, 106.58067393302917, 106.69753503799438, 106.81439709663391, 106.93125700950623, 107.04798698425293, 107.16477394104004, 107.28136801719666, 107.39833903312683, 107.51516699790955, 107.63181614875793, 107.74874496459961, 107.8654580116272, 108.082102060318]	[103.97823428700704, 104.0949009536737, 105.0779009536737, 105.24460095367371, 105.99460095367371, 106.11126762034037, 106.22793428700703, 106.34460095367369, 106.46126762034035, 106.57793428700701, 106.69460095367367, 106.81126762034033, 106.92793428700699, 107.04460095367365, 107.16126762034031, 107.27793428700697, 107.39460095367363, 107.51126762034029, 107.62793428700695, 107.74460095367361, 107.86126762034027, 108.0946009536736]	2021_Jan_26_1323	59.95888668105728	1	1
10	19	FALSE	NN	v	['W', 'C', 'M', 'R', 'G', 'Y', 'S', 'A', 'Z', 'U', 'K', 'B', 'E', 'N', 'J', 'H']	[2448, 829, 1224, 1587, 944, 2670, 1731, 697, 2911, 2059, 1122, 760, 904, 1335, 1029, 986]	8	Absent	NA	NA	ABSENT	0.2275981903076172	110.0825741291046	112.08270311355592	112.6662769317627	113.01641392707825	116.19846892356873	4.115765810012817	[110.1011610031128, 110.21789503097534, 111.20265102386475, 111.36932396888733, 112.11988115310669, 112.23672699928284, 112.35356307029724, 112.4703381061554, 112.58720803260803, 112.70377993583679, 112.8207859992981, 112.93744611740112, 113.05429601669312, 113.17092800140381, 113.28765201568604, 113.40487813949585, 113.52137804031372, 113.63830995559692, 113.75506806373596, 113.87189102172852, 113.9719409942627, 114.19847011566162]	[110.0946009536736, 110.21126762034027, 111.19426762034027, 111.36096762034028, 112.11096762034028, 112.22763428700694, 112.3443009536736, 112.46096762034026, 112.57763428700692, 112.69430095367358, 112.81096762034024, 112.9276342870069, 113.04430095367356, 113.16096762034022, 113.27763428700688, 113.39430095367354, 113.5109676203402, 113.62763428700686, 113.74430095367352, 113.86096762034018, 113.97763428700684, 114.21096762034017]	2021_Jan_26_1323	59.95888668105728	1	1
10	20	FALSE	NV	v	['V', 'N', 'K', 'E', 'U', 'Z', 'R', 'T', 'C', 'A', 'X', 'J', 'G', 'P', 'H', 'M']	[2245, 1335, 1122, 904, 2059, 2911, 1587, 1888, 829, 697, 4000, 1029, 944, 1456, 986, 1224]	11	Present	NA	NA	ABSENT	0.48830389976501465	116.18897891044617	118.19907999038696	119.1327691078186	119.48255610466003	122.31483697891235	4.115756988525391	[116.20756697654724, 116.32454204559326, 117.30881309509277, 117.47543811798096, 118.22630000114441, 118.3431510925293, 118.45986294746399, 118.57677507400513, 118.69357204437256, 118.8103461265564, 118.92706203460693, 119.04397892951965, 119.16067814826965, 119.27753114700317, 119.39439010620117, 119.51098394393921, 119.62789106369019, 119.74461913108826, 119.86151695251465, 119.97822403907776, 120.0951919555664, 120.31483697891235]	[116.21096762034017, 116.32763428700683, 117.31063428700683, 117.47733428700684, 118.22733428700684, 118.3440009536735, 118.46066762034016, 118.57733428700682, 118.69400095367348, 118.81066762034014, 118.9273342870068, 119.04400095367346, 119.16066762034012, 119.27733428700678, 119.39400095367344, 119.5106676203401, 119.62733428700676, 119.74400095367342, 119.86066762034008, 119.97733428700674, 120.0940009536734, 120.32733428700674]	2021_Jan_26_1323	59.95888668105728	1	1
10	21	FALSE	NV	v	['A', 'H', 'C', 'G', 'Y', 'M', 'E', 'P', 'J', 'Z', 'S', 'U', 'X', 'K', 'R', 'N']	[697, 986, 829, 944, 2670, 1224, 904, 1456, 1029, 2911, 1731, 2059, 4000, 1122, 1587, 1335]	13	Present	NA	NA	PRESENT	0.2687571048736572	122.31255197525024	124.31542110443117	125.48232507705688	125.8322319984436	128.43120312690735	4.115782022476196	[122.33113813400269, 122.44757103919983, 123.43191409111023, 123.59880995750427, 124.34957313537598, 124.46635603904724, 124.58316898345947, 124.69991707801819, 124.816810131073, 124.93340992927551, 125.0502700805664, 125.16716003417969, 125.28389096260071, 125.40070796012878, 125.51735496520996, 125.63424015045166, 125.75100111961365, 125.86769104003906, 125.98446607589722, 126.10149908065796, 126.21807098388672, 126.43120312690735]	[122.32733428700674, 122.4440009536734, 123.4270009536734, 123.5937009536734, 124.3437009536734, 124.46036762034007, 124.57703428700673, 124.69370095367339, 124.81036762034005, 124.9270342870067, 125.04370095367337, 125.16036762034003, 125.27703428700669, 125.39370095367335, 125.51036762034, 125.62703428700667, 125.74370095367333, 125.86036762033999, 125.97703428700665, 126.0937009536733, 126.21036762033997, 126.4437009536733]	2021_Jan_26_1323	59.95888668105728	1	1
10	22	FALSE	NN	v	['H', 'B', 'V', 'Z', 'W', 'R', 'S', 'J', 'M', 'N', 'Y', 'G', 'K', 'U', 'E', 'P']	[986, 760, 2245, 2911, 2448, 1587, 1731, 1029, 1224, 1335, 2670, 944, 1122, 2059, 904, 1456]	9	Absent	NA	NA	ABSENT	0.274216890335083	128.41850399971008	130.4317319393158	131.1323459148407	131.48203897476196	134.54756999015808	4.115838050842285	[128.43709111213684, 128.55386114120483, 129.53844499588013, 129.7050211429596, 130.4727520942688, 130.57263708114624, 130.68935894966125, 130.80618405342102, 130.92291903495789, 131.0397810935974, 131.15663313865662, 131.27335405349731, 131.3903181552887, 131.50713896751404, 131.62375903129578, 131.74071311950684, 131.85749006271362, 131.97442507743835, 132.09096503257751, 132.2077341079712, 132.3246841430664, 132.54756903648376]	[128.4437009536733, 128.56036762033997, 129.54336762033998, 129.71006762033997, 130.46006762033997, 130.57673428700664, 130.69340095367332, 130.81006762034, 130.92673428700667, 131.04340095367334, 131.16006762034002, 131.2767342870067, 131.39340095367336, 131.51006762034004, 131.6267342870067, 131.7434009536734, 131.86006762034006, 131.97673428700674, 132.0934009536734, 132.21006762034008, 132.32673428700676, 132.56006762034008]	2021_Jan_26_1323	59.95888668105728	1	1
10	23	FALSE	NN	v	['R', 'B', 'N', 'Z', 'J', 'C', 'T', 'S', 'E', 'W', 'M', 'G', 'U', 'H', 'V', 'P']	[1587, 760, 1335, 2911, 1029, 829, 1888, 1731, 904, 2448, 1224, 944, 2059, 986, 2245, 1456]	12	Absent	NA	NA	ABSENT	0.27870607376098633	134.54186296463013	136.54801392555237	137.59874510765076	137.9490089416504	140.6639370918274	4.115923166275024	[134.56044912338257, 134.6771309375763, 135.66163516044617, 135.82826495170593, 136.57909297943115, 136.69578504562378, 136.81274104118347, 136.92937207221985, 137.04636311531067, 137.1631109714508, 137.27993607521057, 137.39664697647095, 137.51339292526245, 137.63012313842773, 137.74686813354492, 137.8639430999756, 137.98071599006653, 138.09760808944702, 138.21433997154236, 138.3310101032257, 138.4476490020752, 138.6639380455017]	[134.56006762034008, 134.67673428700675, 135.65973428700676, 135.82643428700675, 136.57643428700675, 136.69310095367342, 136.8097676203401, 136.92643428700677, 137.04310095367345, 137.15976762034012, 137.2764342870068, 137.39310095367347, 137.50976762034014, 137.62643428700682, 137.7431009536735, 137.85976762034016, 137.97643428700684, 138.0931009536735, 138.2097676203402, 138.32643428700686, 138.44310095367354, 138.67643428700686]	2021_Jan_26_1323	59.95888668105728	1	1
10	24	FALSE	AV	v	['P', 'W', 'K', 'N', 'G', 'J', 'E', 'surprise', 'A', 'V', 'X', 'T', 'B', 'U', 'Z', 'S']	[1456, 2448, 1122, 1335, 944, 1029, 904, 'stimAuditory/all_stimAuditory/214.wav', 697, 2245, 4000, 1888, 760, 2059, 2911, 1731]	11	Present	stimAuditory/all_stimAuditory/216.wav	stimVisual/all_stimVisual/216.jpg	PRESENT	0.24395203590393064	140.6647961139679	142.66442012786865	143.59828996658325	143.94827103614807	146.7803020477295	4.11588191986084	[140.68338203430176, 140.80006003379822, 141.78451204299927, 141.95182514190674, 142.70231103897095, 142.8189971446991, 142.93567395210266, 143.05253410339355, 143.1693079471588, 143.28628396987915, 143.4031629562378, 143.51985597610474, 143.6365180015564, 143.75344395637512, 143.8700771331787, 143.98684310913086, 144.10380601882935, 144.22061204910278, 144.33719515800476, 144.45407795906067, 144.55428504943848, 144.7803020477295]	[140.67643428700686, 140.79310095367353, 141.77610095367353, 141.94280095367353, 142.69280095367353, 142.8094676203402, 142.92613428700687, 143.04280095367355, 143.15946762034022, 143.2761342870069, 143.39280095367357, 143.50946762034025, 143.62613428700692, 143.7428009536736, 143.85946762034027, 143.97613428700694, 144.09280095367362, 144.2094676203403, 144.32613428700697, 144.44280095367364, 144.5594676203403, 144.79280095367363]	2021_Jan_26_1323	59.95888668105728	1	1
10	25	FALSE	NA	v	['C', 'M', 'G', 'E', 'W', 'J', 'S', 'V', 'A', 'P', 'X', 'R', 'Y', 'H', 'U', 'Z']	[829, 1224, 944, 904, 2448, 1029, 1731, 2245, 697, 1456, 4000, 1587, 2670, 986, 2059, 2911]	11	Present	NA	NA	PRESENT	1.5204579830169678	146.77125000953674	148.78109002113342	149.71515107154846	150.06445503234863	152.8966691493988	4.115579128265381	[146.7898359298706, 146.9066779613495, 147.8911600112915, 148.0576491355896, 148.80864810943604, 148.9252679347992, 149.0423231124878, 149.15921592712402, 149.27589511871338, 149.39265394210815, 149.50954699516296, 149.62613606452942, 149.74277210235596, 149.85975694656372, 149.97664093971252, 150.09328508377075, 150.21020913124084, 150.3269760608673, 150.4438660144806, 150.56062602996826, 150.67741513252258, 150.89667010307312]	[146.79280095367363, 146.9094676203403, 147.8924676203403, 148.0591676203403, 148.8091676203403, 148.92583428700698, 149.04250095367365, 149.15916762034033, 149.275834287007, 149.39250095367368, 149.50916762034035, 149.62583428700702, 149.7425009536737, 149.85916762034037, 149.97583428700705, 150.09250095367372, 150.2091676203404, 150.32583428700707, 150.44250095367374, 150.55916762034042, 150.6758342870071, 150.9091676203404]	2021_Jan_26_1323	59.95888668105728	1	1
10	26	FALSE	NA	v	['U', 'M', 'N', 'V', 'G', 'R', 'C', 'Z', 'T', 'X', 'H', 'E', 'W', 'K', 'B', 'J']	[2059, 1224, 1335, 2245, 944, 1587, 829, 2911, 1888, 4000, 986, 904, 2448, 1122, 760, 1029]	10	Present	NA	NA	PRESENT	0.685136079788208	152.89449095726013	154.89737010002136	155.71419310569763	156.06584095954895	159.01303696632385	4.11566686630249	[152.9130780696869, 153.02987098693848, 154.01395893096924, 154.18115305900574, 154.9318389892578, 155.0485360622406, 155.16553592681885, 155.2820451259613, 155.39895701408386, 155.51575803756714, 155.6326389312744, 155.749361038208, 155.8662669658661, 155.982990026474, 156.09965014457703, 156.21665906906128, 156.3333170413971, 156.45023703575134, 156.56684494018555, 156.68374109268188, 156.8005199432373, 157.01303601264954]	[152.9091676203404, 153.0258342870071, 154.0088342870071, 154.17553428700708, 154.92553428700708, 155.04220095367376, 155.15886762034043, 155.2755342870071, 155.39220095367378, 155.50886762034045, 155.62553428700713, 155.7422009536738, 155.85886762034048, 155.97553428700715, 156.09220095367382, 156.2088676203405, 156.32553428700717, 156.44220095367385, 156.55886762034052, 156.6755342870072, 156.79220095367387, 157.0255342870072]	2021_Jan_26_1323	59.95888668105728	1	1
10	27	FALSE	NA	v	['J', 'T', 'G', 'M', 'N', 'K', 'U', 'R', 'V', 'A', 'W', 'Y', 'X', 'C', 'H', 'P']	[1029, 1888, 944, 1224, 1335, 1122, 2059, 1587, 2245, 697, 2448, 2670, 4000, 829, 986, 1456]	13	Present	NA	NA	PRESENT	0.27428221702575684	159.00071907043457	161.01375603675842	162.1807460784912	162.53065991401672	165.12940311431885	4.115647077560425	[159.01930594444275, 159.13612413406372, 160.1206569671631, 160.2873980998993, 161.05483198165894, 161.15511202812195, 161.27175903320312, 161.38854908943176, 161.50537300109863, 161.62210297584534, 161.73901915550232, 161.85581493377686, 161.9725170135498, 162.08935594558716, 162.2063319683075, 162.32303500175476, 162.4398889541626, 162.556489944458, 162.67341113090515, 162.79006814956665, 162.90692615509033, 163.12940406799316]	[159.0255342870072, 159.14220095367386, 160.12520095367387, 160.29190095367386, 161.04190095367386, 161.15856762034053, 161.2752342870072, 161.39190095367388, 161.50856762034056, 161.62523428700723, 161.7419009536739, 161.85856762034058, 161.97523428700725, 162.09190095367393, 162.2085676203406, 162.32523428700728, 162.44190095367395, 162.55856762034063, 162.6752342870073, 162.79190095367397, 162.90856762034065, 163.14190095367397]	2021_Jan_26_1323	59.95888668105728	1	1
10	28	FALSE	NA	v	['K', 'P', 'C', 'M', 'G', 'S', 'N', 'R', 'W', 'X', 'A', 'T', 'V', 'E', 'H', 'U']	[1122, 1456, 829, 1224, 944, 1731, 1335, 1587, 2448, 4000, 697, 1888, 2245, 904, 986, 2059]	10	Present	NA	NA	PRESENT	0.15886592864990234	165.12393403053284	167.12991094589233	167.94709396362305	168.29699110984802	171.24576902389526	4.11585807800293	[165.1425211429596, 165.2595090866089, 166.2439501285553, 166.41073894500732, 167.16139101982117, 167.27802395820618, 167.39504599571228, 167.51168298721313, 167.62857913970947, 167.74524903297424, 167.86202812194824, 167.9789400100708, 168.0958161354065, 168.21263694763184, 168.32945799827576, 168.4460151195526, 168.56300902366638, 168.67974996566772, 168.79665207862854, 168.91334414482117, 169.02993893623352, 169.24576997756958]	[165.14190095367397, 165.25856762034064, 166.24156762034065, 166.40826762034064, 167.15826762034064, 167.2749342870073, 167.391600953674, 167.50826762034066, 167.62493428700733, 167.741600953674, 167.85826762034068, 167.97493428700736, 168.09160095367403, 168.2082676203407, 168.32493428700738, 168.44160095367405, 168.55826762034073, 168.6749342870074, 168.79160095367408, 168.90826762034075, 169.02493428700743, 169.25826762034075]	2021_Jan_26_1323	59.95888668105728	1	1
10	29	FALSE	NA	v	['U', 'K', 'N', 'Y', 'P', 'R', 'S', 'J', 'T', 'G', 'C', 'W', 'H', 'X', 'A', 'B']	[2059, 1122, 1335, 2670, 1456, 1587, 1731, 1029, 1888, 944, 829, 2448, 986, 4000, 697, 760]	14	Present	NA	NA	PRESENT	0.29224085807800293	171.2472620010376	173.2464690208435	174.53015303611755	174.8799750804901	177.3621370792389	4.115668058395386	[171.2658610343933, 171.3825719356537, 172.35039710998535, 172.5169279575348, 173.28454113006592, 173.40149402618408, 173.51828002929688, 173.63503313064575, 173.7515571117401, 173.86851501464844, 173.98539304733276, 174.10214710235596, 174.21882104873657, 174.3357970714569, 174.4525499343872, 174.56928610801697, 174.6859200000763, 174.80292010307312, 174.90272998809814, 175.01968908309937, 175.13657093048096, 175.3621370792389]	[171.25826762034075, 171.37493428700742, 172.35793428700742, 172.52463428700742, 173.27463428700742, 173.3913009536741, 173.50796762034076, 173.62463428700744, 173.7413009536741, 173.8579676203408, 173.97463428700746, 174.09130095367414, 174.2079676203408, 174.32463428700748, 174.44130095367416, 174.55796762034083, 174.6746342870075, 174.79130095367418, 174.90796762034086, 175.02463428700753, 175.1413009536742, 175.37463428700752]	2021_Jan_26_1323	59.95888668105728	1	1
10	30	FALSE	NV	v	['S', 'T', 'B', 'V', 'G', 'W', 'R', 'E', 'C', 'K', 'A', 'J', 'X', 'N', 'U', 'Y']	[1731, 1888, 760, 2245, 944, 2448, 1587, 904, 829, 1122, 697, 1029, 4000, 1335, 2059, 2670]	13	Present	NA	NA	PRESENT	0.3208181858062744	177.3533160686493	179.36276412010193	180.52956295013428	180.87983512878415	183.4785029888153	4.115738868713379	[177.37190294265747, 177.48910999298096, 178.47324514389038, 178.64028906822205, 179.39083099365234, 179.50779104232788, 179.6246190071106, 179.741534948349, 179.85831499099731, 179.97490000724792, 180.09174704551697, 180.20866513252258, 180.32535815238953, 180.4420289993286, 180.55893898010254, 180.6757891178131, 180.7924349308014, 180.90933895111084, 181.02624106407166, 181.14287400245667, 181.2596321105957, 181.478502035141]	[177.37463428700752, 177.4913009536742, 178.4743009536742, 178.6410009536742, 179.3910009536742, 179.50766762034087, 179.62433428700754, 179.74100095367422, 179.8576676203409, 179.97433428700757, 180.09100095367424, 180.2076676203409, 180.3243342870076, 180.44100095367426, 180.55766762034094, 180.6743342870076, 180.79100095367428, 180.90766762034096, 181.02433428700763, 181.1410009536743, 181.25766762034098, 181.4910009536743]	2021_Jan_26_1323	59.95888668105728	1	1
10	31	FALSE	NV	v	['Y', 'K', 'M', 'J', 'R', 'T', 'H', 'U', 'E', 'N', 'C', 'X', 'B', 'P', 'G', 'Z']	[2670, 1122, 1224, 1029, 1587, 1888, 986, 2059, 904, 1335, 829, 4000, 760, 1456, 944, 2911]	12	Present	NA	NA	PRESENT	0.1982738971710205	183.4770469665527	185.4790940284729	186.5293891429901	186.8792309761047	189.59487009048465	4.115776062011719	[183.49563312530518, 183.61219596862793, 184.59643411636353, 184.76352715492249, 185.51399898529053, 185.63092708587646, 185.7478370666504, 185.86439514160156, 185.9813220500946, 186.0982849597931, 186.21479201316833, 186.3317849636078, 186.4486060142517, 186.56528306007385, 186.68209195137024, 186.7988519668579, 186.91560101509094, 187.03253412246704, 187.14935398101807, 187.26615500450134, 187.38275408744812, 187.5948691368103]	[183.4910009536743, 183.60766762034098, 184.59066762034098, 184.75736762034097, 185.50736762034097, 185.62403428700765, 185.74070095367432, 185.857367620341, 185.97403428700767, 186.09070095367434, 186.20736762034102, 186.3240342870077, 186.44070095367437, 186.55736762034104, 186.67403428700771, 186.7907009536744, 186.90736762034106, 187.02403428700774, 187.1407009536744, 187.25736762034109, 187.37403428700776, 187.60736762034108]	2021_Jan_26_1323	59.95888668105728	1	1
10	32	FALSE	NA	v	['C', 'B', 'E', 'P', 'K', 'H', 'G', 'R', 'Z', 'X', 'S', 'Y', 'V', 'J', 'M', 'A']	[829, 760, 904, 1456, 1122, 986, 944, 1587, 2911, 4000, 1731, 2670, 2245, 1029, 1224, 697]	10	Present	NA	NA	PRESENT	0.28237390518188477	189.58306503295896	191.5955641269684	192.412456035614	192.7624490261078	195.71123695373535	4.115672826766968	[189.60165095329285, 189.71861815452576, 190.70310306549072, 190.8697271347046, 191.6372549533844, 191.7374460697174, 191.85421705245972, 191.97102904319763, 192.08764815330505, 192.20442700386047, 192.32129907608032, 192.43795704841614, 192.55495500564575, 192.6718111038208, 192.7885720729828, 192.90520215034485, 193.02244901657104, 193.13880395889282, 193.25582814216614, 193.37241101264954, 193.48919415473938, 193.71123600006104]	[189.60736762034108, 189.72403428700775, 190.70703428700776, 190.87373428700775, 191.62373428700775, 191.74040095367442, 191.8570676203411, 191.97373428700777, 192.09040095367445, 192.20706762034112, 192.3237342870078, 192.44040095367447, 192.55706762034114, 192.67373428700782, 192.7904009536745, 192.90706762034117, 193.02373428700784, 193.14040095367451, 193.2570676203412, 193.37373428700786, 193.49040095367454, 193.72373428700786]	2021_Jan_26_1323	59.95888668105728	1	1
10	33	FALSE	AN	v	['M', 'T', 'G', 'K', 'surprise', 'R', 'W', 'P', 'Z', 'B', 'A', 'V', 'E', 'N', 'S', 'J']	[1224, 1888, 944, 1122, 'stimAuditory/all_stimAuditory/113.wav', 1587, 2448, 1456, 2911, 760, 697, 2245, 904, 1335, 1731, 1029]	8	Absent	stimAuditory/all_stimAuditory/211.wav	stimVisual/all_stimVisual/101.jpg	ABSENT	0.2711918354034424	195.7064070701599	197.7120780944824	198.29556703567505	198.64553999900815	201.82760214805603	4.115524053573608	[195.72499299049377, 195.84174299240112, 196.82606315612793, 196.99303793907166, 197.7436740398407, 197.8604130744934, 197.97731113433838, 198.09410095214844, 198.21078515052795, 198.32759809494019, 198.44439601898193, 198.5612759590149, 198.67802906036377, 198.79491114616394, 198.9117569923401, 199.02842092514038, 199.14517903327942, 199.26218509674072, 199.37874007225037, 199.49560809135437, 199.61231803894043, 199.82760310173035]	[195.72373428700786, 195.84040095367453, 196.82340095367454, 196.99010095367453, 197.74010095367453, 197.8567676203412, 197.97343428700788, 198.09010095367455, 198.20676762034122, 198.3234342870079, 198.44010095367457, 198.55676762034125, 198.67343428700792, 198.7901009536746, 198.90676762034127, 199.02343428700794, 199.14010095367462, 199.2567676203413, 199.37343428700797, 199.49010095367464, 199.60676762034132, 199.84010095367464]	2021_Jan_26_1323	59.95888668105728	1	1
10	34	FALSE	NA	v	['V', 'C', 'M', 'B', 'G', 'Z', 'P', 'W', 'E', 'U', 'R', 'X', 'Y', 'K', 'S', 'T']	[2245, 829, 1224, 760, 944, 2911, 1456, 2448, 904, 2059, 1587, 4000, 2670, 1122, 1731, 1888]	12	Present	NA	NA	PRESENT	0.24460601806640625	201.8295350074768	203.82817792892456	204.87869310379028	205.2283730506897	207.94396996498108	4.1157920360565186	[201.8481330871582, 201.96492910385132, 202.93272495269775, 203.0993070602417, 203.866868019104, 203.98370504379272, 204.10034894943237, 204.21728992462158, 204.333909034729, 204.45087099075317, 204.56755805015564, 204.6844310760498, 204.8010959625244, 204.91803812980652, 205.0180060863495, 205.13479900360107, 205.2516269683838, 205.3684070110321, 205.48514795303345, 205.60182404518127, 205.71885108947754, 205.94396996498108]	[201.84010095367464, 201.9567676203413, 202.9397676203413, 203.1064676203413, 203.8564676203413, 203.97313428700798, 204.08980095367465, 204.20646762034133, 204.323134287008, 204.43980095367468, 204.55646762034135, 204.67313428700803, 204.7898009536747, 204.90646762034137, 205.02313428700805, 205.13980095367472, 205.2564676203414, 205.37313428700807, 205.48980095367475, 205.60646762034142, 205.7231342870081, 205.9564676203414]	2021_Jan_26_1323	59.95888668105728	1	1
10	35	FALSE	NN	v	['N', 'C', 'V', 'M', 'S', 'B', 'T', 'P', 'Z', 'E', 'G', 'H', 'A', 'K', 'R', 'Y']	[1335, 829, 2245, 1224, 1731, 760, 1888, 1456, 2911, 904, 944, 986, 697, 1122, 1587, 2670]	10	Absent	NA	NA	ABSENT	0.33707594871520996	207.9359340667725	209.94458293914795	210.7615671157837	211.11176204681396	214.0603370666504	4.115754127502441	[207.95452213287354, 208.07135605812073, 209.05574107170105, 209.22266697883606, 209.97312307357788, 210.0902030467987, 210.20692992210388, 210.32366609573364, 210.44057297706604, 210.5571789741516, 210.6740641593933, 210.7908000946045, 210.90773606300354, 211.02436208724976, 211.14111709594727, 211.25797200202942, 211.37485694885254, 211.4916639328003, 211.60842895507812, 211.72515392303467, 211.8417890071869, 212.06033611297607]	[207.9564676203414, 208.0731342870081, 209.0561342870081, 209.22283428700808, 209.97283428700808, 210.08950095367476, 210.20616762034143, 210.3228342870081, 210.43950095367478, 210.55616762034145, 210.67283428700813, 210.7895009536748, 210.90616762034148, 211.02283428700815, 211.13950095367483, 211.2561676203415, 211.37283428700817, 211.48950095367485, 211.60616762034152, 211.7228342870082, 211.83950095367487, 212.0728342870082]	2021_Jan_26_1323	59.95888668105728	1	1
10	36	FALSE	VA	v	['N', 'V', 'Z', 'W', 'U', 'S', 'K', 'B', 'E', 'J', 'surprise', 'P', 'H', 'X', 'A', 'R']	[1335, 2245, 2911, 2448, 2059, 1731, 1122, 760, 904, 1029, 'stimAuditory/all_stimAuditory/220.wav', 1456, 986, 4000, 697, 1587]	14	Present	NA	stimVisual/all_stimVisual/206.jpg	PRESENT	0.2545020580291748	214.05941200256348	216.0608570575714	217.34478211402893	217.6950569152832	220.1767020225525	4.115844964981079	[214.07799911499023, 214.19448900222778, 215.17899107933044, 215.34576606750488, 216.09642505645752, 216.21311807632446, 216.33007097244263, 216.4467990398407, 216.56348609924316, 216.6804609298706, 216.79708003997803, 216.9138650894165, 217.03085708618164, 217.14771914482117, 217.2642900943756, 217.38131713867188, 217.49808311462402, 217.6148190498352, 217.73152112960815, 217.8483271598816, 217.94829607009888, 218.1767029762268]	[214.0728342870082, 214.18950095367487, 215.17250095367487, 215.33920095367486, 216.08920095367486, 216.20586762034154, 216.3225342870082, 216.43920095367488, 216.55586762034156, 216.67253428700823, 216.7892009536749, 216.90586762034158, 217.02253428700826, 217.13920095367493, 217.2558676203416, 217.37253428700828, 217.48920095367495, 217.60586762034163, 217.7225342870083, 217.83920095367498, 217.95586762034165, 218.18920095367497]	2021_Jan_26_1323	59.95888668105728	1	1
10	37	FALSE	NA	v	['P', 'M', 'E', 'U', 'A', 'B', 'C', 'Y', 'K', 'S', 'V', 'H', 'J', 'X', 'G', 'W']	[1456, 1224, 904, 2059, 697, 760, 829, 2670, 1122, 1731, 2245, 986, 1029, 4000, 944, 2448]	14	Present	NA	NA	PRESENT	0.24308300018310547	220.16542792320251	222.17729306221008	223.46092796325684	223.81107807159424	226.29307007789612	4.115777015686035	[220.18401503562927, 220.3009581565857, 221.28540205955505, 221.45221614837646, 222.21942806243896, 222.3198380470276, 222.4364459514618, 222.55314707756042, 222.6701180934906, 222.78676104545593, 222.90372610092163, 223.020357131958, 223.13716411590576, 223.25398111343384, 223.3709099292755, 223.48762607574463, 223.6045069694519, 223.72125792503357, 223.8379499912262, 223.9551260471344, 224.07155203819275, 224.2930691242218]	[220.18920095367497, 220.30586762034164, 221.28886762034165, 221.45556762034164, 222.20556762034164, 222.3222342870083, 222.438900953675, 222.55556762034166, 222.67223428700834, 222.788900953675, 222.90556762034169, 223.02223428700836, 223.13890095367503, 223.2555676203417, 223.37223428700838, 223.48890095367506, 223.60556762034173, 223.7222342870084, 223.83890095367508, 223.95556762034175, 224.07223428700843, 224.30556762034175]	2021_Jan_26_1323	59.95888668105728	1	1
10	38	FALSE	NV	v	['J', 'G', 'B', 'V', 'R', 'E', 'S', 'A', 'T', 'C', 'X', 'U', 'H', 'Y', 'K', 'P']	[1029, 944, 760, 2245, 1587, 904, 1731, 697, 1888, 829, 4000, 2059, 986, 2670, 1122, 1456]	11	Present	NA	NA	PRESENT	0.27141714096069336	226.28869795799255	228.29342603683472	229.22722506523132	229.57747101783752	232.40943694114685	4.116010904312134	[226.307284116745, 226.42393398284912, 227.40835309028625, 227.57529997825623, 228.32600808143616, 228.4428391456604, 228.5597231388092, 228.67649793624878, 228.79326796531677, 228.91006112098694, 229.0269260406494, 229.1436779499054, 229.26029515266418, 229.37727212905884, 229.4938681125641, 229.61079502105713, 229.72759914398193, 229.8443570137024, 229.96112513542175, 230.0779321193695, 230.1945960521698, 230.40943694114685]	[226.30556762034175, 226.42223428700842, 227.40523428700843, 227.57193428700842, 228.32193428700842, 228.4386009536751, 228.55526762034177, 228.67193428700844, 228.78860095367511, 228.9052676203418, 229.02193428700846, 229.13860095367514, 229.2552676203418, 229.3719342870085, 229.48860095367516, 229.60526762034183, 229.7219342870085, 229.83860095367518, 229.95526762034186, 230.07193428700853, 230.1886009536752, 230.42193428700853]	2021_Jan_26_1323	59.95888668105728	1	1
10	39	FALSE	NN	v	['S', 'T', 'W', 'J', 'Y', 'V', 'A', 'G', 'U', 'K', 'E', 'C', 'H', 'N', 'B', 'P']	[1731, 1888, 2448, 1029, 2670, 2245, 697, 944, 2059, 1122, 904, 829, 986, 1335, 760, 1456]	14	Absent	NA	NA	ABSENT	0.29285502433776855	232.41183710098267	234.41018891334537	235.6941180229187	236.04366207122803	238.52580404281616	4.115615129470825	[232.43043398857117, 232.54706406593323, 233.51473712921143, 233.68165802955627, 234.44950699806213, 234.5660319328308, 234.68275594711304, 234.79962992668152, 234.9164731502533, 235.0329909324646, 235.15002703666687, 235.24993109703064, 235.36675095558167, 235.483549118042, 235.60035109519958, 235.7338399887085, 235.83384609222412, 235.9506390094757, 236.0673429965973, 236.18414497375488, 236.3011119365692, 236.52580404281616]	[232.42193428700853, 232.5386009536752, 233.5216009536752, 233.6883009536752, 234.4383009536752, 234.55496762034187, 234.67163428700854, 234.78830095367522, 234.9049676203419, 235.02163428700857, 235.13830095367524, 235.25496762034192, 235.3716342870086, 235.48830095367526, 235.60496762034194, 235.7216342870086, 235.8383009536753, 235.95496762034196, 236.07163428700864, 236.1883009536753, 236.30496762034198, 236.5383009536753]	2021_Jan_26_1323	59.95888668105728	1	1
10	40	FALSE	AV	v	['S', 'V', 'C', 'Y', 'U', 'G', 'surprise', 'J', 'E', 'X', 'K', 'H', 'Z', 'T', 'R', 'P']	[1731, 2245, 829, 2670, 2059, 944, 'stimAuditory/all_stimAuditory/206.wav', 1029, 904, 4000, 1122, 986, 2911, 1888, 1587, 1456]	10	Present	stimAuditory/all_stimAuditory/214.wav	stimVisual/all_stimVisual/208.jpg	PRESENT	0.20965003967285156	238.51828598976135	240.5265839099884	241.3434510231018	241.69334411621097	244.64216899871823	4.115585088729858	[238.5368731021881, 238.6536431312561, 239.637934923172, 239.8049349784851, 240.55559611320496, 240.67237210273743, 240.78929805755615, 240.9059021472931, 241.02294492721558, 241.1394579410553, 241.2731831073761, 241.3731780052185, 241.48985695838928, 241.60677695274353, 241.72356605529785, 241.8404519557953, 241.95709800720215, 242.0740261077881, 242.19053411483765, 242.30752611160278, 242.42437601089478, 242.64216995239258]	[238.5383009536753, 238.65496762034198, 239.63796762034198, 239.80466762034197, 240.55466762034197, 240.67133428700865, 240.78800095367532, 240.904667620342, 241.02133428700867, 241.13800095367534, 241.25466762034202, 241.3713342870087, 241.48800095367537, 241.60466762034204, 241.72133428700872, 241.8380009536754, 241.95466762034206, 242.07133428700874, 242.1880009536754, 242.3046676203421, 242.42133428700876, 242.65466762034208]	2021_Jan_26_1323	59.95888668105728	1	1
10	41	FALSE	NV	v	['M', 'Y', 'A', 'K', 'S', 'E', 'T', 'C', 'Z', 'G', 'B', 'R', 'V', 'X', 'H', 'W']	[1224, 2670, 697, 1122, 1731, 904, 1888, 829, 2911, 944, 760, 1587, 2245, 4000, 986, 2448]	14	Present	NA	NA	PRESENT	0.48671507835388184	244.6415400505066	246.64270901679993	247.9264440536499	248.27645206451416	250.7585370540619	4.115828037261963	[244.66012692451477, 244.77661299705505, 245.76131796836853, 245.92814803123474, 246.67868494987488, 246.79567193984985, 246.91227793693542, 247.0291690826416, 247.14590692520142, 247.2627899646759, 247.37942099571228, 247.49630904197693, 247.61305904388428, 247.72985196113586, 247.84659600257874, 247.9635820388794, 248.08006715774536, 248.19702100753784, 248.31355905532837, 248.43061113357544, 248.53056812286377, 248.7585380077362]	[244.65466762034208, 244.77133428700876, 245.75433428700876, 245.92103428700875, 246.67103428700875, 246.78770095367543, 246.9043676203421, 247.02103428700877, 247.13770095367545, 247.25436762034212, 247.3710342870088, 247.48770095367547, 247.60436762034215, 247.72103428700882, 247.8377009536755, 247.95436762034217, 248.07103428700884, 248.18770095367552, 248.3043676203422, 248.42103428700887, 248.53770095367554, 248.77103428700886]	2021_Jan_26_1323	59.95888668105728	1	1
10	42	FALSE	NN	v	['T', 'K', 'P', 'N', 'R', 'J', 'Y', 'U', 'Z', 'V', 'E', 'M', 'W', 'C', 'B', 'G']	[1888, 1122, 1456, 1335, 1587, 1029, 2670, 2059, 2911, 2245, 904, 1224, 2448, 829, 760, 944]	13	Absent	NA	NA	ABSENT	0.2752048969268799	250.7477719783783	252.75895810127255	253.92635011672976	254.27599096298215	256.874902009964	4.115943908691406	[250.76635813713074, 250.883052110672, 251.86757397651672, 252.0345389842987, 252.80181002616882, 252.90190196037292, 253.01887202262878, 253.13555908203125, 253.25246500968933, 253.3691051006317, 253.48586201667786, 253.60282397270203, 253.71965909004211, 253.83627605438232, 253.9535310268402, 254.0699279308319, 254.18667793273926, 254.30345797538757, 254.42028999328613, 254.53706192970276, 254.65374207496643, 254.874902009964]	[250.77103428700886, 250.88770095367553, 251.87070095367554, 252.03740095367553, 252.78740095367553, 252.9040676203422, 253.02073428700888, 253.13740095367555, 253.25406762034223, 253.3707342870089, 253.48740095367558, 253.60406762034225, 253.72073428700892, 253.8374009536756, 253.95406762034227, 254.07073428700895, 254.18740095367562, 254.3040676203423, 254.42073428700897, 254.53740095367564, 254.65406762034232, 254.88740095367564]	2021_Jan_26_1323	59.95888668105728	1	1
10	43	FALSE	NA	v	['E', 'V', 'G', 'N', 'B', 'P', 'Z', 'T', 'U', 'C', 'S', 'A', 'M', 'X', 'H', 'R']	[904, 2245, 944, 1335, 760, 1456, 2911, 1888, 2059, 829, 1731, 697, 1224, 4000, 986, 1587]	14	Present	NA	NA	PRESENT	0.29575610160827637	256.87092304229736	258.8753709793091	260.1598210334778	260.50926899909973	262.9912700653076	4.115899085998535	[256.8895101547241, 257.006413936615, 257.99082493782043, 258.1575040817261, 258.908282995224, 259.0251979827881, 259.1419310569763, 259.258780002594, 259.3754451274872, 259.4923679828644, 259.6089551448822, 259.7259180545807, 259.8428211212158, 259.9596140384674, 260.07614398002625, 260.1929659843445, 260.3097701072693, 260.4266791343689, 260.5431909561157, 260.660108089447, 260.77693700790405, 260.99127101898193]	[256.88740095367564, 257.0040676203423, 257.9870676203423, 258.1537676203423, 258.9037676203423, 259.020434287009, 259.13710095367566, 259.25376762034233, 259.370434287009, 259.4871009536757, 259.60376762034235, 259.720434287009, 259.8371009536757, 259.9537676203424, 260.07043428700905, 260.1871009536757, 260.3037676203424, 260.4204342870091, 260.53710095367575, 260.6537676203424, 260.7704342870091, 261.00376762034244]	2021_Jan_26_1323	59.95888668105728	1	1
10	44	FALSE	NN	v	['Z', 'A', 'J', 'E', 'S', 'G', 'B', 'M', 'C', 'H', 'W', 'U', 'P', 'N', 'T', 'R']	[2911, 697, 1029, 904, 1731, 944, 760, 1224, 829, 986, 2448, 2059, 1456, 1335, 1888, 1587]	8	Absent	NA	NA	ABSENT	0.28506016731262207	262.99415612220764	264.9919641017914	265.5755989551544	265.9253101348877	269.10763692855835	4.115672826766968	[263.0127420425415, 263.11259508132935, 264.0973861217499, 264.2640061378479, 265.03157114982605, 265.14837098121643, 265.2650990486145, 265.3650600910187, 265.49875497817993, 265.5986831188202, 265.71548104286194, 265.83224606513977, 265.9490809440613, 266.06580114364624, 266.18260407447815, 266.29945611953735, 266.41616010665894, 266.5328850746155, 266.6497459411621, 266.7665481567383, 266.88335609436035, 267.10763692855835]	[263.00376762034244, 263.1204342870091, 264.1034342870091, 264.2701342870091, 265.0201342870091, 265.1368009536758, 265.25346762034246, 265.37013428700914, 265.4868009536758, 265.6034676203425, 265.72013428700916, 265.83680095367583, 265.9534676203425, 266.0701342870092, 266.18680095367586, 266.30346762034253, 266.4201342870092, 266.5368009536759, 266.65346762034255, 266.7701342870092, 266.8868009536759, 267.12013428700925]	2021_Jan_26_1323	59.95888668105728	1	1
10	45	FALSE	AN	v	['N', 'Z', 'J', 'P', 'surprise', 'G', 'S', 'C', 'T', 'H', 'E', 'W', 'B', 'A', 'R', 'U']	[1335, 2911, 1029, 1456, 'stimAuditory/all_stimAuditory/118.wav', 944, 1731, 829, 1888, 986, 904, 2448, 760, 697, 1587, 2059]	8	Absent	stimAuditory/all_stimAuditory/113.wav	stimVisual/all_stimVisual/50.jpg	ABSENT	0.2576301097869873	269.10064601898193	271.10809993743896	271.6917841434479	272.04184007644653	275.22400403022766	4.115904092788696	[269.1192331314087, 269.23582100868225, 270.2202501296997, 270.38726711273193, 271.13796305656433, 271.25479912757874, 271.37154603004456, 271.4882891178131, 271.6219730377197, 271.7218351364136, 271.8387701511383, 271.95561504364014, 272.07222294807434, 272.1891670227051, 272.30596113204956, 272.42274713516235, 272.5393559932709, 272.6562719345093, 272.77283215522766, 272.88982009887695, 273.00666213035583, 273.22400307655334]	[269.12013428700925, 269.2368009536759, 270.21980095367593, 270.3865009536759, 271.1365009536759, 271.2531676203426, 271.36983428700927, 271.48650095367594, 271.6031676203426, 271.7198342870093, 271.83650095367597, 271.95316762034264, 272.0698342870093, 272.186500953676, 272.30316762034266, 272.41983428700934, 272.536500953676, 272.6531676203427, 272.76983428700936, 272.88650095367603, 273.0031676203427, 273.23650095367606]	2021_Jan_26_1323	59.95888668105728	1	1
10	46	FALSE	NN	v	['S', 'P', 'T', 'J', 'W', 'N', 'V', 'R', 'Y', 'E', 'G', 'Z', 'U', 'M', 'H', 'B']	[1731, 1456, 1888, 1029, 2448, 1335, 2245, 1587, 2670, 904, 944, 2911, 2059, 1224, 986, 760]	12	Absent	NA	NA	ABSENT	0.2632119655609131	275.22405099868774	277.2247791290283	278.2751250267029	278.6252090930939	281.3403699398041	4.115590810775757	[275.2426371574402, 275.359099149704, 276.34343004226685, 276.5102529525757, 277.26117300987244, 277.37794399261475, 277.4946041107178, 277.6114730834961, 277.7281551361084, 277.8451430797577, 277.96176505088806, 278.0786340236664, 278.1954700946808, 278.3124051094055, 278.4290690422058, 278.54590010643005, 278.6624879837036, 278.7793619632721, 278.8961751461029, 279.01289415359497, 279.11291694641113, 279.3403699398041]	[275.23650095367606, 275.35316762034273, 276.33616762034274, 276.5028676203427, 277.2528676203427, 277.3695342870094, 277.4862009536761, 277.60286762034275, 277.7195342870094, 277.8362009536761, 277.9528676203428, 278.06953428700945, 278.1862009536761, 278.3028676203428, 278.41953428700947, 278.53620095367614, 278.6528676203428, 278.7695342870095, 278.88620095367617, 279.00286762034284, 279.1195342870095, 279.35286762034286]	2021_Jan_26_1323	59.95888668105728	1	1
10	47	FALSE	NN	v	['Y', 'J', 'W', 'R', 'K', 'G', 'C', 'Z', 'U', 'P', 'T', 'A', 'N', 'V', 'B', 'S']	[2670, 1029, 2448, 1587, 1122, 944, 829, 2911, 2059, 1456, 1888, 697, 1335, 2245, 760, 1731]	11	Absent	NA	NA	ABSENT	0.37148284912109375	281.33013105392456	283.3408749103546	284.27450704574585	284.6251149177551	287.4567360877991	4.115861177444458	[281.34871792793274, 281.4654450416565, 282.44986510276794, 282.61685395240784, 283.3673391342163, 283.4844160079956, 283.6011710166931, 283.71783900260925, 283.83474612236023, 283.9515039920807, 284.06831192970276, 284.1851210594177, 284.3019280433655, 284.41858196258545, 284.53531312942505, 284.65232610702515, 284.76895213127136, 284.88584303855896, 285.002876996994, 285.11943101882935, 285.23609805107117, 285.4567370414734]	[281.35286762034286, 281.46953428700954, 282.45253428700954, 282.61923428700953, 283.36923428700953, 283.4859009536762, 283.6025676203429, 283.71923428700956, 283.83590095367623, 283.9525676203429, 284.0692342870096, 284.18590095367625, 284.3025676203429, 284.4192342870096, 284.5359009536763, 284.65256762034295, 284.7692342870096, 284.8859009536763, 285.002567620343, 285.11923428700965, 285.2359009536763, 285.46923428700967]	2021_Jan_26_1323	59.95888668105728	1	1
10	48	FALSE	NA	v	['R', 'H', 'E', 'N', 'A', 'S', 'B', 'M', 'Y', 'X', 'V', 'C', 'P', 'W', 'T', 'Z']	[1587, 986, 904, 1335, 697, 1731, 760, 1224, 2670, 4000, 2245, 829, 1456, 2448, 1888, 2911]	10	Present	NA	NA	PRESENT	0.2719299793243408	287.4532160758972	289.45739912986755	290.2743821144104	290.62486600875854	293.5731029510498	4.115703821182251	[287.4718029499054, 287.5885760784149, 288.57304096221924, 288.73980498313904, 289.49056100845337, 289.6074171066284, 289.7241361141205, 289.84103298187256, 289.9577660560608, 290.07464694976807, 290.1913239955902, 290.30817198753357, 290.42490696907043, 290.54188299179077, 290.6584870815277, 290.7755250930786, 290.89217805862427, 291.00900292396545, 291.12569403648376, 291.2425479888916, 291.3592050075531, 291.5731019973755]	[287.46923428700967, 287.58590095367634, 288.56890095367635, 288.73560095367634, 289.48560095367634, 289.602267620343, 289.7189342870097, 289.83560095367636, 289.95226762034304, 290.0689342870097, 290.1856009536764, 290.30226762034306, 290.41893428700973, 290.5356009536764, 290.6522676203431, 290.76893428700976, 290.88560095367643, 291.0022676203431, 291.1189342870098, 291.23560095367645, 291.3522676203431, 291.5856009536765]	2021_Jan_26_1323	59.95888668105728	1	1
10	49	FALSE	AV	v	['M', 'P', 'V', 'H', 'G', 'surprise', 'R', 'C', 'X', 'Y', 'T', 'U', 'K', 'J', 'E', 'W']	[1224, 1456, 2245, 986, 944, 'stimAuditory/all_stimAuditory/117.wav', 1587, 829, 4000, 2670, 1888, 2059, 1122, 1029, 904, 2448]	9	Present	stimAuditory/all_stimAuditory/220.wav	stimVisual/all_stimVisual/220.jpg	PRESENT	0.26927709579467773	293.5765709877014	295.57354402542114	296.273903131485	296.62423396110535	299.6894700527191	4.115926027297974	[293.5951590538025, 293.6949579715729, 294.67945194244385, 294.8461711406708, 295.6140739917755, 295.71381402015686, 295.83057713508606, 295.9473099708557, 296.0641779899597, 296.19790601730347, 296.29769802093506, 296.4145030975342, 296.5313811302185, 296.6481730937958, 296.7649509906769, 296.88178300857544, 296.9986071586609, 297.1151900291443, 297.232253074646, 297.3489680290222, 297.4656081199646, 297.6894700527191]	[293.5856009536765, 293.70226762034315, 294.68526762034315, 294.85196762034315, 295.60196762034315, 295.7186342870098, 295.8353009536765, 295.95196762034317, 296.06863428700984, 296.1853009536765, 296.3019676203432, 296.41863428700987, 296.53530095367654, 296.6519676203432, 296.7686342870099, 296.88530095367656, 297.00196762034324, 297.1186342870099, 297.2353009536766, 297.35196762034326, 297.46863428700993, 297.7019676203433]	2021_Jan_26_1323	59.95888668105728	1	1
10	50	FALSE	NA	v	['T', 'N', 'U', 'H', 'W', 'V', 'P', 'R', 'G', 'X', 'M', 'A', 'Y', 'S', 'C', 'E']	[1888, 1335, 2059, 986, 2448, 2245, 1456, 1587, 944, 4000, 1224, 697, 2670, 1731, 829, 904]	10	Present	NA	NA	PRESENT	0.32994794845581055	299.68298602104187	301.69014596939087	302.50688099861145	302.85687804222107	305.8058371543884	4.115691184997559	[299.7015731334686, 299.8182189464569, 300.8026020526886, 300.96981406211853, 301.7200679779053, 301.8370780944824, 301.9539201259613, 302.07068395614624, 302.1875081062317, 302.3042869567871, 302.42094802856445, 302.5377061367035, 302.65454292297363, 302.7714879512787, 302.88817405700684, 303.0049340724945, 303.12158703804016, 303.2385230064392, 303.35518503189087, 303.47196412086487, 303.5888569355011, 303.80583596229553]	[299.7019676203433, 299.81863428700996, 300.80163428700996, 300.96833428700995, 301.71833428700995, 301.8350009536766, 301.9516676203433, 302.06833428701, 302.18500095367665, 302.3016676203433, 302.41833428701, 302.5350009536767, 302.65166762034335, 302.76833428701, 302.8850009536767, 303.00166762034337, 303.11833428701004, 303.2350009536767, 303.3516676203434, 303.46833428701007, 303.58500095367674, 303.8183342870101]	2021_Jan_26_1323	59.95888668105728	1	1
10	51	FALSE	NV	v	['Z', 'E', 'T', 'W', 'S', 'H', 'K', 'V', 'Y', 'A', 'U', 'X', 'N', 'C', 'P', 'M']	[2911, 904, 1888, 2448, 1731, 986, 1122, 2245, 2670, 697, 2059, 4000, 1335, 829, 1456, 1224]	12	Present	NA	NA	PRESENT	0.6553730964660645	305.806214094162	307.80644512176514	308.85677194595337	309.2067320346832	311.9222021102905	4.115756988525391	[305.82480096817017, 305.94152903556824, 306.9259190559387, 307.09262013435364, 307.8433041572571, 307.96028208732605, 308.0769770145416, 308.19380402565, 308.31066703796387, 308.42744302749634, 308.54427194595337, 308.6608431339264, 308.77784395217896, 308.8946170806885, 309.0113549232483, 309.1281280517578, 309.2448561191559, 309.36162304878235, 309.4785590171814, 309.5951280593872, 309.69537901878357, 309.92220306396484]	[305.8183342870101, 305.93500095367676, 306.91800095367677, 307.08470095367676, 307.83470095367676, 307.95136762034343, 308.0680342870101, 308.1847009536768, 308.30136762034346, 308.41803428701013, 308.5347009536768, 308.6513676203435, 308.76803428701015, 308.8847009536768, 309.0013676203435, 309.1180342870102, 309.23470095367685, 309.3513676203435, 309.4680342870102, 309.5847009536769, 309.70136762034355, 309.9347009536769]	2021_Jan_26_1323	59.95888668105728	1	1
10	52	FALSE	NA	v	['J', 'Z', 'E', 'C', 'B', 'A', 'T', 'Y', 'P', 'R', 'N', 'X', 'H', 'S', 'U', 'G']	[1029, 2911, 904, 829, 760, 697, 1888, 2670, 1456, 1587, 1335, 4000, 986, 1731, 2059, 944]	12	Present	NA	NA	PRESENT	0.3877329826354981	311.91255712509155	313.92287397384644	314.97313594818115	315.3230860233307	318.0385699272156	4.115695953369141	[311.9311430454254, 312.0479350090027, 313.0322620868683, 313.1990840435028, 313.9496850967407, 314.0666389465332, 314.18354892730713, 314.3003420829773, 314.4171221256256, 314.53374910354614, 314.65045404434204, 314.7674081325531, 314.8841300010681, 315.0012631416321, 315.1176941394806, 315.2345509529114, 315.35122513771057, 315.4681100845337, 315.5848140716553, 315.7016019821167, 315.8184640407562, 316.0385699272156]	[311.9347009536769, 312.05136762034357, 313.0343676203436, 313.20106762034357, 313.95106762034357, 314.06773428701024, 314.1844009536769, 314.3010676203436, 314.41773428701026, 314.53440095367694, 314.6510676203436, 314.7677342870103, 314.88440095367696, 315.00106762034363, 315.1177342870103, 315.234400953677, 315.35106762034366, 315.46773428701033, 315.584400953677, 315.7010676203437, 315.81773428701035, 316.0510676203437]	2021_Jan_26_1323	59.95888668105728	1	1
10	53	FALSE	NA	v	['M', 'W', 'V', 'G', 'K', 'T', 'Z', 'S', 'P', 'C', 'R', 'X', 'N', 'A', 'E', 'U']	[1224, 2448, 2245, 944, 1122, 1888, 2911, 1731, 1456, 829, 1587, 4000, 1335, 697, 904, 2059]	12	Present	NA	NA	PRESENT	0.28819894790649414	318.03561305999756	320.03910398483276	321.089478969574	321.43957114219666	324.1549370288849	4.115833044052124	[318.05419993400574, 318.17097210884094, 319.1555299758911, 319.3220751285553, 320.0728120803833, 320.189777135849, 320.3065941333771, 320.4233901500702, 320.5401451587677, 320.65703415870667, 320.7738220691681, 320.8906271457672, 321.00741815567017, 321.1240291595459, 321.24090600013733, 321.35777592658997, 321.47440910339355, 321.5912790298462, 321.7082121372223, 321.82475113868713, 321.94169306755066, 322.1549379825592]	[318.0510676203437, 318.1677342870104, 319.1507342870104, 319.31743428701037, 320.06743428701037, 320.18410095367705, 320.3007676203437, 320.4174342870104, 320.53410095367707, 320.65076762034374, 320.7674342870104, 320.8841009536771, 321.00076762034377, 321.11743428701044, 321.2341009536771, 321.3507676203438, 321.46743428701046, 321.58410095367714, 321.7007676203438, 321.8174342870105, 321.93410095367716, 322.1674342870105]	2021_Jan_26_1323	59.95888668105728	1	1
10	54	FALSE	NA	v	['K', 'Y', 'W', 'V', 'N', 'A', 'J', 'Z', 'S', 'C', 'X', 'T', 'M', 'P', 'G', 'H']	[1122, 2670, 2448, 2245, 1335, 697, 1029, 2911, 1731, 829, 4000, 1888, 1224, 1456, 944, 986]	11	Present	NA	NA	PRESENT	0.2616610527038574	324.1418619155884	326.15522599220276	327.0898370742798	327.4392731189728	330.2713029384613	4.116076946258545	[324.1604480743408, 324.27728509902954, 325.26204204559326, 325.4287099838257, 326.1960799694061, 326.296040058136, 326.4128351211548, 326.5296449661255, 326.64647793769836, 326.76322412490845, 326.8801951408386, 326.99684500694275, 327.1136600971222, 327.2305600643158, 327.3474509716034, 327.46410512924194, 327.5807650089264, 327.69773602485657, 327.8143470287323, 327.93137097358704, 328.0480899810791, 328.2713029384613]	[324.1674342870105, 324.2841009536772, 325.2671009536772, 325.4338009536772, 326.1838009536772, 326.30046762034385, 326.4171342870105, 326.5338009536772, 326.6504676203439, 326.76713428701055, 326.8838009536772, 327.0004676203439, 327.1171342870106, 327.23380095367725, 327.3504676203439, 327.4671342870106, 327.58380095367727, 327.70046762034394, 327.8171342870106, 327.9338009536773, 328.05046762034397, 328.2838009536773]	2021_Jan_26_1323	59.95888668105728	1	1
10	55	FALSE	NV	v	['R', 'S', 'J', 'B', 'A', 'W', 'M', 'X', 'G', 'K', 'T', 'N', 'Z', 'H', 'Y', 'E']	[1587, 1731, 1029, 760, 697, 2448, 1224, 4000, 944, 1122, 1888, 1335, 2911, 986, 2670, 904]	8	Present	NA	NA	PRESENT	0.33002591133117676	330.26526403427124	332.27180910110474	332.8553969860077	333.2054479122162	336.3876700401306	4.115860939025879	[330.2838499546051, 330.40052008628845, 331.3849380016327, 331.55151414871216, 332.3025200366974, 332.41946506500244, 332.53631615638733, 332.653039932251, 332.76985001564026, 332.88664412498474, 333.0032639503479, 333.1202039718628, 333.236829996109, 333.35376501083374, 333.47030210494995, 333.58727192878723, 333.70397305488586, 333.82069301605225, 333.93765902519226, 334.05446100234985, 334.1712701320648, 334.3876690864563]	[330.2838009536773, 330.400467620344, 331.383467620344, 331.550167620344, 332.300167620344, 332.41683428701066, 332.53350095367733, 332.650167620344, 332.7668342870107, 332.88350095367736, 333.00016762034403, 333.1168342870107, 333.2335009536774, 333.35016762034405, 333.4668342870107, 333.5835009536774, 333.7001676203441, 333.81683428701075, 333.9335009536774, 334.0501676203441, 334.1668342870108, 334.4001676203441]	2021_Jan_26_1323	59.95888668105728	1	1
10	56	FALSE	NV	v	['W', 'Z', 'B', 'R', 'U', 'H', 'P', 'J', 'G', 'E', 'V', 'X', 'Y', 'M', 'K', 'N']	[2448, 2911, 760, 1587, 2059, 986, 1456, 1029, 944, 904, 2245, 4000, 2670, 1224, 1122, 1335]	12	Present	NA	NA	PRESENT	0.79148101806640625	336.388680934906	338.38831305503845	339.4385769367218	339.789253950119	342.5040371417999	4.115724086761475	[336.40726804733276, 336.5237669944763, 337.5082139968872, 337.6748831272125, 338.42557406425476, 338.54260897636414, 338.65943002700806, 338.7761290073395, 338.8927490711212, 339.0095419883728, 339.1266851425171, 339.24331498146057, 339.3601861000061, 339.4769549369812, 339.5935740470886, 339.71046710014343, 339.8270890712738, 339.9440519809723, 340.0608060359955, 340.17750811576843, 340.277547121048, 340.5040371417999]	[336.4001676203441, 336.5168342870108, 337.4998342870108, 337.6665342870108, 338.4165342870108, 338.53320095367746, 338.64986762034414, 338.7665342870108, 338.8832009536775, 338.99986762034416, 339.11653428701084, 339.2332009536775, 339.3498676203442, 339.46653428701086, 339.58320095367753, 339.6998676203442, 339.8165342870109, 339.93320095367756, 340.04986762034423, 340.1665342870109, 340.2832009536776, 340.5165342870109]	2021_Jan_26_1323	59.95888668105728	1	1
10	57	FALSE	NV	v	['R', 'A', 'V', 'N', 'Y', 'W', 'S', 'E', 'P', 'X', 'Z', 'K', 'C', 'U', 'H', 'B']	[1587, 697, 2245, 1335, 2670, 2448, 1731, 904, 1456, 4000, 2911, 1122, 829, 2059, 986, 760]	10	Present	NA	NA	PRESENT	0.2679579257965088	342.49475598335266	344.50448298454285	345.32165598869324	345.6717050075531	348.62040305137634	4.115920066833496	[342.5133430957794, 342.6301109790802, 343.61445212364197, 343.781368970871, 344.5321080684662, 344.64897108078003, 344.76560711860657, 344.88257908821106, 344.9993591308594, 345.1162431240082, 345.2327711582184, 345.34980607032776, 345.46646213531494, 345.5833520889282, 345.69995403289795, 345.8167130947113, 345.93385100364685, 346.0503239631653, 346.1671540737152, 346.2840931415558, 346.4008090496063, 346.620402097702]	[342.5165342870109, 342.6332009536776, 343.6162009536776, 343.7829009536776, 344.5329009536776, 344.64956762034427, 344.76623428701095, 344.8829009536776, 344.9995676203443, 345.11623428701097, 345.23290095367764, 345.3495676203443, 345.466234287011, 345.58290095367767, 345.69956762034434, 345.816234287011, 345.9329009536777, 346.04956762034436, 346.16623428701104, 346.2829009536777, 346.3995676203444, 346.63290095367773]	2021_Jan_26_1323	59.95888668105728	1	1
10	58	FALSE	NN	v	['W', 'K', 'H', 'A', 'N', 'P', 'G', 'E', 'S', 'J', 'M', 'R', 'Y', 'C', 'T', 'U']	[2448, 1122, 986, 697, 1335, 1456, 944, 904, 1731, 1029, 1224, 1587, 2670, 829, 1888, 2059]	9	Absent	NA	NA	ABSENT	0.26444196701049805	348.617840051651	350.62101197242737	351.32123613357544	351.67126202583313	354.73677015304565	4.115758180618286	[348.6364281177521, 348.75341510772705, 349.7375979423523, 349.9045629501343, 350.65526700019836, 350.7722079753876, 350.88900113105774, 351.0057611465454, 351.12237310409546, 351.23919892311096, 351.35610914230347, 351.47296810150146, 351.5896430015564, 351.706326007843, 351.823312997818, 351.9400141239166, 352.05676007270813, 352.1735601425171, 352.2903940677643, 352.4069881439209, 352.5239300727844, 352.73677015304565]	[348.63290095367773, 348.7495676203444, 349.7325676203444, 349.8992676203444, 350.6492676203444, 350.7659342870111, 350.88260095367775, 350.9992676203444, 351.1159342870111, 351.2326009536778, 351.34926762034445, 351.4659342870111, 351.5826009536778, 351.6992676203445, 351.81593428701115, 351.9326009536778, 352.0492676203445, 352.16593428701117, 352.28260095367784, 352.3992676203445, 352.5159342870112, 352.74926762034454]	2021_Jan_26_1323	59.95888668105728	1	1
10	59	FALSE	NV	v	['E', 'C', 'M', 'G', 'K', 'V', 'J', 'S', 'A', 'W', 'P', 'U', 'X', 'B', 'Z', 'R']	[904, 829, 1224, 944, 1122, 2245, 1029, 1731, 697, 2448, 1456, 2059, 4000, 760, 2911, 1587]	13	Present	NA	NA	PRESENT	0.26180005073547363	354.72427010536194	356.73722100257874	357.90426301956177	358.2542989253998	360.8531370162964	4.115916013717651	[354.7428550720215, 354.859619140625, 355.8439929485321, 356.01110315322876, 356.7784240245819, 356.8783760070801, 356.995414018631, 357.11203813552856, 357.22890400886536, 357.345694065094, 357.4623999595642, 357.5792329311371, 357.6960210800171, 357.8128480911255, 357.92948293685913, 358.04643297195435, 358.16302013397217, 358.28002405166626, 358.3967161178589, 358.5136020183563, 358.63033413887024, 358.8531370162964]	[354.74926762034454, 354.8659342870112, 355.8489342870112, 356.0156342870112, 356.7656342870112, 356.8823009536779, 356.99896762034456, 357.11563428701123, 357.2323009536779, 357.3489676203446, 357.46563428701126, 357.58230095367793, 357.6989676203446, 357.8156342870113, 357.93230095367795, 358.0489676203446, 358.1656342870113, 358.282300953678, 358.39896762034465, 358.5156342870113, 358.632300953678, 358.86563428701135]	2021_Jan_26_1323	59.95888668105728	1	1
10	60	FALSE	NA	v	['C', 'W', 'Z', 'P', 'E', 'M', 'R', 'G', 'N', 'X', 'Y', 'V', 'K', 'B', 'S', 'J']	[829, 2448, 2911, 1456, 904, 1224, 1587, 944, 1335, 4000, 2670, 2245, 1122, 760, 1731, 1029]	10	Present	NA	NA	PRESENT	0.16251516342163086	360.8473949432373	362.8537631034851	363.6709780693054	364.0206301212311	366.9695029258728	4.115739822387695	[360.8659830093384, 360.982980966568, 361.9672019481659, 362.1341459751129, 362.88482308387756, 363.00183296203613, 363.11840200424194, 363.2353069782257, 363.3520600795746, 363.46889901161194, 363.58574509620667, 363.70231103897095, 363.81918811798096, 363.93590807914734, 364.05271196365356, 364.1694779396057, 364.2864580154419, 364.4032211303711, 364.51997995376587, 364.6366560459137, 364.75357007980347, 364.9695019721985]	[360.86563428701135, 360.982300953678, 361.965300953678, 362.132000953678, 362.882000953678, 362.9986676203447, 363.11533428701136, 363.23200095367804, 363.3486676203447, 363.4653342870114, 363.58200095367806, 363.69866762034474, 363.8153342870114, 363.9320009536781, 364.04866762034476, 364.16533428701143, 364.2820009536781, 364.3986676203448, 364.51533428701146, 364.63200095367813, 364.7486676203448, 364.98200095367815]	2021_Jan_26_1323	59.95888668105728	1	1
10	61	FALSE	NV	v	['S', 'R', 'T', 'G', 'N', 'M', 'B', 'C', 'A', 'V', 'P', 'W', 'Y', 'X', 'K', 'E']	[1731, 1587, 1888, 944, 1335, 1224, 760, 829, 697, 2245, 1456, 2448, 2670, 4000, 1122, 904]	14	Present	NA	NA	PRESENT	0.2876579761505127	366.9708740711212	368.970281124115	370.2539129257202	370.60386395454407	373.0858700275421	4.115588903427124	[366.9894609451294, 367.10603499412537, 368.09053206443787, 368.240247964859, 369.007924079895, 369.1250479221344, 369.24169301986694, 369.35850405693054, 369.4752371311188, 369.5919780731201, 369.7089340686798, 369.82552695274353, 369.94237899780273, 370.05903601646423, 370.1759190559387, 370.29258012771606, 370.4094190597534, 370.5261471271515, 370.6429409980774, 370.75994515419006, 370.85993909835815, 371.0858700275421]	[366.98200095367815, 367.0986676203448, 368.08166762034483, 368.2483676203448, 368.9983676203448, 369.1150342870115, 369.23170095367817, 369.34836762034485, 369.4650342870115, 369.5817009536782, 369.69836762034487, 369.81503428701154, 369.9317009536782, 370.0483676203449, 370.16503428701157, 370.28170095367824, 370.3983676203449, 370.5150342870116, 370.63170095367826, 370.74836762034494, 370.8650342870116, 371.09836762034496]	2021_Jan_26_1323	59.95888668105728	1	1
10	62	FALSE	NN	v	['W', 'C', 'G', 'S', 'R', 'T', 'E', 'K', 'M', 'Z', 'J', 'P', 'V', 'Y', 'U', 'B']	[2448, 829, 944, 1731, 1587, 1888, 904, 1122, 1224, 2911, 1029, 1456, 2245, 2670, 2059, 760]	9	Absent	NA	NA	ABSENT	0.27636098861694336	373.07722902297974	375.086501121521	375.7871720790863	376.1369581222534	379.2022371292114	4.11573600769043	[373.0958149433136, 373.21242213249207, 374.1967091560364, 374.36377215385437, 375.1143250465393, 375.2311270236969, 375.347944021225, 375.4649131298065, 375.5816259384155, 375.69859194755554, 375.81510615348816, 375.9319689273834, 376.04878211021423, 376.16571712493896, 376.2823529243469, 376.3991780281067, 376.51591396331787, 376.63266801834106, 376.74938893318176, 376.866317987442, 376.98342204093933, 377.20223593711853]	[373.09836762034496, 373.21503428701163, 374.19803428701164, 374.36473428701163, 375.11473428701163, 375.2314009536783, 375.348067620345, 375.46473428701165, 375.5814009536783, 375.698067620345, 375.8147342870117, 375.93140095367835, 376.048067620345, 376.1647342870117, 376.28140095367837, 376.39806762034505, 376.5147342870117, 376.6314009536784, 376.74806762034507, 376.86473428701174, 376.9814009536784, 377.21473428701177]	2021_Jan_26_1323	59.95888668105728	1	1
10	63	FALSE	VA	v	['K', 'C', 'Z', 'W', 'U', 'J', 'V', 'surprise', 'S', 'T', 'X', 'R', 'B', 'H', 'A', 'N']	[1122, 829, 2911, 2448, 2059, 1029, 2245, 'stimAuditory/all_stimAuditory/207.wav', 1731, 1888, 4000, 1587, 760, 986, 697, 1335]	11	Present	NA	stimVisual/all_stimVisual/121.jpg	PRESENT	0.17673420906066897	379.2003331184387	381.2026970386505	382.1365580558777	382.486545085907	385.31860303878784	4.115906000137329	[379.2189190387726, 379.3354711532593, 380.3200309276581, 380.4867479801178, 381.2375111579895, 381.35436511039734, 381.471293926239, 381.5879170894623, 381.70469403266907, 381.8215720653534, 381.9384300708771, 382.05511593818665, 382.17192912101746, 382.28873205184937, 382.40554213523865, 382.5223150253296, 382.6390371322632, 382.7558009624481, 382.8727550506592, 382.9892680644989, 383.1062741279602, 383.31860303878784]	[379.21473428701177, 379.33140095367844, 380.31440095367844, 380.48110095367844, 381.23110095367844, 381.3477676203451, 381.4644342870118, 381.58110095367846, 381.69776762034513, 381.8144342870118, 381.9311009536785, 382.04776762034516, 382.16443428701183, 382.2811009536785, 382.3977676203452, 382.51443428701185, 382.6311009536785, 382.7477676203452, 382.8644342870119, 382.98110095367855, 383.0977676203452, 383.3311009536786]	2021_Jan_26_1323	59.95888668105728	1	1
10	64	FALSE	NA	v	['E', 'H', 'U', 'Y', 'G', 'S', 'B', 'J', 'N', 'A', 'X', 'W', 'M', 'Z', 'T', 'R']	[904, 986, 2059, 2670, 944, 1731, 760, 1029, 1335, 697, 4000, 2448, 1224, 2911, 1888, 1587]	11	Present	NA	NA	PRESENT	0.4220559597015381	385.3065071105957	387.319128036499	388.252874135971	388.6034610271454	391.4349701404571	4.11584210395813	[385.32509303092957, 385.4420189857483, 386.4263849258423, 386.59338307380676, 387.3612439632416, 387.46081614494324, 387.57755494117737, 387.69450402259827, 387.81132411956787, 387.92818212509155, 388.04470801353455, 388.16168093681335, 388.2782709598541, 388.395143032074, 388.5118660926819, 388.6287250518799, 388.74541306495667, 388.86213397979736, 388.979040145874, 389.0958819389343, 389.2126750946045, 389.43497014045715]	[385.3311009536786, 385.44776762034525, 386.43076762034525, 386.59746762034524, 387.34746762034524, 387.4641342870119, 387.5808009536786, 387.69746762034526, 387.81413428701194, 387.9308009536786, 388.0474676203453, 388.16413428701196, 388.28080095367864, 388.3974676203453, 388.514134287012, 388.63080095367866, 388.74746762034533, 388.864134287012, 388.9808009536787, 389.09746762034536, 389.21413428701203, 389.4474676203454]	2021_Jan_26_1323	59.95888668105728	1	1
10	65	FALSE	NA	v	['V', 'M', 'N', 'U', 'J', 'E', 'G', 'Y', 'Z', 'S', 'X', 'T', 'A', 'B', 'K', 'C']	[2245, 1224, 1335, 2059, 1029, 904, 944, 2670, 2911, 1731, 4000, 1888, 697, 760, 1122, 829]	11	Present	NA	NA	PRESENT	0.29861879348754883	391.42987394332886	393.43551206588745	394.3690719604492	394.71927309036255	397.5513370037079	4.115824937820435	[391.4484601020813, 391.5651230812073, 392.54951000213623, 392.7162721157074, 393.4671370983124, 393.5840320587158, 393.7006149291992, 393.8176381587982, 393.93426299095154, 394.05124402046204, 394.1680910587311, 394.2846541404724, 394.40154004096985, 394.51833510398865, 394.6351361274719, 394.7519540786743, 394.8687069416046, 394.98556113243103, 395.10224413871765, 395.21904015541077, 395.33585810661316, 395.5513370037079]	[391.4474676203454, 391.56413428701205, 392.54713428701206, 392.71383428701205, 393.46383428701205, 393.5805009536787, 393.6971676203454, 393.81383428701207, 393.93050095367875, 394.0471676203454, 394.1638342870121, 394.28050095367877, 394.39716762034544, 394.5138342870121, 394.6305009536788, 394.74716762034546, 394.86383428701214, 394.9805009536788, 395.0971676203455, 395.21383428701216, 395.33050095367884, 395.5638342870122]	2021_Jan_26_1323	59.95888668105728	1	1
10	66	FALSE	NV	v	['W', 'S', 'Z', 'H', 'G', 'U', 'C', 'J', 'A', 'B', 'X', 'K', 'V', 'T', 'P', 'N']	[2448, 1731, 2911, 986, 944, 2059, 829, 1029, 697, 760, 4000, 1122, 2245, 1888, 1456, 1335]	11	Present	NA	NA	PRESENT	0.14396095275878906	397.5532929897308	399.5517489910126	400.48632311820984	400.8356590270996	403.6677031517029	4.115954160690308	[397.5718801021576, 397.68825697898865, 398.655837059021, 398.8226389884949, 399.59034609794617, 399.70719504356384, 399.8240211009979, 399.94061493873596, 400.05767703056335, 400.1742811203003, 400.29116702079773, 400.40808510780334, 400.52473497390747, 400.64137411117554, 400.7581901550293, 400.8750259876251, 400.9918749332428, 401.09173703193665, 401.2085750102997, 401.3421700000763, 401.44220304489136, 401.6677031517029]	[397.5638342870122, 397.68050095367886, 398.66350095367886, 398.83020095367885, 399.58020095367885, 399.69686762034553, 399.8135342870122, 399.9302009536789, 400.04686762034555, 400.1635342870122, 400.2802009536789, 400.3968676203456, 400.51353428701225, 400.6302009536789, 400.7468676203456, 400.86353428701227, 400.98020095367895, 401.0968676203456, 401.2135342870123, 401.33020095367897, 401.44686762034564, 401.680200953679]	2021_Jan_26_1323	59.95888668105728	1	1
10	67	FALSE	NV	v	['A', 'M', 'P', 'J', 'N', 'Z', 'S', 'U', 'R', 'K', 'X', 'B', 'T', 'H', 'E', 'G']	[697, 1224, 1456, 1029, 1335, 2911, 1731, 2059, 1587, 1122, 4000, 760, 1888, 986, 904, 944]	11	Present	NA	NA	PRESENT	0.20428204536437988	403.65952706336975	405.6686189174652	406.603816986084	406.9519691467285	409.7840690612793	4.115450143814087	[403.67811393737793, 403.79480504989624, 404.7791790962219, 404.94590997695923, 405.69666504859924, 405.81374192237854, 405.930447101593, 406.0472979545593, 406.1639130115509, 406.2808530330658, 406.3975100517273, 406.51436710357666, 406.63100004196167, 406.7477090358734, 406.8647110462189, 406.98165106773376, 407.0980679988861, 407.2151300907135, 407.3318109512329, 407.4485671520233, 407.56526613235474, 407.78407096862793]	[403.680200953679, 403.79686762034567, 404.77986762034567, 404.94656762034566, 405.69656762034566, 405.81323428701234, 405.929900953679, 406.0465676203457, 406.16323428701236, 406.27990095367903, 406.3965676203457, 406.5132342870124, 406.62990095367905, 406.74656762034573, 406.8632342870124, 406.9799009536791, 407.09656762034575, 407.2132342870124, 407.3299009536791, 407.4465676203458, 407.56323428701245, 407.7965676203458]	2021_Jan_26_1323	59.95888668105728	1	1
10	68	FALSE	NA	v	['V', 'G', 'N', 'S', 'K', 'E', 'T', 'C', 'B', 'U', 'J', 'H', 'W', 'X', 'A', 'R']	[2245, 944, 1335, 1731, 1122, 904, 1888, 829, 760, 2059, 1029, 986, 2448, 4000, 697, 1587]	14	Present	NA	NA	PRESENT	0.2898690700531006	409.7824110984802	411.78475999832153	413.06848907470703	413.4183990955353	415.9004371166229	4.115677118301392	[409.8009970188141, 409.9178249835968, 410.90210795402527, 411.0692229270935, 411.81982493400574, 411.93657207489014, 412.0535979270935, 412.17040514945984, 412.2873589992523, 412.40379095077515, 412.5207941532135, 412.6374571323395, 412.75423097610474, 412.8709239959717, 412.98788714408875, 413.104465007782, 413.22150707244873, 413.3381540775299, 413.4551169872284, 413.5722451210022, 413.67176699638367, 413.9004371166229]	[409.7965676203458, 409.9132342870125, 410.8962342870125, 411.06293428701247, 411.81293428701247, 411.92960095367914, 412.0462676203458, 412.1629342870125, 412.27960095367916, 412.39626762034584, 412.5129342870125, 412.6296009536792, 412.74626762034586, 412.86293428701254, 412.9796009536792, 413.0962676203459, 413.21293428701256, 413.32960095367923, 413.4462676203459, 413.5629342870126, 413.67960095367926, 413.9129342870126]	2021_Jan_26_1323	59.95888668105728	1	1
10	69	FALSE	NV	v	['G', 'J', 'R', 'E', 'P', 'K', 'N', 'M', 'A', 'Z', 'V', 'X', 'W', 'T', 'U', 'S']	[944, 1029, 1587, 904, 1456, 1122, 1335, 1224, 697, 2911, 2245, 4000, 2448, 1888, 2059, 1731]	12	Present	NA	NA	PRESENT	0.1743299961090088	415.8888700008392	417.9011940956116	418.9514110088349	419.30186891555786	422.016802072525	4.115607976913452	[415.907457113266, 416.0243909358978, 417.00906705856323, 417.1754660606384, 417.94304609298706, 418.04339504241943, 418.15980195999146, 418.27682304382324, 418.3934860229492, 418.51051807403564, 418.62726402282715, 418.74389910697937, 418.86058592796326, 418.977441072464, 419.0941410064697, 419.21108293533325, 419.32784605026245, 419.4445559978485, 419.56140899658203, 419.6781461238861, 419.79506492614746, 420.016802072525]	[415.9129342870126, 416.0296009536793, 417.0126009536793, 417.1793009536793, 417.9293009536793, 418.04596762034595, 418.1626342870126, 418.2793009536793, 418.39596762034597, 418.51263428701265, 418.6293009536793, 418.745967620346, 418.86263428701267, 418.97930095367934, 419.095967620346, 419.2126342870127, 419.32930095367936, 419.44596762034604, 419.5626342870127, 419.6793009536794, 419.79596762034606, 420.0293009536794]	2021_Jan_26_1323	59.95888668105728	1	1
10	70	FALSE	NN	v	['P', 'H', 'Z', 'B', 'S', 'M', 'Y', 'C', 'E', 'R', 'G', 'N', 'K', 'T', 'V', 'U']	[1456, 986, 2911, 760, 1731, 1224, 2670, 829, 904, 1587, 944, 1335, 1122, 1888, 2245, 2059]	10	Absent	NA	NA	ABSENT	0.4507730007171631	422.0122740268707	424.01742005348206	424.8344490528106	425.18427896499634	428.13317012786865	4.115750074386597	[422.0308599472046, 422.14766097068787, 423.1319739818573, 423.2986180782318, 424.04951906204224, 424.1664011478424, 424.2831480503082, 424.399836063385, 424.5168149471283, 424.6333849430084, 424.7504301071167, 424.86692214012146, 424.9838330745697, 425.100683927536, 425.2175929546356, 425.3342831134796, 425.45101714134216, 425.56766414642334, 425.68462014198303, 425.8012499809265, 425.9181990623474, 426.13317012786865]	[422.0293009536794, 422.1459676203461, 423.1289676203461, 423.2956676203461, 424.0456676203461, 424.16233428701275, 424.27900095367943, 424.3956676203461, 424.5123342870128, 424.62900095367945, 424.7456676203461, 424.8623342870128, 424.9790009536795, 425.09566762034615, 425.2123342870128, 425.3290009536795, 425.44566762034617, 425.56233428701285, 425.6790009536795, 425.7956676203462, 425.91233428701287, 426.1456676203462]	2021_Jan_26_1323	59.95888668105728	1	1
10	71	FALSE	NN	v	['Y', 'E', 'B', 'T', 'K', 'V', 'N', 'P', 'A', 'H', 'U', 'J', 'W', 'Z', 'M', 'S']	[2670, 904, 760, 1888, 1122, 2245, 1335, 1456, 697, 986, 2059, 1029, 2448, 2911, 1224, 1731]	10	Absent	NA	NA	ABSENT	0.2641599178314209	428.13573694229126	430.13399291038513	430.9512150287628	431.3006889820099	434.2495379447937	4.115545034408569	[428.154324054718, 428.27049708366394, 429.2382071018219, 429.4050681591034, 430.1726779937744, 430.2894160747528, 430.4063141345978, 430.5230610370636, 430.6400270462036, 430.7564890384674, 430.87349104881287, 430.99008107185364, 431.10677909851074, 431.2069299221039, 431.3236720561981, 431.440505027771, 431.557254076004, 431.6740300655365, 431.79086112976074, 431.9076421260834, 432.0245609283447, 432.2495369911194]	[428.1456676203462, 428.2623342870129, 429.2453342870129, 429.4120342870129, 430.1620342870129, 430.27870095367956, 430.39536762034624, 430.5120342870129, 430.6287009536796, 430.74536762034626, 430.86203428701293, 430.9787009536796, 431.0953676203463, 431.21203428701295, 431.32870095367963, 431.4453676203463, 431.562034287013, 431.67870095367965, 431.7953676203463, 431.912034287013, 432.0287009536797, 432.262034287013]	2021_Jan_26_1323	59.95888668105728	1	1
10	72	FALSE	AV	v	['N', 'V', 'P', 'S', 'U', 'C', 'T', 'K', 'H', 'surprise', 'R', 'M', 'X', 'J', 'G', 'A']	[1335, 2245, 1456, 1731, 2059, 829, 1888, 1122, 986, 'stimAuditory/all_stimAuditory/116.wav', 1587, 1224, 4000, 1029, 944, 697]	13	Present	stimAuditory/all_stimAuditory/206.wav	stimVisual/all_stimVisual/222.jpg	PRESENT	0.1966710090637207	434.2417550086975	436.25007009506226	437.4175901412964	437.7671060562134	440.3659031391144	4.115833044052124	[434.26034212112427, 434.3771319389343, 435.3616120815277, 435.5282680988312, 436.2789740562439, 436.3959789276123, 436.5127420425415, 436.62955594062805, 436.7462201118469, 436.8630459308624, 436.9797930717468, 437.0965790748596, 437.21337604522705, 437.3469989299774, 437.4470281600952, 437.5636291503906, 437.68066906929016, 437.797238111496, 437.91428208351135, 438.03121304512024, 438.14772605895996, 438.3659031391144]	[434.262034287013, 434.3787009536797, 435.3617009536797, 435.5284009536797, 436.2784009536797, 436.39506762034637, 436.51173428701304, 436.6284009536797, 436.7450676203464, 436.86173428701306, 436.97840095367974, 437.0950676203464, 437.2117342870131, 437.32840095367976, 437.44506762034644, 437.5617342870131, 437.6784009536798, 437.79506762034646, 437.91173428701313, 438.0284009536798, 438.1450676203465, 438.37840095367983]	2021_Jan_26_1323	59.95888668105728	1	1
10	73	FALSE	NA	v	['V', 'P', 'M', 'T', 'J', 'W', 'B', 'X', 'N', 'S', 'K', 'C', 'E', 'Y', 'R', 'Z']	[2245, 1456, 1224, 1888, 1029, 2448, 760, 4000, 1335, 1731, 1122, 829, 904, 2670, 1587, 2911]	8	Present	NA	NA	PRESENT	0.18636798858642575	440.3647859096527	442.3663251399994	442.9504060745239	443.3001730442047	446.4822700023651	4.115944862365723	[440.3833739757538, 440.50010108947754, 441.4844551086426, 441.65143299102783, 442.402202129364, 442.51893305778503, 442.6359050273895, 442.7525429725647, 442.8694200515747, 442.98618507385254, 443.10301303863525, 443.2198359966278, 443.3364510536194, 443.45325207710266, 443.5700490474701, 443.68691396713257, 443.8038070201874, 443.9206099510193, 444.0372679233551, 444.15423011779785, 444.25411796569824, 444.4822690486908]	[440.37840095367983, 440.4950676203465, 441.4780676203465, 441.6447676203465, 442.3947676203465, 442.5114342870132, 442.62810095367985, 442.7447676203465, 442.8614342870132, 442.97810095367987, 443.09476762034654, 443.2114342870132, 443.3281009536799, 443.44476762034657, 443.56143428701324, 443.6781009536799, 443.7947676203466, 443.91143428701326, 444.02810095367994, 444.1447676203466, 444.2614342870133, 444.49476762034664]	2021_Jan_26_1323	59.95888668105728	1	1
10	74	FALSE	NN	v	['G', 'Y', 'K', 'J', 'B', 'M', 'N', 'S', 'T', 'R', 'V', 'U', 'C', 'Z', 'H', 'P']	[944, 2670, 1122, 1029, 760, 1224, 1335, 1731, 1888, 1587, 2245, 2059, 829, 2911, 986, 1456]	14	Absent	NA	NA	ABSENT	0.3907239437103271	446.4711380004883	448.4828190803528	449.76652002334595	450.1170380115509	452.5986371040344	4.115818023681641	[446.4897241592407, 446.6067340373993, 447.59108901023865, 447.75786900520325, 448.5257661342621, 448.6255941390991, 448.74226808547974, 448.8591151237488, 448.9757571220398, 449.09259009361267, 449.20935010910034, 449.32630014419556, 449.4427990913391, 449.55985403060913, 449.67661714553833, 449.7934801578522, 449.9101700782776, 450.0268380641937, 450.14377307891846, 450.2605240345001, 450.3774139881134, 450.5986371040344]	[446.49476762034664, 446.6114342870133, 447.5944342870133, 447.7611342870133, 448.5111342870133, 448.62780095368, 448.74446762034665, 448.86113428701333, 448.97780095368, 449.0944676203467, 449.21113428701335, 449.32780095368, 449.4444676203467, 449.5611342870134, 449.67780095368005, 449.7944676203467, 449.9111342870134, 450.02780095368007, 450.14446762034675, 450.2611342870134, 450.3778009536801, 450.61113428701344]	2021_Jan_26_1323	59.95888668105728	1	1
10	75	FALSE	NA	v	['K', 'G', 'R', 'J', 'Z', 'H', 'A', 'T', 'X', 'W', 'Y', 'U', 'M', 'N', 'V', 'C']	[1122, 944, 1587, 1029, 2911, 986, 697, 1888, 4000, 2448, 2670, 2059, 1224, 1335, 2245, 829]	9	Present	NA	NA	ABSENT	0.15514707565307617	452.5943751335144	454.5992410182953	455.2995750904083	455.64949202537537	458.7150020599365	4.115761041641235	[452.61296105384827, 452.7297179698944, 453.7142469882965, 453.8809630870819, 454.63183403015137, 454.74874114990234, 454.865473985672, 454.98234701156616, 455.09894704818726, 455.21573996543884, 455.33250999450684, 455.44918608665466, 455.5661461353302, 455.68286204338074, 455.7997500896454, 455.91649413108826, 456.03337597846985, 456.15009808540344, 456.2668650150299, 456.3835361003876, 456.50040197372437, 456.71500396728516]	[452.61113428701344, 452.7278009536801, 453.7108009536801, 453.8775009536801, 454.6275009536801, 454.7441676203468, 454.86083428701346, 454.97750095368013, 455.0941676203468, 455.2108342870135, 455.32750095368016, 455.44416762034683, 455.5608342870135, 455.6775009536802, 455.79416762034685, 455.91083428701353, 456.0275009536802, 456.1441676203469, 456.26083428701355, 456.3775009536802, 456.4941676203469, 456.72750095368025]	2021_Jan_26_1323	59.95888668105728	1	1
10	76	FALSE	NN	v	['C', 'Y', 'U', 'E', 'N', 'Z', 'W', 'J', 'R', 'G', 'K', 'V', 'T', 'B', 'H', 'A']	[829, 2670, 2059, 904, 1335, 2911, 2448, 1029, 1587, 944, 1122, 2245, 1888, 760, 986, 697]	12	Absent	NA	NA	ABSENT	0.24037718772888184	458.7179751396179	460.71550011634827	461.76648807525635	462.1160399913788	464.83137011528015	4.115869998931885	[458.7365610599518, 458.8528571128845, 459.8204801082611, 459.9874711036682, 460.7549331188202, 460.87165808677673, 460.98863792419434, 461.1054890155792, 461.2221670150757, 461.3221459388733, 461.4388499259949, 461.5556290149689, 461.6723909378052, 461.80608010292053, 461.906044960022, 462.0228409767151, 462.1396131515503, 462.2564649581909, 462.3732500076294, 462.48998403549194, 462.607008934021, 462.83137106895447]	[458.72750095368025, 458.8441676203469, 459.8271676203469, 459.9938676203469, 460.7438676203469, 460.8605342870136, 460.97720095368027, 461.09386762034694, 461.2105342870136, 461.3272009536803, 461.44386762034696, 461.56053428701364, 461.6772009536803, 461.793867620347, 461.91053428701366, 462.02720095368034, 462.143867620347, 462.2605342870137, 462.37720095368036, 462.49386762034703, 462.6105342870137, 462.84386762034705]	2021_Jan_26_1323	59.95888668105728	1	1
10	77	FALSE	AA	v	['C', 'B', 'N', 'G', 'S', 'U', 'Y', 'surprise', 'H', 'J', 'X', 'W', 'Z', 'A', 'R', 'V']	[829, 760, 1335, 944, 1731, 2059, 2670, 'stimAuditory/all_stimAuditory/122.wav', 986, 1029, 4000, 2448, 2911, 697, 1587, 2245]	11	Present	stimAuditory/all_stimAuditory/118.wav	stimVisual/all_stimVisual/115.jpg	PRESENT	0.4290628433227539	464.8241500854492	466.832072019577	467.76573395729065	468.11575293540955	470.9477369785309	4.115664958953857	[464.8427369594574, 464.9594841003418, 465.94385600090027, 466.1105320453644, 466.8613440990448, 466.97811007499695, 467.0950050354004, 467.21168208122253, 467.32855796813965, 467.4454779624939, 467.5619671344757, 467.69562911987305, 467.79567313194275, 467.91242814064026, 468.02971506118774, 468.1460340023041, 468.2629871368408, 468.3796010017395, 468.4965319633484, 468.6132011413574, 468.7300570011139, 468.9477369785309]	[464.84386762034705, 464.96053428701373, 465.94353428701373, 466.1102342870137, 466.8602342870137, 466.9769009536804, 467.0935676203471, 467.21023428701375, 467.3269009536804, 467.4435676203471, 467.56023428701377, 467.67690095368044, 467.7935676203471, 467.9102342870138, 468.02690095368047, 468.14356762034714, 468.2602342870138, 468.3769009536805, 468.49356762034716, 468.61023428701384, 468.7269009536805, 468.96023428701386]	2021_Jan_26_1323	59.95888668105728	1	1
10	78	FALSE	NA	v	['W', 'Z', 'U', 'N', 'H', 'P', 'C', 'E', 'K', 'G', 'B', 'J', 'S', 'X', 'R', 'Y']	[2448, 2911, 2059, 1335, 986, 1456, 829, 904, 1122, 944, 760, 1029, 1731, 4000, 1587, 2670]	14	Present	NA	NA	PRESENT	0.25032591819763184	470.9469470977783	472.9482491016388	474.2322950363159	474.5826280117035	477.0641031265259	4.115854024887085	[470.9655330181122, 471.08246302604675, 472.06707310676575, 472.23379611968994, 472.9845881462097, 473.1012029647827, 473.21820402145386, 473.33493208885193, 473.45187497138977, 473.5684950351715, 473.68543004989624, 473.8021709918976, 473.9187180995941, 474.0356299877167, 474.15243315696716, 474.26922512054443, 474.3859751224518, 474.5029950141907, 474.6196210384369, 474.73651099205017, 474.83653807640076, 475.0641031265259]	[470.96023428701386, 471.07690095368054, 472.05990095368054, 472.22660095368053, 472.97660095368053, 473.0932676203472, 473.2099342870139, 473.32660095368055, 473.4432676203472, 473.5599342870139, 473.6766009536806, 473.79326762034725, 473.9099342870139, 474.0266009536806, 474.1432676203473, 474.25993428701395, 474.3766009536806, 474.4932676203473, 474.60993428701397, 474.72660095368065, 474.8432676203473, 475.07660095368067]	2021_Jan_26_1323	59.95888668105728	1	1
10	79	FALSE	NN	v	['M', 'S', 'G', 'N', 'B', 'E', 'A', 'R', 'J', 'K', 'U', 'C', 'P', 'W', 'Z', 'V']	[1224, 1731, 944, 1335, 760, 904, 697, 1587, 1029, 1122, 2059, 829, 1456, 2448, 2911, 2245]	12	Absent	NA	NA	ABSENT	0.8467721939086914	477.0535809993744	479.06469106674194	480.1151170730591	480.4649760723114	483.1804699897766	4.115778923034668	[477.07216715812683, 477.1891689300537, 478.1735999584198, 478.3401539325714, 479.0909061431885, 479.2079031467438, 479.3245451450348, 479.44127798080444, 479.55812096595764, 479.67475295066833, 479.7916431427002, 479.9083421230316, 480.02532601356506, 480.1421880722046, 480.2588801383972, 480.37569093704224, 480.49256706237793, 480.60927295684814, 480.7261619567871, 480.8427200317383, 480.9597101211548, 481.1804699897766]	[477.07660095368067, 477.19326762034734, 478.17626762034735, 478.34296762034734, 479.09296762034734, 479.209634287014, 479.3263009536807, 479.44296762034736, 479.55963428701403, 479.6763009536807, 479.7929676203474, 479.90963428701406, 480.02630095368073, 480.1429676203474, 480.2596342870141, 480.37630095368075, 480.49296762034743, 480.6096342870141, 480.7263009536808, 480.84296762034745, 480.9596342870141, 481.1929676203475]	2021_Jan_26_1323	59.95888668105728	1	1
