participant	trial_num	practice	task	condition	RSVP	RAP	probePos	probe_presence	surprise_sound	surprise_img	probe_response	probe_resp_time	first_fixation_time	trial_start_time	surprise_start_time	probe_start_time	trial_end_time	trial_duration	actualEventTimes	plannedEventTimes	date	framerate	marker_vol	RAP_vol
8	1	FALSE	NA	v	['N', 'J', 'E', 'U', 'G', 'P', 'H', 'X', 'B', 'Y', 'W', 'V', 'A', 'Z', 'C', 'S']	[1335, 1029, 904, 2059, 944, 1456, 986, 4000, 760, 2670, 2448, 2245, 697, 2911, 829, 1731]	8	Present	NA	NA	PRESENT	0.25464892387390137	2.1457672119140625e-6	2.002261161804199	2.5828611850738525	2.93385910987854	6.10387110710144	4.101609945297241	[0.007596015930175781, 0.12454819679260254, 1.1085891723632812, 1.2587451934814453, 2.026344060897827, 2.1432690620422363, 2.2600560188293457, 2.376936197280884, 2.4934751987457275, 2.6103320121765137, 2.727173089981079, 2.8440229892730713, 2.9607651233673096, 3.077550172805786, 3.1943039894104004, 3.311174154281616, 3.427788019180298, 3.5445780754089355, 3.66135311126709, 3.7783091068267822, 3.8782901763916016, 4.10387110710144]	[2.1457672119140625e-06, 0.11666881243387857, 1.0996688124338785, 1.2663688124338786, 2.0163688124338783, 2.133035479100545, 2.2497021457672117, 2.3663688124338784, 2.483035479100545, 2.599702145767212, 2.7163688124338785, 2.833035479100545, 2.949702145767212, 3.0663688124338786, 3.1830354791005453, 3.299702145767212, 3.4163688124338787, 3.5330354791005454, 3.649702145767212, 3.7663688124338788, 3.8830354791005455, 4.116368812433879]	2020_Nov_27_1540	59.85330296647659	1	1
8	2	FALSE	NV	v	['G', 'J', 'N', 'K', 'U', 'A', 'Z', 'Y', 'W', 'X', 'E', 'V', 'T', 'R', 'C', 'H']	[944, 1029, 1335, 1122, 2059, 697, 2911, 2670, 2448, 4000, 904, 2245, 1888, 1587, 829, 986]	10	Present	NA	NA	PRESENT	0.23510408401489255	6.106908082962036	8.115431070327759	8.932278156280518	9.28249716758728	12.220238208770752	4.104807138442993	[6.114502191543579, 6.230740070343018, 7.215285062789917, 7.382081031799316, 8.132896184921265, 8.249637126922607, 8.366607189178467, 8.483362197875977, 8.60017704963684, 8.71686601638794, 8.833794116973877, 8.950514078140259, 9.06722903251648, 9.184037208557129, 9.300842046737671, 9.417625188827515, 9.534399032592773, 9.651198148727417, 9.76787805557251, 9.884596109390259, 10.001561164855957, 10.220238208770752]	[6.116368812433879, 6.233035479100545, 7.216035479100545, 7.382735479100544, 8.132735479100544, 8.249402145767212, 8.366068812433879, 8.482735479100546, 8.599402145767213, 8.71606881243388, 8.832735479100547, 8.949402145767214, 9.066068812433882, 9.182735479100549, 9.299402145767216, 9.416068812433883, 9.53273547910055, 9.649402145767217, 9.766068812433884, 9.882735479100552, 9.999402145767219, 10.232735479100551]	2020_Nov_27_1540	59.85330296647659	1	1
8	3	FALSE	NA	v	['E', 'V', 'Y', 'M', 'T', 'K', 'Z', 'X', 'N', 'H', 'P', 'G', 'R', 'W', 'J', 'B']	[904, 2245, 2670, 1224, 1888, 1122, 2911, 4000, 1335, 986, 1456, 944, 1587, 2448, 1029, 760]	8	Present	NA	NA	PRESENT	0.2005620002746582	12.22991704940796	14.231590986251833	14.815421104431152	15.165261030197144	18.33660316467285	4.1050121784210205	[12.237511157989502, 12.354258060455322, 13.338469982147217, 13.505191087722778, 14.255920171737671, 14.373028039932251, 14.489904165267944, 14.60636019706726, 14.723633050918579, 14.839987993240356, 14.956956148147583, 15.073719024658203, 15.190333127975464, 15.307362079620361, 15.423965215682983, 15.540907144546509, 15.65750503540039, 15.774358987808228, 15.891220092773438, 16.008031129837036, 16.107993125915527, 16.336604118347168]	[12.232735479100551, 12.349402145767218, 13.332402145767219, 13.49910214576722, 14.24910214576722, 14.365768812433886, 14.482435479100554, 14.59910214576722, 14.715768812433888, 14.832435479100555, 14.949102145767222, 15.06576881243389, 15.182435479100556, 15.299102145767224, 15.41576881243389, 15.532435479100558, 15.649102145767225, 15.765768812433892, 15.88243547910056, 15.999102145767226, 16.115768812433892, 16.349102145767226]	2020_Nov_27_1540	59.85330296647659	1	1
8	4	FALSE	NA	v	['W', 'M', 'G', 'B', 'U', 'J', 'H', 'S', 'R', 'A', 'N', 'X', 'Y', 'P', 'T', 'C']	[2448, 1224, 944, 760, 2059, 1029, 986, 1731, 1587, 697, 1335, 4000, 2670, 1456, 1888, 829]	12	Present	NA	NA	PRESENT	0.27703404426574707	18.336210012435913	20.348026990890503	21.39832901954651	21.74848198890686	24.45297122001648	4.104944229125977	[18.343804121017456, 18.460455179214478, 19.44492506980896, 19.611850023269653, 20.379330158233643, 20.47942304611206, 20.59615421295166, 20.712982177734375, 20.829833984375, 20.9465811252594, 21.063420057296753, 21.180214166641235, 21.296852111816406, 21.413859128952026, 21.53041410446167, 21.647361040115356, 21.76415705680847, 21.880966186523438, 21.997595071792603, 22.114574193954468, 22.231478214263916, 22.452970027923584]	[18.349102145767226, 18.465768812433893, 19.448768812433894, 19.615468812433893, 20.365468812433893, 20.48213547910056, 20.598802145767227, 20.715468812433894, 20.83213547910056, 20.948802145767228, 21.065468812433895, 21.182135479100562, 21.29880214576723, 21.415468812433897, 21.532135479100564, 21.64880214576723, 21.765468812433898, 21.882135479100565, 21.998802145767232, 22.1154688124339, 22.232135479100567, 22.4654688124339]	2020_Nov_27_1540	59.85330296647659	1	1
8	5	FALSE	NV	v	['Z', 'U', 'M', 'H', 'A', 'P', 'W', 'C', 'E', 'R', 'J', 'T', 'X', 'B', 'N', 'S']	[2911, 2059, 1224, 986, 697, 1456, 2448, 829, 904, 1587, 1029, 1888, 4000, 760, 1335, 1731]	13	Present	NA	NA	PRESENT	0.1696619987487793	24.459492206573486	26.464383125305176	27.63143515586853	27.98157501220703	30.569338083267212	4.104954957962036	[24.46708607673645, 24.583893060684204, 25.568502187728882, 25.734897136688232, 26.485740184783936, 26.6027250289917, 26.72001004219055, 26.83637499809265, 26.952893018722534, 27.069886207580566, 27.186706066131592, 27.303283214569092, 27.420162200927734, 27.536919116973877, 27.653842210769653, 27.770528078079224, 27.887315034866333, 28.003912210464478, 28.12083101272583, 28.23781418800354, 28.354523181915283, 28.569338083267212]	[24.4654688124339, 24.582135479100568, 25.56513547910057, 25.731835479100567, 26.481835479100567, 26.598502145767235, 26.7151688124339, 26.83183547910057, 26.948502145767236, 27.065168812433903, 27.18183547910057, 27.298502145767237, 27.415168812433905, 27.53183547910057, 27.64850214576724, 27.765168812433906, 27.881835479100573, 27.99850214576724, 28.115168812433907, 28.231835479100575, 28.34850214576724, 28.581835479100576]	2020_Nov_27_1540	59.85330296647659	1	1
8	6	FALSE	AV	v	['B', 'N', 'T', 'R', 'J', 'U', 'surprise', 'M', 'K', 'X', 'V', 'A', 'S', 'E', 'P', 'C']	[760, 1335, 1888, 1587, 1029, 2059, 'stimAuditory/all_stimAuditory/117.wav', 1224, 1122, 4000, 2245, 697, 1731, 904, 1456, 829]	10	Present	stimAuditory/all_stimAuditory/117.wav	stimVisual/all_stimVisual/110.jpg	ABSENT	0.39896488189697266	30.58252000808716	32.580991983413696	33.3979651927948	33.74840497970581	36.68570399284363	4.104712009429932	[30.5901141166687, 30.707138061523438, 31.67460012435913, 31.841373205184937, 32.60898399353027, 32.7260479927063, 32.84274411201477, 32.95951318740845, 33.07616305351257, 33.193055152893066, 33.30990815162659, 33.426560163497925, 33.52665615081787, 33.643333196640015, 33.777178049087524, 33.876869201660156, 33.99369502067566, 34.1104850769043, 34.22728705406189, 34.34405016899109, 34.46110510826111, 34.68570399284363]	[30.581835479100576, 30.698502145767243, 31.681502145767244, 31.848202145767242, 32.598202145767246, 32.71486881243391, 32.83153547910058, 32.94820214576725, 33.064868812433915, 33.18153547910058, 33.29820214576725, 33.414868812433916, 33.53153547910058, 33.64820214576725, 33.76486881243392, 33.881535479100584, 33.99820214576725, 34.11486881243392, 34.231535479100586, 34.34820214576725, 34.46486881243392, 34.698202145767254]	2020_Nov_27_1540	59.85330296647659	1	1
8	7	FALSE	NA	v	['G', 'J', 'M', 'H', 'S', 'B', 'R', 'X', 'N', 'P', 'Y', 'C', 'W', 'A', 'E', 'V']	[944, 1029, 1224, 986, 1731, 760, 1587, 4000, 1335, 1456, 2670, 829, 2448, 697, 904, 2245]	8	Present	NA	NA	PRESENT	0.2992889881134033	36.689539194107056	38.69710898399353	39.28119111061096	39.63085603713989	42.80207109451294	4.104962110519409	[36.69713306427002, 36.81343102455139, 37.79794716835022, 37.96456503868103, 38.71553421020508, 38.832470178604126, 38.949059009552, 39.06606411933899, 39.182841062545776, 39.299604177474976, 39.41622614860535, 39.533097982406616, 39.649787187576294, 39.76661515235901, 39.883355140686035, 40.000251054763794, 40.11710000038147, 40.23392105102539, 40.350547075271606, 40.46751308441162, 40.584100008010864, 40.80207109451294]	[36.698202145767254, 36.81486881243392, 37.79786881243392, 37.96456881243392, 38.71456881243392, 38.831235479100584, 38.94790214576725, 39.06456881243392, 39.181235479100586, 39.29790214576725, 39.41456881243392, 39.53123547910059, 39.647902145767254, 39.76456881243392, 39.88123547910059, 39.997902145767256, 40.11456881243392, 40.23123547910059, 40.34790214576726, 40.464568812433924, 40.58123547910059, 40.814568812433926]	2020_Nov_27_1540	59.85330296647659	1	1
8	8	FALSE	NV	v	['V', 'R', 'Y', 'T', 'H', 'P', 'G', 'W', 'X', 'S', 'K', 'N', 'J', 'A', 'Z', 'U']	[2245, 1587, 2670, 1888, 986, 1456, 944, 2448, 4000, 1731, 1122, 1335, 1029, 697, 2911, 2059]	9	Present	NA	NA	PRESENT	0.2728760242462158	42.81221318244934	44.813669204711914	45.51395916938782	45.86401605606079	48.91843819618225	4.104768991470337	[42.81980800628662, 42.93677020072937, 43.92137813568115, 44.08797001838684, 44.83861017227173, 44.95564603805542, 45.072261095047, 45.18925714492798, 45.30586004257202, 45.42265605926514, 45.53953003883362, 45.656445026397705, 45.773118019104004, 45.8898241519928, 46.00672507286072, 46.1233971118927, 46.24057412147522, 46.35711407661438, 46.473860025405884, 46.590559005737305, 46.69064211845398, 46.91843819618225]	[42.814568812433926, 42.93123547910059, 43.91423547910059, 44.08093547910059, 44.83093547910059, 44.947602145767256, 45.06426881243392, 45.18093547910059, 45.29760214576726, 45.414268812433924, 45.53093547910059, 45.64760214576726, 45.764268812433926, 45.88093547910059, 45.99760214576726, 46.11426881243393, 46.230935479100594, 46.34760214576726, 46.46426881243393, 46.580935479100596, 46.69760214576726, 46.9309354791006]	2020_Nov_27_1540	59.85330296647659	1	1
8	9	FALSE	VV	v	['P', 'S', 'A', 'T', 'M', 'G', 'surprise', 'V', 'B', 'X', 'U', 'Z', 'H', 'K', 'W', 'Y']	[1456, 1731, 697, 1888, 1224, 944, 'stimAuditory/all_stimAuditory/202.wav', 2245, 760, 4000, 2059, 2911, 986, 1122, 2448, 2670]	10	Present	NA	stimVisual/all_stimVisual/215.jpg	PRESENT	0.3252840042114258	48.91889309883118	50.9300971031189	51.74712300300598	52.09691119194031	55.03480315208435	4.104706048965454	[48.92648720741272, 49.043156147003174, 50.027714014053345, 50.194579124450684, 50.9451060295105, 51.06196117401123, 51.17883920669556, 51.295674085617065, 51.41250014305115, 51.52920913696289, 51.64590811729431, 51.76287817955017, 51.879709005355835, 51.99651503562927, 52.11317014694214, 52.23008918762207, 52.34668016433716, 52.46368718147278, 52.5802640914917, 52.697007179260254, 52.81390619277954, 53.03480410575867]	[48.9309354791006, 49.047602145767264, 50.03060214576726, 50.19730214576726, 50.94730214576726, 51.06396881243393, 51.180635479100594, 51.29730214576726, 51.41396881243393, 51.530635479100596, 51.64730214576726, 51.76396881243393, 51.8806354791006, 51.997302145767264, 52.11396881243393, 52.2306354791006, 52.347302145767266, 52.46396881243393, 52.5806354791006, 52.69730214576727, 52.813968812433934, 53.04730214576727]	2020_Nov_27_1540	59.85330296647659	1	1
8	10	FALSE	NA	v	['Y', 'S', 'K', 'Z', 'J', 'U', 'R', 'V', 'P', 'X', 'W', 'N', 'A', 'B', 'E', 'M']	[2670, 1731, 1122, 2911, 1029, 2059, 1587, 2245, 1456, 4000, 2448, 1335, 697, 760, 904, 1224]	10	Present	NA	NA	PRESENT	0.2977559566497803	55.042198181152344	57.04637098312378	57.86325216293335	58.21372604370117	61.15117120742798	4.104800224304199	[55.04980421066284, 55.16653299331665, 56.150920152664185, 56.318000078201294, 57.068361043930054, 57.18535017967224, 57.301963090896606, 57.41894602775574, 57.535585165023804, 57.65251708030701, 57.7691969871521, 57.88612914085388, 58.00297999382019, 58.11953902244568, 58.23661518096924, 58.35324811935425, 58.46996021270752, 58.58673310279846, 58.703466176986694, 58.820213079452515, 58.93717908859253, 59.15117120742798]	[55.04730214576727, 55.163968812433936, 56.14696881243393, 56.31366881243393, 57.06366881243393, 57.1803354791006, 57.297002145767266, 57.41366881243393, 57.5303354791006, 57.64700214576727, 57.763668812433934, 57.8803354791006, 57.99700214576727, 58.113668812433936, 58.2303354791006, 58.34700214576727, 58.46366881243394, 58.580335479100604, 58.69700214576727, 58.81366881243394, 58.930335479100606, 59.16366881243394]	2020_Nov_27_1540	59.85330296647659	1	1
8	11	FALSE	NA	v	['U', 'M', 'N', 'Z', 'V', 'K', 'R', 'T', 'G', 'Y', 'E', 'X', 'A', 'H', 'C', 'P']	[2059, 1224, 1335, 2911, 2245, 1122, 1587, 1888, 944, 2670, 904, 4000, 697, 986, 829, 1456]	12	Present	NA	NA	PRESENT	0.2712078094482422	61.165157079696655	63.16273999214173	64.21369004249573	64.56336903572083	67.26753807067871	4.104798078536987	[61.1727511882782, 61.27287006378174, 62.257227182388306, 62.42432618141174, 63.19165015220642, 63.308425188064575, 63.408475160598755, 63.525267124176025, 63.64207720756531, 63.75881314277649, 63.875678062438965, 63.992486000061035, 64.1092050075531, 64.22600412368774, 64.34276819229126, 64.45959806442261, 64.57637310028076, 64.69328308105469, 64.80989599227905, 64.9268901348114, 65.0435791015625, 65.26753902435303]	[61.16366881243394, 61.28033547910061, 62.263335479100604, 62.4300354791006, 63.1800354791006, 63.29670214576727, 63.41336881243394, 63.530035479100604, 63.64670214576727, 63.76336881243394, 63.880035479100606, 63.99670214576727, 64.11336881243393, 64.2300354791006, 64.34670214576725, 64.46336881243391, 64.58003547910057, 64.69670214576723, 64.8133688124339, 64.93003547910055, 65.04670214576721, 65.28003547910055]	2020_Nov_27_1540	59.85330296647659	1	1
8	12	FALSE	AA	v	['C', 'B', 'U', 'H', 'R', 'surprise', 'P', 'W', 'X', 'K', 'G', 'Z', 'J', 'T', 'Y', 'S']	[829, 760, 2059, 986, 1587, 'stimAuditory/all_stimAuditory/214.wav', 1456, 2448, 4000, 1122, 944, 2911, 1029, 1888, 2670, 1731]	9	Present	stimAuditory/all_stimAuditory/202.wav	stimVisual/all_stimVisual/123.jpg	PRESENT	0.09969091415405272	67.27215313911438	69.27918601036072	69.97967100143433	70.32941508293152	73.38390517234802	4.104719161987305	[67.27974700927734, 67.3961091041565, 68.38051009178162, 68.54744005203247, 69.2980740070343, 69.41507506370544, 69.53167700767517, 69.64857721328735, 69.76537108421326, 69.89879012107849, 69.9989721775055, 70.11582112312317, 70.23254013061523, 70.34926915168762, 70.46610903739929, 70.58280515670776, 70.69973111152649, 70.81637501716614, 70.93327403068542, 71.05010604858398, 71.1668770313263, 71.38390517234802]	[67.28003547910055, 67.39670214576721, 68.37970214576721, 68.54640214576722, 69.29640214576722, 69.41306881243388, 69.52973547910054, 69.6464021457672, 69.76306881243386, 69.87973547910052, 69.99640214576718, 70.11306881243384, 70.2297354791005, 70.34640214576716, 70.46306881243382, 70.57973547910048, 70.69640214576714, 70.8130688124338, 70.92973547910046, 71.04640214576712, 71.16306881243378, 71.39640214576711]	2020_Nov_27_1540	59.85330296647659	1	1
8	13	FALSE	NA	v	['Y', 'J', 'S', 'N', 'V', 'G', 'H', 'B', 'X', 'Z', 'K', 'P', 'C', 'A', 'T', 'M']	[2670, 1029, 1731, 1335, 2245, 944, 986, 760, 4000, 2911, 1122, 1456, 829, 697, 1888, 1224]	9	Present	NA	NA	ABSENT	0.28098106384277344	73.39490509033203	75.39531016349792	76.09570002555847	76.44559717178345	79.50027012825012	4.104959964752197	[73.40249919891357, 73.51937198638916, 74.503653049469, 74.67049908638, 75.42126512527466, 75.53812313079834, 75.65501618385315, 75.77188515663147, 75.88863706588745, 76.00540709495544, 76.12224411964417, 76.23904514312744, 76.40574717521667, 76.47247099876404, 76.58939218521118, 76.70625615119934, 76.82275199890137, 76.93955206871033, 77.05650305747986, 77.17331314086914, 77.27363610267639, 77.50027012825012]	[73.39640214576711, 73.51306881243377, 74.49606881243378, 74.66276881243378, 75.41276881243378, 75.52943547910044, 75.6461021457671, 75.76276881243376, 75.87943547910042, 75.99610214576708, 76.11276881243374, 76.2294354791004, 76.34610214576706, 76.46276881243372, 76.57943547910038, 76.69610214576704, 76.8127688124337, 76.92943547910036, 77.04610214576702, 77.16276881243368, 77.27943547910034, 77.51276881243368]	2020_Nov_27_1540	59.85330296647659	1	1
8	14	FALSE	NA	v	['R', 'S', 'B', 'H', 'Y', 'K', 'P', 'E', 'U', 'Z', 'X', 'A', 'G', 'W', 'M', 'T']	[1587, 1731, 760, 986, 2670, 1122, 1456, 904, 2059, 2911, 4000, 697, 944, 2448, 1224, 1888]	11	Present	NA	NA	PRESENT	0.15761399269104004	79.50132918357849	81.51155614852905	82.4454071521759	82.7956690788269	85.61663818359375	4.105082035064697	[79.50892210006714, 79.62582421302795, 80.61034512519836, 80.7772331237793, 81.52775716781616, 81.64483308792114, 81.76138019561768, 81.87842917442322, 81.99516916275024, 82.11199021339417, 82.22856712341309, 82.34539413452148, 82.46223306655884, 82.57912611961365, 82.6959490776062, 82.81265807151794, 82.92931509017944, 83.04634404182434, 83.16297006607056, 83.27984619140625, 83.3965539932251, 83.61663699150085]	[79.51276881243368, 79.62943547910034, 80.61243547910034, 80.77913547910035, 81.52913547910035, 81.64580214576701, 81.76246881243367, 81.87913547910033, 81.99580214576699, 82.11246881243365, 82.22913547910031, 82.34580214576697, 82.46246881243363, 82.57913547910029, 82.69580214576695, 82.81246881243361, 82.92913547910027, 83.04580214576693, 83.16246881243359, 83.27913547910025, 83.39580214576691, 83.62913547910024]	2020_Nov_27_1540	59.85330296647659	1	1
8	15	FALSE	VA	v	['M', 'Z', 'A', 'Y', 'K', 'surprise', 'R', 'C', 'X', 'T', 'H', 'G', 'W', 'S', 'N', 'P']	[1224, 2911, 697, 2670, 1122, 'stimAuditory/all_stimAuditory/103.wav', 1587, 829, 4000, 1888, 986, 944, 2448, 1731, 1335, 1456]	9	Present	NA	stimVisual/all_stimVisual/113.jpg	PRESENT	0.11401104927062988	85.62463998794556	87.62799501419067	88.3285870552063	88.6788420677185	91.73300409317017	4.105009078979492	[85.63223314285278, 85.74907302856445, 86.7334361076355, 86.90039610862732, 87.6513900756836, 87.76797819137573, 87.88461899757385, 88.00134420394897, 88.11818504333496, 88.23533010482788, 88.35174417495728, 88.46874499320984, 88.58543515205383, 88.70221519470215, 88.81904101371765, 88.93595218658447, 89.05274415016174, 89.1695351600647, 89.28621315956116, 89.40289807319641, 89.51973414421082, 89.73300504684448]	[85.62913547910024, 85.7458021457669, 86.7288021457669, 86.89550214576691, 87.64550214576691, 87.76216881243357, 87.87883547910023, 87.99550214576689, 88.11216881243355, 88.22883547910021, 88.34550214576687, 88.46216881243353, 88.57883547910019, 88.69550214576685, 88.81216881243351, 88.92883547910017, 89.04550214576683, 89.16216881243349, 89.27883547910015, 89.39550214576681, 89.51216881243347, 89.7455021457668]	2020_Nov_27_1540	59.85330296647659	1	1
8	16	FALSE	NV	v	['G', 'E', 'K', 'P', 'S', 'R', 'U', 'N', 'C', 'X', 'M', 'B', 'Z', 'W', 'H', 'J']	[944, 904, 1122, 1456, 1731, 1587, 2059, 1335, 829, 4000, 1224, 760, 2911, 2448, 986, 1029]	10	Present	NA	NA	PRESENT	0.22331881523132324	91.7311110496521	93.74431610107422	94.56136107444765	94.91183805465698	97.84937119483948	4.105055093765259	[91.73870515823364, 91.85546708106995, 92.83987498283386, 93.0068871974945, 93.77426719665527, 93.8742790222168, 93.99106311798096, 94.10788702964783, 94.22476315498352, 94.34157705307007, 94.45828413963318, 94.5752182006836, 94.69180512428284, 94.80874800682068, 94.9254732131958, 95.04252600669861, 95.15905499458313, 95.27593302726746, 95.39266920089722, 95.50956916809082, 95.62622809410095, 95.8493721485138]	[91.7455021457668, 91.86216881243347, 92.84516881243347, 93.01186881243348, 93.76186881243348, 93.87853547910014, 93.9952021457668, 94.11186881243346, 94.22853547910012, 94.34520214576678, 94.46186881243344, 94.5785354791001, 94.69520214576676, 94.81186881243342, 94.92853547910008, 95.04520214576674, 95.1618688124334, 95.27853547910006, 95.39520214576672, 95.51186881243338, 95.62853547910004, 95.86186881243337]	2020_Nov_27_1540	59.85330296647659	1	1
8	17	FALSE	NV	v	['G', 'N', 'A', 'R', 'E', 'P', 'B', 'Y', 'T', 'M', 'U', 'H', 'X', 'V', 'Z', 'S']	[944, 1335, 697, 1587, 904, 1456, 760, 2670, 1888, 1224, 2059, 986, 4000, 2245, 2911, 1731]	13	Present	NA	NA	PRESENT	0.2920041084289551	97.85479998588562	99.86090111732484	101.02781414985655	101.3778200149536	103.9657380580902	4.104836940765381	[97.86239314079285, 97.97887516021729, 98.96328902244568, 99.13016700744629, 99.88068699836731, 99.99748301506042, 100.11434507369995, 100.23112201690674, 100.34796214103699, 100.4646520614624, 100.58145713806152, 100.69854402542114, 100.81507706642151, 100.93212103843689, 101.04881501197815, 101.16567802429199, 101.28248906135559, 101.39913320541382, 101.51589107513428, 101.63268613815308, 101.74961304664612, 101.9657371044159]	[97.86186881243337, 97.97853547910003, 98.96153547910004, 99.12823547910004, 99.87823547910004, 99.9949021457667, 100.11156881243336, 100.22823547910002, 100.34490214576668, 100.46156881243334, 100.5782354791, 100.69490214576666, 100.81156881243332, 100.92823547909998, 101.04490214576664, 101.1615688124333, 101.27823547909996, 101.39490214576662, 101.51156881243328, 101.62823547909994, 101.7449021457666, 101.97823547909994]	2020_Nov_27_1540	59.85330296647659	1	1
8	18	FALSE	NA	v	['U', 'J', 'Y', 'V', 'N', 'K', 'B', 'R', 'Z', 'E', 'X', 'S', 'M', 'H', 'T', 'C']	[2059, 1029, 2670, 2245, 1335, 1122, 760, 1587, 2911, 904, 4000, 1731, 1224, 986, 1888, 829]	11	Present	NA	NA	PRESENT	0.2731590270996094	103.9775722026825	105.97754311561584	106.91086912155151	107.26105117797852	110.08210515975952	4.104562044143677	[103.98516607284546, 104.10209798812866, 105.08627200126648, 105.25316119194031, 106.00409698486328, 106.12094616889954, 106.23766613006592, 106.35435819625854, 106.47122502326965, 106.5880401134491, 106.70479607582092, 106.82144498825073, 106.93838310241699, 107.05504202842712, 107.1720540523529, 107.28909111022949, 107.40562105178833, 107.52247309684753, 107.6392412185669, 107.7558171749115, 107.85585904121399, 108.0821042060852]	[103.97823547909994, 104.0949021457666, 105.0779021457666, 105.2446021457666, 105.9946021457666, 106.11126881243327, 106.22793547909993, 106.34460214576659, 106.46126881243325, 106.5779354790999, 106.69460214576657, 106.81126881243323, 106.92793547909989, 107.04460214576655, 107.1612688124332, 107.27793547909987, 107.39460214576653, 107.51126881243319, 107.62793547909985, 107.7446021457665, 107.86126881243317, 108.0946021457665]	2020_Nov_27_1540	59.85330296647659	1	1
8	19	FALSE	NN	v	['P', 'N', 'R', 'J', 'V', 'B', 'H', 'G', 'U', 'T', 'W', 'S', 'K', 'C', 'M', 'Y']	[1456, 1335, 1587, 1029, 2245, 760, 986, 944, 2059, 1888, 2448, 1731, 1122, 829, 1224, 2670]	12	Absent	NA	NA	ABSENT	0.23773598670959473	110.08421421051024	112.09357500076294	113.14380598068236	113.49386501312256	116.19847106933594	4.104896068572998	[110.0918071269989, 110.20857310295105, 111.19307804107666, 111.35980010032654, 112.11046099662781, 112.22730708122253, 112.34423613548279, 112.46094298362732, 112.57766103744507, 112.69436311721802, 112.81112217903137, 112.92820405960083, 113.0448009967804, 113.16183805465698, 113.27850699424744, 113.3951530456543, 113.5120460987091, 113.62871718406677, 113.74557209014893, 113.86238813400269, 113.9792320728302, 114.19847011566162]	[110.0946021457665, 110.21126881243316, 111.19426881243317, 111.36096881243317, 112.11096881243317, 112.22763547909983, 112.34430214576649, 112.46096881243315, 112.57763547909981, 112.69430214576647, 112.81096881243313, 112.92763547909979, 113.04430214576645, 113.16096881243311, 113.27763547909977, 113.39430214576643, 113.51096881243309, 113.62763547909975, 113.74430214576641, 113.86096881243307, 113.97763547909973, 114.21096881243307]	2020_Nov_27_1540	59.85330296647659	1	1
8	20	FALSE	VA	v	['P', 'K', 'C', 'A', 'T', 'R', 'H', 'U', 'surprise', 'S', 'Y', 'X', 'N', 'V', 'B', 'G']	[1456, 1122, 829, 697, 1888, 1587, 986, 2059, 'stimAuditory/all_stimAuditory/110.wav', 1731, 2670, 4000, 1335, 2245, 760, 944]	12	Present	NA	stimVisual/all_stimVisual/250.jpg	PRESENT	0.3542139530181885	116.20720505714417	118.20990014076231	119.26047015190125	119.6104061603546	122.31483817100523	4.10493803024292	[116.21480011940002, 116.33173203468323, 117.31641221046448, 117.48294711112976, 118.23363208770752, 118.3505802154541, 118.46749806404114, 118.58414912223816, 118.70088219642639, 118.81762218475342, 118.93453311920166, 119.05129814147949, 119.16805100440979, 119.28482818603516, 119.40179800987244, 119.5184919834137, 119.63537001609802, 119.75194215774536, 119.86899304389954, 119.98558807373047, 120.1023371219635, 120.31483817100525]	[116.21096881243307, 116.32763547909973, 117.31063547909973, 117.47733547909974, 118.22733547909974, 118.3440021457664, 118.46066881243306, 118.57733547909972, 118.69400214576638, 118.81066881243304, 118.9273354790997, 119.04400214576636, 119.16066881243302, 119.27733547909968, 119.39400214576634, 119.510668812433, 119.62733547909966, 119.74400214576632, 119.86066881243298, 119.97733547909964, 120.0940021457663, 120.32733547909963]	2020_Nov_27_1540	59.85330296647659	1	1
8	21	FALSE	NV	v	['C', 'P', 'W', 'J', 'K', 'H', 'S', 'E', 'A', 'X', 'Z', 'T', 'V', 'U', 'M', 'B']	[829, 1456, 2448, 1029, 1122, 986, 1731, 904, 697, 4000, 2911, 1888, 2245, 2059, 1224, 760]	10	Present	NA	NA	PRESENT	0.2155439853668213	122.31370806694032	124.32626605033876	125.1432671546936	125.49349808692932	128.4312040805817	4.10493803024292	[122.32130098342896, 122.43824005126953, 123.42266321182251, 123.58958721160889, 124.35697221755981, 124.4570631980896, 124.5736939907074, 124.69068121910095, 124.8073091506958, 124.9243152141571, 125.04088306427002, 125.15792202949524, 125.27452206611633, 125.3914442062378, 125.50812411308289, 125.62488102912903, 125.74178218841553, 125.85845708847046, 125.9752881526947, 126.09222602844238, 126.20897006988525, 126.43120312690735]	[122.32733547909963, 122.44400214576629, 123.4270021457663, 123.5937021457663, 124.3437021457663, 124.46036881243296, 124.57703547909962, 124.69370214576628, 124.81036881243294, 124.9270354790996, 125.04370214576626, 125.16036881243292, 125.27703547909958, 125.39370214576624, 125.5103688124329, 125.62703547909956, 125.74370214576622, 125.86036881243288, 125.97703547909954, 126.0937021457662, 126.21036881243286, 126.4437021457662]	2020_Nov_27_1540	59.85330296647659	1	1
8	22	FALSE	NV	v	['B', 'Y', 'V', 'Z', 'P', 'J', 'C', 'X', 'H', 'K', 'N', 'T', 'M', 'G', 'W', 'A']	[760, 2670, 2245, 2911, 1456, 1029, 829, 4000, 986, 1122, 1335, 1888, 1224, 944, 2448, 697]	8	Present	NA	NA	PRESENT	0.25200510025024414	128.43745398521423	130.4429030418396	131.026358127594	131.3763391971588	134.54757118225098	4.104668140411377	[128.44504809379578, 128.56143712997437, 129.54590702056885, 129.71254301071167, 130.46337819099426, 130.58018612861633, 130.69694805145264, 130.81394219398499, 130.93069005012512, 131.0475161075592, 131.16434502601624, 131.28095316886902, 131.39782619476318, 131.51450610160828, 131.63146209716797, 131.74809503555298, 131.8649981021881, 131.9818880558014, 132.0984241962433, 132.21516108512878, 132.3321771621704, 132.54756999015808]	[128.4437021457662, 128.56036881243287, 129.54336881243287, 129.71006881243287, 130.46006881243287, 130.57673547909954, 130.6934021457662, 130.8100688124329, 130.92673547909956, 131.04340214576624, 131.1600688124329, 131.27673547909959, 131.39340214576626, 131.51006881243293, 131.6267354790996, 131.74340214576628, 131.86006881243296, 131.97673547909963, 132.0934021457663, 132.21006881243298, 132.32673547909965, 132.56006881243297]	2020_Nov_27_1540	59.85330296647659	1	1
8	23	FALSE	NV	v	['C', 'G', 'P', 'B', 'S', 'U', 'M', 'V', 'A', 'X', 'K', 'N', 'R', 'H', 'T', 'E']	[829, 944, 1456, 760, 1731, 2059, 1224, 2245, 697, 4000, 1122, 1335, 1587, 986, 1888, 904]	10	Present	NA	NA	PRESENT	0.3934190273284912	134.5603311061859	136.5591700077057	137.37594199180603	137.7260720729828	140.6639380455017	4.1047680377960205	[134.56792402267456, 134.68451809883118, 135.65228009223938, 135.81905317306519, 136.5866551399231, 136.7034261226654, 136.8202121257782, 136.93687915802002, 137.05391311645508, 137.17073702812195, 137.28750801086426, 137.4040961265564, 137.52109718322754, 137.62095499038696, 137.75450205802917, 137.85449409484863, 137.97135710716248, 138.10488605499268, 138.2049160003662, 138.32198405265808, 138.4386110305786, 138.6639380455017]	[134.56006881243297, 134.67673547909965, 135.65973547909965, 135.82643547909964, 136.57643547909964, 136.69310214576632, 136.809768812433, 136.92643547909967, 137.04310214576634, 137.15976881243301, 137.2764354790997, 137.39310214576636, 137.50976881243304, 137.6264354790997, 137.7431021457664, 137.85976881243306, 137.97643547909973, 138.0931021457664, 138.20976881243308, 138.32643547909976, 138.44310214576643, 138.67643547909975]	2020_Nov_27_1540	59.85330296647659	1	1
8	24	FALSE	NV	v	['K', 'P', 'A', 'U', 'E', 'N', 'V', 'X', 'J', 'H', 'T', 'S', 'B', 'C', 'Z', 'W']	[1122, 1456, 697, 2059, 904, 1335, 2245, 4000, 1029, 986, 1888, 1731, 760, 829, 2911, 2448]	8	Present	NA	NA	PRESENT	0.34992289543151855	140.66660904884338	142.67549014091492	143.25911617279053	143.6089470386505	146.78030514717102	4.1048150062561035	[140.67420315742493, 140.79103803634644, 141.77571415901184, 141.942321062088, 142.69312119483948, 142.81000113487244, 142.92682218551636, 143.04339909553528, 143.16043710708618, 143.27699208259583, 143.3938171863556, 143.51074600219727, 143.62743020057678, 143.7443971633911, 143.86123204231262, 143.97772908210754, 144.09457516670227, 144.21144199371338, 144.32843017578125, 144.44504404067993, 144.56179308891296, 144.78030610084534]	[140.67643547909975, 140.79310214576643, 141.77610214576643, 141.94280214576642, 142.69280214576642, 142.8094688124331, 142.92613547909977, 143.04280214576644, 143.15946881243312, 143.2761354790998, 143.39280214576647, 143.50946881243314, 143.62613547909982, 143.7428021457665, 143.85946881243316, 143.97613547909984, 144.0928021457665, 144.2094688124332, 144.32613547909986, 144.44280214576654, 144.5594688124332, 144.79280214576653]	2020_Nov_27_1540	59.85330296647659	1	1
8	25	FALSE	NV	v	['B', 'U', 'S', 'A', 'Y', 'V', 'E', 'X', 'H', 'N', 'Z', 'K', 'P', 'J', 'M', 'T']	[760, 2059, 1731, 697, 2670, 2245, 904, 4000, 986, 1335, 2911, 1122, 1456, 1029, 1224, 1888]	8	Present	NA	NA	PRESENT	0.25136804580688477	146.78994917869568	148.79164719581604	149.37548804283142	149.72586512565613	152.89667010307312	4.10502290725708	[146.79754304885864, 146.91446614265442, 147.89883303642273, 148.06569004058838, 148.8166651725769, 148.93301820755005, 149.05010604858398, 149.1668450832367, 149.28367614746094, 149.40028500556946, 149.51701712608337, 149.63388419151306, 149.75063920021057, 149.86744213104248, 149.98447108268738, 150.1010980606079, 150.21826004981995, 150.33465099334717, 150.45139598846436, 150.56819105148315, 150.66827201843262, 150.89667010307312]	[146.79280214576653, 146.9094688124332, 147.8924688124332, 148.0591688124332, 148.8091688124332, 148.92583547909987, 149.04250214576655, 149.15916881243322, 149.2758354790999, 149.39250214576657, 149.50916881243324, 149.62583547909992, 149.7425021457666, 149.85916881243327, 149.97583547909994, 150.09250214576662, 150.2091688124333, 150.32583547909996, 150.44250214576664, 150.5591688124333, 150.6758354791, 150.9091688124333]	2020_Nov_27_1540	59.85330296647659	1	1
8	26	FALSE	NV	v	['Y', 'T', 'R', 'V', 'U', 'P', 'M', 'X', 'H', 'C', 'K', 'A', 'N', 'W', 'E', 'J']	[2670, 1888, 1587, 2245, 2059, 1456, 1224, 4000, 986, 829, 1122, 697, 1335, 2448, 904, 1029]	8	Present	NA	NA	PRESENT	0.14383697509765625	152.89656400680542	154.90811419487	155.4919672012329	155.84196615219116	159.01303720474243	4.1049230098724365	[152.90415716171265, 153.0208601951599, 154.00533604621887, 154.1720130443573, 154.939679145813, 155.03976702690125, 155.15636610984802, 155.2733461856842, 155.3899941444397, 155.50692701339722, 155.62359619140625, 155.74046421051025, 155.85714316368103, 155.97414898872375, 156.0908591747284, 156.20770812034607, 156.32442998886108, 156.4410331249237, 156.55805921554565, 156.67487120628357, 156.79152011871338, 157.01303815841675]	[152.9091688124333, 153.02583547909998, 154.0088354791, 154.17553547909998, 154.92553547909998, 155.04220214576665, 155.15886881243333, 155.2755354791, 155.39220214576667, 155.50886881243335, 155.62553547910002, 155.7422021457667, 155.85886881243337, 155.97553547910005, 156.09220214576672, 156.2088688124334, 156.32553547910007, 156.44220214576674, 156.55886881243342, 156.6755354791001, 156.79220214576677, 157.02553547910009]	2020_Nov_27_1540	59.85330296647659	1	1
8	27	FALSE	NV	v	['A', 'G', 'N', 'E', 'H', 'U', 'R', 'V', 'T', 'Z', 'S', 'X', 'W', 'Y', 'J', 'P']	[697, 944, 1335, 904, 986, 2059, 1587, 2245, 1888, 2911, 1731, 4000, 2448, 2670, 1029, 1456]	12	Present	NA	NA	PRESENT	0.20444107055664065	159.02010416984558	161.0243752002716	162.0750072002411	162.42519903182983	165.12940406799316	4.105028867721558	[159.02769804000854, 159.14418411254883, 160.12836599349976, 160.29538106918335, 161.04623317718506, 161.16304898262024, 161.27970814704895, 161.39635515213013, 161.51324009895325, 161.63015413284302, 161.74677300453186, 161.8635392189026, 161.980535030365, 162.09711003303528, 162.213849067688, 162.33084416389465, 162.44781804084778, 162.56450414657593, 162.681312084198, 162.79801607131958, 162.91487002372742, 163.12940311431885]	[159.02553547910009, 159.14220214576676, 160.12520214576676, 160.29190214576676, 161.04190214576676, 161.15856881243343, 161.2752354791001, 161.39190214576678, 161.50856881243345, 161.62523547910013, 161.7419021457668, 161.85856881243348, 161.97523547910015, 162.09190214576682, 162.2085688124335, 162.32523547910017, 162.44190214576685, 162.55856881243352, 162.6752354791002, 162.79190214576687, 162.90856881243354, 163.14190214576686]	2020_Nov_27_1540	59.85330296647659	1	1
8	28	FALSE	NN	v	['A', 'E', 'P', 'C', 'J', 'R', 'H', 'V', 'T', 'B', 'S', 'M', 'G', 'Z', 'U', 'Y']	[697, 904, 1456, 829, 1029, 1587, 986, 2245, 1888, 760, 1731, 1224, 944, 2911, 2059, 2670]	12	Absent	NA	NA	ABSENT	0.5936219692230225	165.1428940296173	167.14096403121948	168.19106197357178	168.54142308235168	171.24577116966248	4.104807138442993	[165.15048813819885, 165.26734519004822, 166.2349090576172, 166.40171217918396, 167.16942715644836, 167.28622603416443, 167.40289115905762, 167.5196921825409, 167.6195740699768, 167.75344109535217, 167.85318613052368, 167.96998119354248, 168.08678603172302, 168.20358800888062, 168.3206901550293, 168.4372751712799, 168.55397510528564, 168.67077207565308, 168.78760313987732, 168.90439701080322, 169.021409034729, 169.24577116966248]	[165.14190214576686, 165.25856881243354, 166.24156881243354, 166.40826881243353, 167.15826881243353, 167.2749354791002, 167.39160214576688, 167.50826881243356, 167.62493547910023, 167.7416021457669, 167.85826881243358, 167.97493547910025, 168.09160214576693, 168.2082688124336, 168.32493547910028, 168.44160214576695, 168.55826881243362, 168.6749354791003, 168.79160214576697, 168.90826881243365, 169.02493547910032, 169.25826881243364]	2020_Nov_27_1540	59.85330296647659	1	1
8	29	FALSE	NA	v	['W', 'G', 'P', 'V', 'N', 'Y', 'H', 'S', 'C', 'U', 'X', 'A', 'E', 'T', 'K', 'Z']	[2448, 944, 1456, 2245, 1335, 2670, 986, 1731, 829, 2059, 4000, 697, 904, 1888, 1122, 2911]	11	Present	NA	NA	PRESENT	0.15827608108520508	171.24927711486816	173.25721406936646	174.19091701507568	174.5409450531006	177.3621380329132	4.104923963546753	[171.25687098503113, 171.373859167099, 172.35803604125977, 172.52512216567993, 173.27576303482056, 173.39276719093323, 173.50940203666687, 173.6262171268463, 173.74290800094604, 173.8597640991211, 173.97654509544373, 174.09345817565918, 174.21026301383972, 174.32688808441162, 174.4438841342926, 174.56065917015076, 174.6774501800537, 174.79408502578735, 174.91097712516785, 175.0276460647583, 175.14446210861206, 175.3621380329132]	[171.25826881243364, 171.37493547910032, 172.35793547910032, 172.5246354791003, 173.2746354791003, 173.39130214576699, 173.50796881243366, 173.62463547910033, 173.741302145767, 173.85796881243368, 173.97463547910036, 174.09130214576703, 174.2079688124337, 174.32463547910038, 174.44130214576705, 174.55796881243373, 174.6746354791004, 174.79130214576708, 174.90796881243375, 175.02463547910043, 175.1413021457671, 175.37463547910042]	2020_Nov_27_1540	59.85330296647659	1	1
8	30	FALSE	NN	v	['B', 'J', 'C', 'S', 'R', 'P', 'Y', 'U', 'M', 'K', 'Z', 'A', 'W', 'T', 'E', 'N']	[760, 1029, 829, 1731, 1587, 1456, 2670, 2059, 1224, 1122, 2911, 697, 2448, 1888, 904, 1335]	14	Absent	NA	NA	ABSENT	0.2914419174194336	177.37265300750732	179.37360215187073	180.6572229862213	181.00715804100037	183.47850513458252	4.104902982711792	[177.38024711608887, 177.49712419509888, 178.48185801506042, 178.64833116531372, 179.3991391658783, 179.51587104797363, 179.63258814811707, 179.74937415122986, 179.86626505851746, 179.98297810554504, 180.0998020172119, 180.21722412109375, 180.3334550857544, 180.45010209083557, 180.56712007522583, 180.68367314338684, 180.80063319206238, 180.91733121871948, 181.034175157547, 181.15101408958435, 181.25085401535034, 181.47850513458252]	[177.37463547910042, 177.4913021457671, 178.4743021457671, 178.6410021457671, 179.3910021457671, 179.50766881243376, 179.62433547910044, 179.7410021457671, 179.8576688124338, 179.97433547910046, 180.09100214576713, 180.2076688124338, 180.32433547910048, 180.44100214576716, 180.55766881243383, 180.6743354791005, 180.79100214576718, 180.90766881243385, 181.02433547910053, 181.1410021457672, 181.25766881243388, 181.4910021457672]	2020_Nov_27_1540	59.85330296647659	1	1
8	31	FALSE	NV	v	['S', 'K', 'B', 'J', 'M', 'G', 'C', 'N', 'Y', 'X', 'H', 'V', 'Z', 'A', 'P', 'W']	[1731, 1122, 760, 1029, 1224, 944, 829, 1335, 2670, 4000, 986, 2245, 2911, 697, 1456, 2448]	10	Present	NA	NA	PRESENT	0.2400960922241211	183.47910714149475	185.49014616012573	186.30720114707947	186.6569700241089	189.59487104415896	4.104724884033203	[183.48670101165771, 183.6036491394043, 184.58800101280212, 184.75479912757874, 185.5053961277008, 185.62249207496643, 185.7391860485077, 185.8560950756073, 185.97257113456726, 186.08958506584167, 186.2062680721283, 186.32322812080383, 186.44002103805542, 186.55669116973877, 186.67353510856628, 186.79031610488892, 186.90709018707275, 187.02392721176147, 187.14068913459778, 187.25734901428223, 187.37435817718506, 187.59487104415894]	[183.4910021457672, 183.60766881243387, 184.59066881243388, 184.75736881243387, 185.50736881243387, 185.62403547910054, 185.74070214576722, 185.8573688124339, 185.97403547910056, 186.09070214576724, 186.2073688124339, 186.3240354791006, 186.44070214576726, 186.55736881243394, 186.6740354791006, 186.79070214576728, 186.90736881243396, 187.02403547910063, 187.1407021457673, 187.25736881243398, 187.37403547910066, 187.60736881243398]	2020_Nov_27_1540	59.85330296647659	1	1
8	32	FALSE	NA	v	['V', 'B', 'G', 'U', 'R', 'Z', 'P', 'N', 'T', 'H', 'M', 'C', 'A', 'X', 'W', 'S']	[2245, 760, 944, 2059, 1587, 2911, 1456, 1335, 1888, 986, 1224, 829, 697, 4000, 2448, 1731]	14	Present	NA	NA	PRESENT	0.30876994132995605	189.60261702537537	191.60644817352295	192.88985419273376	193.24012207984924	195.71123814582825	4.104789972305298	[189.6102101802826, 189.72678303718567, 190.71105813980103, 190.87803721427917, 191.62870812416077, 191.7454080581665, 191.86224603652954, 191.97922801971436, 192.09580421447754, 192.21246600151062, 192.3293581008911, 192.4461691379547, 192.56318020820618, 192.67973113059998, 192.79670906066895, 192.913565158844, 193.0304160118103, 193.14699816703796, 193.2640302181244, 193.38069701194763, 193.49750518798828, 193.71123814582825]	[189.60736881243398, 189.72403547910065, 190.70703547910065, 190.87373547910065, 191.62373547910065, 191.74040214576732, 191.857068812434, 191.97373547910067, 192.09040214576734, 192.20706881243402, 192.3237354791007, 192.44040214576737, 192.55706881243404, 192.6737354791007, 192.7904021457674, 192.90706881243406, 193.02373547910074, 193.1404021457674, 193.25706881243408, 193.37373547910076, 193.49040214576743, 193.72373547910075]	2020_Nov_27_1540	59.85330296647659	1	1
8	33	FALSE	NA	v	['K', 'G', 'M', 'E', 'T', 'W', 'H', 'X', 'U', 'B', 'J', 'Z', 'R', 'V', 'P', 'S']	[1122, 944, 1224, 904, 1888, 2448, 986, 4000, 2059, 760, 1029, 2911, 1587, 2245, 1456, 1731]	8	Present	NA	NA	PRESENT	0.2258739471435547	195.7255721092224	197.72262620925903	198.3064160346985	198.6563730239868	201.82760405540463	4.10497784614563	[195.73316621780396, 195.8331310749054, 196.8176760673523, 196.98452615737915, 197.75190615653992, 197.85195803642273, 197.96872305870056, 198.08555006980896, 198.20229601860046, 198.31914114952087, 198.4526491165161, 198.55272817611694, 198.66947221755981, 198.78623604774475, 198.90305614471436, 199.01985621452332, 199.1367151737213, 199.25378012657166, 199.37038898468018, 199.4870240688324, 199.60398602485657, 199.82760310173035]	[195.72373547910075, 195.84040214576743, 196.82340214576743, 196.99010214576742, 197.74010214576742, 197.8567688124341, 197.97343547910077, 198.09010214576745, 198.20676881243412, 198.3234354791008, 198.44010214576747, 198.55676881243414, 198.67343547910082, 198.7901021457675, 198.90676881243417, 199.02343547910084, 199.14010214576751, 199.2567688124342, 199.37343547910086, 199.49010214576754, 199.6067688124342, 199.84010214576753]	2020_Nov_27_1540	59.85330296647659	1	1
8	34	FALSE	NV	v	['B', 'P', 'Y', 'E', 'K', 'T', 'A', 'J', 'M', 'G', 'V', 'X', 'Z', 'H', 'W', 'R']	[760, 1456, 2670, 904, 1122, 1888, 697, 1029, 1224, 944, 2245, 4000, 2911, 986, 2448, 1587]	12	Present	NA	NA	PRESENT	0.15055489540100098	201.8320519924164	203.8390791416168	204.88933300971985	205.2397301197052	207.94397115707395	4.104892015457153	[201.83964610099792, 201.95661616325378, 202.9409191608429, 203.10771417617798, 203.85842514038086, 203.97521305084229, 204.0922291278839, 204.20883917808533, 204.32590007781982, 204.44226908683777, 204.5592851638794, 204.67612504959106, 204.79286909103394, 204.90970611572266, 205.0264880657196, 205.14307618141174, 205.2600381374359, 205.3766942024231, 205.49362015724182, 205.61045813560486, 205.72730612754822, 205.94397020339966]	[201.84010214576753, 201.9567688124342, 202.9397688124342, 203.1064688124342, 203.8564688124342, 203.97313547910088, 204.08980214576755, 204.20646881243422, 204.3231354791009, 204.43980214576757, 204.55646881243425, 204.67313547910092, 204.7898021457676, 204.90646881243427, 205.02313547910094, 205.13980214576762, 205.2564688124343, 205.37313547910097, 205.48980214576764, 205.60646881243431, 205.723135479101, 205.9564688124343]	2020_Nov_27_1540	59.85330296647659	1	1
8	35	FALSE	NN	v	['V', 'N', 'R', 'M', 'U', 'Y', 'A', 'H', 'S', 'T', 'E', 'K', 'P', 'C', 'B', 'G']	[2245, 1335, 1587, 1224, 2059, 2670, 697, 986, 1731, 1888, 904, 1122, 1456, 829, 760, 944]	11	Absent	NA	NA	ABSENT	0.1557929515838623	207.9552412033081	209.9553260803223	210.8890700340271	211.2391710281372	214.0603380203247	4.105011940002441	[207.96283602714539, 208.0797140598297, 209.06391215324402, 209.23122310638428, 209.98179721832275, 210.09851121902466, 210.21539306640625, 210.33221006393433, 210.44875311851501, 210.5654911994934, 210.68248319625854, 210.79933404922485, 210.91603899002075, 211.03287601470947, 211.1495339870453, 211.26630902290344, 211.38310718536377, 211.49993515014648, 211.61675906181335, 211.733745098114, 211.8336901664734, 212.0603380203247]	[207.9564688124343, 208.07313547910098, 209.056135479101, 209.22283547910098, 209.97283547910098, 210.08950214576765, 210.20616881243433, 210.322835479101, 210.43950214576768, 210.55616881243435, 210.67283547910102, 210.7895021457677, 210.90616881243437, 211.02283547910105, 211.13950214576772, 211.2561688124344, 211.37283547910107, 211.48950214576774, 211.60616881243442, 211.7228354791011, 211.83950214576777, 212.0728354791011]	2020_Nov_27_1540	59.85330296647659	1	1
8	36	FALSE	NV	v	['J', 'V', 'S', 'K', 'N', 'M', 'A', 'P', 'H', 'E', 'X', 'R', 'U', 'C', 'W', 'B']	[1029, 2245, 1731, 1122, 1335, 1224, 697, 1456, 986, 904, 4000, 1587, 2059, 829, 2448, 760]	11	Present	NA	NA	PRESENT	0.07234001159667969	214.0619280338287	216.0719690322876	217.00560307502747	217.35554599761963	220.176705121994	4.104736089706421	[214.06952118873596, 214.1862599849701, 215.1706621646881, 215.33733820915222, 216.08810305595398, 216.20516705513, 216.32184720039368, 216.43862104415894, 216.55537700653076, 216.6720051765442, 216.78898310661316, 216.90564799308777, 217.02250909805298, 217.1393530368805, 217.25619101524353, 217.3728301525116, 217.48982000350952, 217.60641312599182, 217.72330617904663, 217.84020709991455, 217.95692610740662, 218.1767041683197]	[214.0728354791011, 214.18950214576776, 215.17250214576777, 215.33920214576776, 216.08920214576776, 216.20586881243443, 216.3225354791011, 216.43920214576778, 216.55586881243445, 216.67253547910113, 216.7892021457678, 216.90586881243448, 217.02253547910115, 217.13920214576783, 217.2558688124345, 217.37253547910117, 217.48920214576785, 217.60586881243452, 217.7225354791012, 217.83920214576787, 217.95586881243455, 218.18920214576787]	2020_Nov_27_1540	59.85330296647659	1	1
8	37	FALSE	VN	v	['P', 'W', 'J', 'H', 'M', 'U', 'Y', 'N', 'R', 'T', 'surprise', 'B', 'E', 'K', 'S', 'G']	[1456, 2448, 1029, 986, 1224, 2059, 2670, 1335, 1587, 1888, 'stimAuditory/all_stimAuditory/207.wav', 760, 904, 1122, 1731, 944]	14	Absent	NA	stimVisual/all_stimVisual/109.jpg	ABSENT	0.14894509315490723	220.1853051185608	222.1880660057068	223.47201704978943	223.8220191001892	226.29307103157043	4.1050050258636475	[220.19289898872375, 220.3094081878662, 221.29379510879517, 221.46068620681763, 222.21122121810913, 222.32811212539673, 222.4450662136078, 222.5617651939392, 222.6785430908203, 222.7953701019287, 222.9122290611267, 223.0289340019226, 223.14582014083862, 223.26261401176453, 223.37942910194397, 223.49596905708313, 223.61279106140137, 223.7297739982605, 223.8464171886444, 223.9634120464325, 224.08012700080872, 224.29307198524475]	[220.18920214576787, 220.30586881243454, 221.28886881243454, 221.45556881243454, 222.20556881243454, 222.3222354791012, 222.43890214576788, 222.55556881243456, 222.67223547910123, 222.7889021457679, 222.90556881243458, 223.02223547910125, 223.13890214576793, 223.2555688124346, 223.37223547910128, 223.48890214576795, 223.60556881243463, 223.7222354791013, 223.83890214576797, 223.95556881243465, 224.07223547910132, 224.30556881243464]	2020_Nov_27_1540	59.85330296647659	1	1
8	38	FALSE	NN	v	['C', 'U', 'M', 'V', 'B', 'S', 'W', 'J', 'A', 'E', 'N', 'T', 'P', 'K', 'H', 'Z']	[829, 2059, 1224, 2245, 760, 1731, 2448, 1029, 697, 904, 1335, 1888, 1456, 1122, 986, 2911]	9	Absent	NA	NA	ABSENT	0.24217700958251953	226.29145503044128	228.3046591281891	229.0051670074463	229.35489702224731	232.40943813323975	4.104779005050659	[226.29904913902283, 226.4159700870514, 227.40030121803284, 227.5669560432434, 228.33467817306519, 228.4345691204071, 228.55146312713623, 228.66819620132446, 228.78509521484375, 228.9017779827118, 229.01865100860596, 229.13530707359314, 229.25238013267517, 229.36913204193115, 229.48589706420898, 229.6026270389557, 229.7193729877472, 229.83610320091248, 229.95298504829407, 230.06993007659912, 230.1866021156311, 230.40943813323975]	[226.30556881243464, 226.42223547910132, 227.40523547910132, 227.5719354791013, 228.3219354791013, 228.438602145768, 228.55526881243466, 228.67193547910134, 228.788602145768, 228.90526881243468, 229.02193547910136, 229.13860214576803, 229.2552688124347, 229.37193547910138, 229.48860214576806, 229.60526881243473, 229.7219354791014, 229.83860214576808, 229.95526881243475, 230.07193547910143, 230.1886021457681, 230.42193547910142]	2020_Nov_27_1540	59.85330296647659	1	1
8	39	FALSE	NV	v	['G', 'J', 'B', 'V', 'Y', 'K', 'P', 'Z', 'N', 'X', 'H', 'C', 'R', 'W', 'S', 'U']	[944, 1029, 760, 2245, 2670, 1122, 1456, 2911, 1335, 4000, 986, 829, 1587, 2448, 1731, 2059]	10	Present	NA	NA	PRESENT	0.30275893211364746	232.41473197937012	234.42120599746704	235.23816108703613	235.58832597732544	238.52580499649048	4.1045989990234375	[232.42233800888062, 232.53923201560974, 233.52356910705566, 233.69034099578857, 234.4411461353302, 234.55789303779602, 234.6748402118683, 234.7914800643921, 234.9084451198578, 235.02504515647888, 235.14198112487793, 235.25857615470886, 235.37551498413086, 235.49233603477478, 235.60909509658813, 235.72630310058594, 235.84264516830444, 235.9593780040741, 236.07633519172668, 236.19306206703186, 236.30988812446594, 236.52580499649048]	[232.42193547910142, 232.5386021457681, 233.5216021457681, 233.6883021457681, 234.4383021457681, 234.55496881243477, 234.67163547910144, 234.7883021457681, 234.9049688124348, 235.02163547910146, 235.13830214576814, 235.2549688124348, 235.37163547910149, 235.48830214576816, 235.60496881243483, 235.7216354791015, 235.83830214576818, 235.95496881243486, 236.07163547910153, 236.1883021457682, 236.30496881243488, 236.5383021457682]	2020_Nov_27_1540	59.85330296647659	1	1
8	40	FALSE	NA	v	['A', 'B', 'J', 'H', 'W', 'M', 'S', 'X', 'V', 'Y', 'Z', 'R', 'K', 'G', 'E', 'N']	[697, 760, 1029, 986, 2448, 1224, 1731, 4000, 2245, 2670, 2911, 1587, 1122, 944, 904, 1335]	8	Present	NA	NA	PRESENT	0.08409309387207031	238.53807616233823	240.5370512008667	241.120836019516	241.47092604637143	244.64217114448547	4.105119943618774	[238.5456690788269, 238.66220998764038, 239.6469030380249, 239.81345915794373, 240.56428003311157, 240.68120121955872, 240.79808807373047, 240.9149022102356, 241.03162598609924, 241.14836716651917, 241.26497316360474, 241.3819100856781, 241.49880814552307, 241.6155240535736, 241.73216819763184, 241.84901118278503, 241.9657301902771, 242.08268404006958, 242.19942116737366, 242.3160262107849, 242.41635513305664, 242.64217114448547]	[238.5383021457682, 238.65496881243487, 239.63796881243488, 239.80466881243487, 240.55466881243487, 240.67133547910154, 240.78800214576822, 240.9046688124349, 241.02133547910157, 241.13800214576824, 241.25466881243491, 241.3713354791016, 241.48800214576826, 241.60466881243494, 241.7213354791016, 241.8380021457683, 241.95466881243496, 242.07133547910163, 242.1880021457683, 242.30466881243498, 242.42133547910166, 242.65466881243498]	2020_Nov_27_1540	59.85330296647659	1	1
8	41	FALSE	NN	v	['R', 'S', 'H', 'N', 'T', 'J', 'M', 'W', 'C', 'B', 'K', 'Z', 'Y', 'P', 'E', 'A']	[1587, 1731, 986, 1335, 1888, 1029, 1224, 2448, 829, 760, 1122, 2911, 2670, 1456, 904, 697]	14	Absent	NA	NA	ABSENT	0.35271406173706055	244.6443691253662	246.6536450386047	247.9371621608734	248.28802609443665	250.7585380077362	4.10489296913147	[244.65196204185486, 244.76874613761902, 245.7532660961151, 245.92005610466003, 246.67076206207275, 246.78778910636902, 246.90452599525452, 247.02114915847778, 247.13806009292603, 247.25474405288696, 247.3717520236969, 247.48837804794312, 247.605229139328, 247.7220380306244, 247.83883118629456, 247.9554901123047, 248.07248902320862, 248.18911218643188, 248.3058671951294, 248.42264008522034, 248.53955721855164, 248.7585391998291]	[244.65466881243498, 244.77133547910165, 245.75433547910166, 245.92103547910165, 246.67103547910165, 246.78770214576832, 246.904368812435, 247.02103547910167, 247.13770214576834, 247.25436881243502, 247.3710354791017, 247.48770214576837, 247.60436881243504, 247.72103547910172, 247.8377021457684, 247.95436881243506, 248.07103547910174, 248.1877021457684, 248.3043688124351, 248.42103547910176, 248.53770214576844, 248.77103547910176]	2020_Nov_27_1540	59.85330296647659	1	1
8	42	FALSE	NN	v	['N', 'B', 'S', 'G', 'A', 'W', 'Z', 'T', 'C', 'U', 'K', 'H', 'J', 'P', 'Y', 'E']	[1335, 760, 1731, 944, 697, 2448, 2911, 1888, 829, 2059, 1122, 986, 1029, 1456, 2670, 904]	9	Absent	NA	NA	ABSENT	0.3181910514831543	250.76795601844788	252.7699191570282	253.4704761505127	253.82049107551575	256.8749051094055	4.104985952377319	[250.77555012702942, 250.89214301109314, 251.87650513648987, 252.04329705238342, 252.79414010047913, 252.910973072052, 253.027734041214, 253.14442801475525, 253.26135301589966, 253.37792301177979, 253.49498510360718, 253.61172199249268, 253.72850513458252, 253.8453299999237, 253.96202421188354, 254.07863998413086, 254.19555616378784, 254.3124611377716, 254.42901515960693, 254.54596304893494, 254.6626751422882, 254.87490510940552]	[250.77103547910176, 250.88770214576843, 251.87070214576843, 252.03740214576843, 252.78740214576843, 252.9040688124351, 253.02073547910177, 253.13740214576845, 253.25406881243512, 253.3707354791018, 253.48740214576847, 253.60406881243514, 253.72073547910182, 253.8374021457685, 253.95406881243517, 254.07073547910184, 254.18740214576852, 254.3040688124352, 254.42073547910186, 254.53740214576854, 254.6540688124352, 254.88740214576853]	2020_Nov_27_1540	59.85330296647659	1	1
8	43	FALSE	VN	v	['H', 'C', 'T', 'V', 'A', 'U', 'surprise', 'Y', 'P', 'K', 'E', 'G', 'W', 'Z', 'R', 'S']	[986, 829, 1888, 2245, 697, 2059, 'stimAuditory/all_stimAuditory/111.wav', 2670, 1456, 1122, 904, 944, 2448, 2911, 1587, 1731]	10	Absent	NA	stimVisual/all_stimVisual/214.jpg	ABSENT	0.2905271053314209	256.87409114837646	258.8863000869751	259.70352506637573	260.05388498306274	262.99127101898193	4.104970932006836	[256.8816840648651, 256.99871301651, 257.9829730987549, 258.14972615242004, 258.91724014282227, 259.01742815971375, 259.13416504859924, 259.25101709365845, 259.36781001091003, 259.48445105552673, 259.61796498298645, 259.7181181907654, 259.8349640369415, 259.9515471458435, 260.06849098205566, 260.1853151321411, 260.302353143692, 260.4187481403351, 260.53568506240845, 260.6524341106415, 260.76933217048645, 260.9912700653076]	[256.88740214576853, 257.0040688124352, 257.9870688124352, 258.1537688124352, 258.9037688124352, 259.0204354791019, 259.13710214576855, 259.2537688124352, 259.3704354791019, 259.4871021457686, 259.60376881243525, 259.7204354791019, 259.8371021457686, 259.95376881243527, 260.07043547910195, 260.1871021457686, 260.3037688124353, 260.42043547910197, 260.53710214576864, 260.6537688124353, 260.770435479102, 261.00376881243534]	2020_Nov_27_1540	59.85330296647659	1	1
8	44	FALSE	NV	v	['W', 'V', 'H', 'J', 'C', 'U', 'A', 'X', 'T', 'S', 'K', 'R', 'M', 'B', 'P', 'N']	[2448, 2245, 986, 1029, 829, 2059, 697, 4000, 1888, 1731, 1122, 1587, 1224, 760, 1456, 1335]	8	Present	NA	NA	PRESENT	0.23906993865966797	262.997435092926	265.0025100708008	265.58643913269043	265.9365451335907	269.10763812065125	4.105128049850464	[263.0050301551819, 263.1217441558838, 264.1059730052948, 264.2731101512909, 265.023864030838, 265.14049315452576, 265.2573640346527, 265.3740451335907, 265.4910640716553, 265.6078040599823, 265.7246901988983, 265.84124517440796, 265.9580111503601, 266.0749351978302, 266.191792011261, 266.30855107307434, 266.4254159927368, 266.5421350002289, 266.65874218940735, 266.7755661010742, 266.8924660682678, 267.10763716697693]	[263.00376881243534, 263.120435479102, 264.103435479102, 264.270135479102, 265.020135479102, 265.1368021457687, 265.25346881243536, 265.37013547910203, 265.4868021457687, 265.6034688124354, 265.72013547910205, 265.83680214576873, 265.9534688124354, 266.0701354791021, 266.18680214576875, 266.3034688124354, 266.4201354791021, 266.5368021457688, 266.65346881243545, 266.7701354791021, 266.8868021457688, 267.12013547910215]	2020_Nov_27_1540	59.85330296647659	1	1
8	45	FALSE	NA	v	['A', 'K', 'U', 'M', 'T', 'J', 'N', 'G', 'P', 'X', 'C', 'H', 'Y', 'E', 'S', 'Z']	[697, 1122, 2059, 1224, 1888, 1029, 1335, 944, 1456, 4000, 829, 986, 2670, 904, 1731, 2911]	10	Present	NA	NA	PRESENT	0.05234789848327637	269.1205081939697	271.11915016174316	271.93616104125977	272.28646898269653	275.224004983902	4.1048548221588135	[269.1281020641327, 269.2448470592499, 270.21252512931824, 270.3796811103821, 271.1469521522522, 271.26401114463806, 271.3806140422821, 271.49745202064514, 271.61429619789124, 271.7309591770172, 271.84779810905457, 271.9646611213684, 272.0813081264496, 272.19795513153076, 272.31474709510803, 272.4147951602936, 272.5317142009735, 272.6484971046448, 272.76524901390076, 272.8819901943207, 272.99895906448364, 273.224004983902]	[269.12013547910215, 269.2368021457688, 270.2198021457688, 270.3865021457688, 271.1365021457688, 271.2531688124355, 271.36983547910216, 271.48650214576884, 271.6031688124355, 271.7198354791022, 271.83650214576886, 271.95316881243554, 272.0698354791022, 272.1865021457689, 272.30316881243556, 272.41983547910223, 272.5365021457689, 272.6531688124356, 272.76983547910226, 272.88650214576893, 273.0031688124356, 273.23650214576895]	2020_Nov_27_1540	59.85330296647659	1	1
8	46	FALSE	NA	v	['Z', 'G', 'P', 'C', 'A', 'H', 'T', 'U', 'B', 'K', 'W', 'S', 'X', 'N', 'E', 'J']	[2911, 944, 1456, 829, 697, 986, 1888, 2059, 760, 1122, 2448, 1731, 4000, 1335, 904, 1029]	13	Present	NA	NA	PRESENT	0.12089800834655762	275.2270221710205	277.2356791496277	278.40251302719116	278.75281405448914	281.340371131897	4.104691982269287	[275.2346169948578, 275.3515532016754, 276.33585119247437, 276.5026681423187, 277.25347805023193, 277.3703861236572, 277.48719000816345, 277.6038250923157, 277.7207591533661, 277.83742809295654, 277.95443415641785, 278.0710279941559, 278.1879971027374, 278.3046290874481, 278.42147302627563, 278.5381510257721, 278.655011177063, 278.7717070579529, 278.8886179924011, 279.0054180622101, 279.122230052948, 279.340371131897]	[275.23650214576895, 275.3531688124356, 276.33616881243563, 276.5028688124356, 277.2528688124356, 277.3695354791023, 277.48620214576897, 277.60286881243564, 277.7195354791023, 277.836202145769, 277.95286881243567, 278.06953547910234, 278.186202145769, 278.3028688124357, 278.41953547910236, 278.53620214576904, 278.6528688124357, 278.7695354791024, 278.88620214576906, 279.00286881243574, 279.1195354791024, 279.35286881243576]	2020_Nov_27_1540	59.85330296647659	1	1
8	47	FALSE	NV	v	['J', 'Z', 'K', 'T', 'R', 'H', 'C', 'X', 'M', 'U', 'B', 'W', 'Y', 'P', 'A', 'E']	[1029, 2911, 1122, 1888, 1587, 986, 829, 4000, 1224, 2059, 760, 2448, 2670, 1456, 697, 904]	8	Present	NA	NA	PRESENT	0.10231208801269533	281.35071420669556	283.351939201355	283.935585975647	284.2855579853058	287.4567370414734	4.104797840118408	[281.3583080768585, 281.4745280742645, 282.4591450691223, 282.62574100494385, 283.3765251636505, 283.4936029911041, 283.61040806770325, 283.72704911231995, 283.84381198883057, 283.96080899238586, 284.0773332118988, 284.1943461894989, 284.3109509944916, 284.4280631542206, 284.5446619987488, 284.6615011692047, 284.77813601493835, 284.8948800563812, 285.0118851661682, 285.1286520957947, 285.22856307029724, 285.4567379951477]	[281.35286881243576, 281.46953547910243, 282.45253547910244, 282.61923547910243, 283.36923547910243, 283.4859021457691, 283.6025688124358, 283.71923547910245, 283.8359021457691, 283.9525688124358, 284.0692354791025, 284.18590214576915, 284.3025688124358, 284.4192354791025, 284.53590214576917, 284.65256881243585, 284.7692354791025, 284.8859021457692, 285.00256881243587, 285.11923547910254, 285.2359021457692, 285.46923547910257]	2020_Nov_27_1540	59.85330296647659	1	1
8	48	FALSE	NA	v	['Y', 'J', 'V', 'H', 'C', 'R', 'Z', 'A', 'X', 'N', 'W', 'E', 'P', 'U', 'G', 'K']	[2670, 1029, 2245, 986, 829, 1587, 2911, 697, 4000, 1335, 2448, 904, 1456, 2059, 944, 1122]	9	Present	NA	NA	ABSENT	0.08284711837768555	287.45677399635315	289.46822214126587	290.1685461997986	290.51849007606506	293.573105096817	4.1048829555511475	[287.4643681049347, 287.58130502700806, 288.5657742023468, 288.73222303390503, 289.48313999176025, 289.60011410713196, 289.71673703193665, 289.83373618125916, 289.9505751132965, 290.06707406044006, 290.18383407592773, 290.3006989955902, 290.4175670146942, 290.5344409942627, 290.6512050628662, 290.76780009269714, 290.8846001625061, 291.0014400482178, 291.11820101737976, 291.2353050708771, 291.3520259857178, 291.573105096817]	[287.46923547910257, 287.58590214576924, 288.56890214576924, 288.73560214576923, 289.48560214576923, 289.6022688124359, 289.7189354791026, 289.83560214576926, 289.95226881243593, 290.0689354791026, 290.1856021457693, 290.30226881243595, 290.41893547910263, 290.5356021457693, 290.652268812436, 290.76893547910265, 290.8856021457693, 291.002268812436, 291.1189354791027, 291.23560214576935, 291.352268812436, 291.58560214576937]	2020_Nov_27_1540	59.85330296647659	1	1
8	49	FALSE	NA	v	['P', 'M', 'K', 'N', 'A', 'W', 'E', 'S', 'V', 'U', 'B', 'X', 'Y', 'R', 'H', 'Z']	[1456, 1224, 1122, 1335, 697, 2448, 904, 1731, 2245, 2059, 760, 4000, 2670, 1587, 986, 2911]	12	Present	NA	NA	PRESENT	0.214993953704834	293.5800721645355	295.58436918258667	296.6350290775299	296.9847881793976	299.6894700527191	4.105100870132446	[293.58766508102417, 293.7044401168823, 294.6887822151184, 294.85578203201294, 295.6063961982727, 295.72315216064453, 295.8399131298065, 295.95670914649963, 296.07364320755005, 296.1904420852661, 296.30716609954834, 296.4240050315857, 296.54070806503296, 296.6576690673828, 296.7744162082672, 296.8912332057953, 297.0080020427704, 297.1247069835663, 297.2413420677185, 297.3581190109253, 297.475221157074, 297.6894700527191]	[293.58560214576937, 293.70226881243605, 294.68526881243605, 294.85196881243604, 295.60196881243604, 295.7186354791027, 295.8353021457694, 295.95196881243606, 296.06863547910274, 296.1853021457694, 296.3019688124361, 296.41863547910276, 296.53530214576944, 296.6519688124361, 296.7686354791028, 296.88530214576946, 297.00196881243613, 297.1186354791028, 297.2353021457695, 297.35196881243616, 297.46863547910283, 297.7019688124362]	2020_Nov_27_1540	59.85330296647659	1	1
8	50	FALSE	AV	v	['B', 'G', 'T', 'W', 'U', 'E', 'C', 'K', 'P', 'surprise', 'R', 'S', 'X', 'Y', 'H', 'N']	[760, 944, 1888, 2448, 2059, 904, 829, 1122, 1456, 'stimAuditory/all_stimAuditory/119.wav', 1587, 1731, 4000, 2670, 986, 1335]	13	Present	stimAuditory/all_stimAuditory/214.wav	stimVisual/all_stimVisual/114.jpg	PRESENT	0.21259593963623047	299.7033061981201	301.70074701309204	302.8681290149689	303.21820402145386	305.80583810806274	4.105091094970703	[299.7109000682831, 299.81079506874084, 300.79541206359863, 300.96211099624634, 301.72989201545715, 301.8463079929352, 301.9631521701813, 302.0632140636444, 302.1799690723419, 302.3137550354004, 302.43049001693726, 302.530433177948, 302.64723110198975, 302.7807421684265, 302.88082098960876, 302.99756598472595, 303.1142830848694, 303.23111605644226, 303.3478910923004, 303.46471405029297, 303.5817301273346, 303.80583906173706]	[299.7019688124362, 299.81863547910285, 300.80163547910286, 300.96833547910285, 301.71833547910285, 301.8350021457695, 301.9516688124362, 302.06833547910287, 302.18500214576954, 302.3016688124362, 302.4183354791029, 302.53500214576957, 302.65166881243624, 302.7683354791029, 302.8850021457696, 303.00166881243626, 303.11833547910294, 303.2350021457696, 303.3516688124363, 303.46833547910296, 303.58500214576964, 303.818335479103]	2020_Nov_27_1540	59.85330296647659	1	1
8	51	FALSE	NA	v	['P', 'S', 'V', 'Z', 'T', 'W', 'G', 'J', 'A', 'X', 'E', 'C', 'H', 'Y', 'N', 'M']	[1456, 1731, 2245, 2911, 1888, 2448, 944, 1029, 697, 4000, 904, 829, 986, 2670, 1335, 1224]	10	Present	NA	NA	PRESENT	0.21729493141174316	305.80981397628784	307.81708097457886	308.6343569755554	308.9845621585846	311.92220401763916	4.105123043060303	[305.8174080848694, 305.93405199050903, 306.9184892177582, 307.085440158844, 307.8360970020294, 307.9529139995575, 308.0698211193085, 308.18655920028687, 308.30344915390015, 308.42009806632996, 308.5369510650635, 308.65365409851074, 308.77035307884216, 308.88718914985657, 309.0039131641388, 309.12089109420776, 309.2376329898834, 309.35450410842896, 309.4712641239166, 309.5881221294403, 309.70474219322205, 309.9222061634064]	[305.818335479103, 305.93500214576966, 306.91800214576966, 307.08470214576965, 307.83470214576965, 307.95136881243633, 308.068035479103, 308.1847021457697, 308.30136881243635, 308.418035479103, 308.5347021457697, 308.6513688124364, 308.76803547910305, 308.8847021457697, 309.0013688124364, 309.11803547910307, 309.23470214576975, 309.3513688124364, 309.4680354791031, 309.58470214576977, 309.70136881243644, 309.9347021457698]	2020_Nov_27_1540	59.85330296647659	1	1
8	52	FALSE	NV	v	['A', 'R', 'S', 'C', 'J', 'K', 'M', 'E', 'X', 'G', 'N', 'U', 'P', 'H', 'Z', 'T']	[697, 1587, 1731, 829, 1029, 1122, 1224, 904, 4000, 944, 1335, 2059, 1456, 986, 2911, 1888]	9	Present	NA	NA	PRESENT	0.02237892150878906	311.9331250190735	313.93389916419983	314.633908033371	314.98393511772156	318.0385711193085	4.104671955108643	[311.94071912765503, 312.05742621421814, 313.0417079925537, 313.2085311412811, 313.9594621658325, 314.0762791633606, 314.19282603263855, 314.30972599983215, 314.4267120361328, 314.5434181690216, 314.6599781513214, 314.7770709991455, 314.8938100337982, 315.0104441642761, 315.1274130344391, 315.2441141605377, 315.3608350753784, 315.4774730205536, 315.59442806243896, 315.7111780643463, 315.81120204925537, 316.0385711193085]	[311.9347021457698, 312.05136881243646, 313.03436881243647, 313.20106881243646, 313.95106881243646, 314.06773547910313, 314.1844021457698, 314.3010688124365, 314.41773547910316, 314.53440214576983, 314.6510688124365, 314.7677354791032, 314.88440214576985, 315.00106881243653, 315.1177354791032, 315.2344021457699, 315.35106881243655, 315.4677354791032, 315.5844021457699, 315.7010688124366, 315.81773547910325, 316.0510688124366]	2020_Nov_27_1540	59.85330296647659	1	1
8	53	FALSE	NN	v	['E', 'B', 'N', 'A', 'V', 'C', 'U', 'M', 'R', 'P', 'G', 'S', 'K', 'W', 'J', 'T']	[904, 760, 1335, 697, 2245, 829, 2059, 1224, 1587, 1456, 944, 1731, 1122, 2448, 1029, 1888]	10	Absent	NA	NA	ABSENT	0.17106986045837402	318.03942704200745	320.04993414878845	320.86700105667114	321.21706199645996	324.1549379825592	4.105003833770752	[318.0470190048218, 318.1639051437378, 319.1482582092285, 319.3151521682739, 320.0657341480255, 320.1825020313263, 320.299476146698, 320.4163281917572, 320.5331211090088, 320.6498830318451, 320.7666962146759, 320.88339710235596, 321.00036215782166, 321.11694598197937, 321.23425006866455, 321.35068011283875, 321.4675099849701, 321.58418798446655, 321.700875043869, 321.8178551197052, 321.93453311920166, 322.1549379825592]	[318.0510688124366, 318.16773547910327, 319.1507354791033, 319.31743547910327, 320.06743547910327, 320.18410214576994, 320.3007688124366, 320.4174354791033, 320.53410214576996, 320.65076881243664, 320.7674354791033, 320.88410214577, 321.00076881243666, 321.11743547910334, 321.23410214577, 321.3507688124367, 321.46743547910336, 321.58410214577003, 321.7007688124367, 321.8174354791034, 321.93410214577005, 322.1674354791034]	2020_Nov_27_1540	59.85330296647659	1	1
8	54	FALSE	NA	v	['P', 'J', 'W', 'Z', 'G', 'E', 'K', 'N', 'B', 'Y', 'M', 'V', 'S', 'X', 'A', 'H']	[1456, 1029, 2448, 2911, 944, 904, 1122, 1335, 760, 2670, 1224, 2245, 1731, 4000, 697, 986]	14	Present	NA	NA	PRESENT	0.6716248989105225	324.1627461910248	326.1664340496063	327.450031042099	327.80118703842163	330.2713050842285	4.104871034622192	[324.1703391075134, 324.287043094635, 325.27138113975525, 325.4384341239929, 326.1891222000122, 326.30602407455444, 326.4224910736084, 326.5394780635834, 326.6561951637268, 326.7730162143707, 326.8897089958191, 327.0067241191864, 327.1233420372009, 327.240287065506, 327.35703802108765, 327.4738290309906, 327.5906870365143, 327.70734310150146, 327.824214220047, 327.94092416763306, 328.0576581954956, 328.2713041305542]	[324.1674354791034, 324.2841021457701, 325.2671021457701, 325.4338021457701, 326.1838021457701, 326.30046881243675, 326.4171354791034, 326.5338021457701, 326.65046881243677, 326.76713547910344, 326.8838021457701, 327.0004688124368, 327.11713547910347, 327.23380214577014, 327.3504688124368, 327.4671354791035, 327.58380214577016, 327.70046881243684, 327.8171354791035, 327.9338021457702, 328.05046881243686, 328.2838021457702]	2020_Nov_27_1540	59.85330296647659	1	1
8	55	FALSE	NV	v	['W', 'C', 'K', 'P', 'J', 'G', 'B', 'E', 'M', 'X', 'V', 'A', 'Y', 'H', 'S', 'U']	[2448, 829, 1122, 1456, 1029, 944, 760, 904, 1224, 4000, 2245, 697, 2670, 986, 1731, 2059]	10	Present	NA	NA	PRESENT	0.07680797576904297	330.2690980434418	332.2830500602722	333.0997450351715	333.44976711273193	336.38767099380493	4.104620933532715	[330.2766921520233, 330.39348101615906, 331.378231048584, 331.5448441505432, 332.31239199638367, 332.41230511665344, 332.5291030406952, 332.64583015441895, 332.76263403892517, 332.8795051574707, 332.99623107910156, 333.1132609844208, 333.22981905937195, 333.3466501235962, 333.4634041786194, 333.5802412033081, 333.69709515571594, 333.81375002861023, 333.9306380748749, 334.0473701953888, 334.1642382144928, 334.38767099380493]	[330.2838021457702, 330.4004688124369, 331.3834688124369, 331.5501688124369, 332.3001688124369, 332.41683547910355, 332.5335021457702, 332.6501688124369, 332.7668354791036, 332.88350214577025, 333.0001688124369, 333.1168354791036, 333.2335021457703, 333.35016881243695, 333.4668354791036, 333.5835021457703, 333.70016881243697, 333.81683547910364, 333.9335021457703, 334.050168812437, 334.16683547910367, 334.400168812437]	2020_Nov_27_1540	59.85330296647659	1	1
8	56	FALSE	NA	v	['R', 'H', 'N', 'S', 'C', 'U', 'Z', 'E', 'Y', 'J', 'A', 'P', 'M', 'X', 'V', 'T']	[1587, 986, 1335, 1731, 829, 2059, 2911, 904, 2670, 1029, 697, 1456, 1224, 4000, 2245, 1888]	14	Present	NA	NA	PRESENT	0.2254490852355957	336.3924641609192	338.3991861343384	339.6829900741577	340.03268599510193	342.5040371417999	4.104851007461548	[336.4000561237335, 336.51686906814575, 337.5011432170868, 337.66804003715515, 338.41885018348694, 338.53555607795715, 338.6525020599365, 338.76914620399475, 338.88582706451416, 339.00278520584106, 339.1196460723877, 339.2364730834961, 339.3530230522156, 339.46996116638184, 339.5866320133209, 339.70367407798767, 339.8203990459442, 339.9372420310974, 340.05396914482117, 340.170636177063, 340.28740215301514, 340.5040371417999]	[336.400168812437, 336.5168354791037, 337.4998354791037, 337.6665354791037, 338.4165354791037, 338.53320214577036, 338.64986881243703, 338.7665354791037, 338.8832021457704, 338.99986881243706, 339.11653547910373, 339.2332021457704, 339.3498688124371, 339.46653547910375, 339.58320214577043, 339.6998688124371, 339.8165354791038, 339.93320214577045, 340.0498688124371, 340.1665354791038, 340.2832021457705, 340.5165354791038]	2020_Nov_27_1540	59.85330296647659	1	1
8	57	FALSE	NA	v	['W', 'Y', 'T', 'H', 'N', 'G', 'K', 'A', 'E', 'M', 'V', 'U', 'X', 'P', 'B', 'R']	[2448, 2670, 1888, 986, 1335, 944, 1122, 697, 904, 1224, 2245, 2059, 4000, 1456, 760, 1587]	13	Present	NA	NA	PRESENT	0.254533052444458	342.5158121585846	344.51551604270935	345.68262100219727	346.03252816200256	348.62040519714355	4.104889154434204	[342.52340602874756, 342.63995814323425, 343.6242940425873, 343.7911880016327, 344.54196214675903, 344.65893816947937, 344.77544116973877, 344.8925561904907, 345.00914907455444, 345.1259181499481, 345.242614030838, 345.3596501350403, 345.47632098197937, 345.5933041572571, 345.71006417274475, 345.82670521736145, 345.9434461593628, 346.06039810180664, 346.1770532131195, 346.29398703575134, 346.39400720596313, 346.62040400505066]	[342.5165354791038, 342.6332021457705, 343.6162021457705, 343.7829021457705, 344.5329021457705, 344.64956881243717, 344.76623547910384, 344.8829021457705, 344.9995688124372, 345.11623547910386, 345.23290214577054, 345.3495688124372, 345.4662354791039, 345.58290214577056, 345.69956881243724, 345.8162354791039, 345.9329021457706, 346.04956881243726, 346.16623547910393, 346.2829021457706, 346.3995688124373, 346.63290214577063]	2020_Nov_27_1540	59.85330296647659	1	1
8	58	FALSE	NV	v	['Z', 'S', 'E', 'Y', 'V', 'M', 'T', 'B', 'R', 'W', 'X', 'A', 'P', 'G', 'H', 'K']	[2911, 1731, 904, 2670, 2245, 1224, 1888, 760, 1587, 2448, 4000, 697, 1456, 944, 986, 1122]	11	Present	NA	NA	PRESENT	0.07528090476989746	348.622132062912	350.63182306289673	351.5657391548157	351.9156370162964	354.73677110671997	4.104948043823242	[348.62972617149353, 348.7463171482086, 349.73076009750366, 349.89790320396423, 350.64849519729614, 350.76533818244934, 350.8821301460266, 350.99888801574707, 351.11555004119873, 351.2324950695038, 351.3493101596832, 351.4659860134125, 351.582937002182, 351.69973516464233, 351.8165400028229, 351.9332950115204, 352.0501639842987, 352.16692304611206, 352.283802986145, 352.4004440307617, 352.51703810691833, 352.73677110671997]	[348.63290214577063, 348.7495688124373, 349.7325688124373, 349.8992688124373, 350.6492688124373, 350.765935479104, 350.88260214577065, 350.9992688124373, 351.115935479104, 351.23260214577067, 351.34926881243734, 351.465935479104, 351.5826021457707, 351.69926881243737, 351.81593547910404, 351.9326021457707, 352.0492688124374, 352.16593547910406, 352.28260214577074, 352.3992688124374, 352.5159354791041, 352.74926881243744]	2020_Nov_27_1540	59.85330296647659	1	1
8	59	FALSE	NA	v	['C', 'M', 'N', 'T', 'Y', 'K', 'Z', 'J', 'R', 'V', 'U', 'W', 'H', 'X', 'A', 'S']	[829, 1224, 1335, 1888, 2670, 1122, 2911, 1029, 1587, 2245, 2059, 2448, 986, 4000, 697, 1731]	14	Present	NA	NA	PRESENT	0.09587788581848145	354.74517917633057	356.7481610774994	358.0318670272827	358.3820400238037	360.8531382083893	4.104977130889893	[354.7527720928192, 354.8697860240936, 355.8542320728302, 356.0208420753479, 356.77154898643494, 356.88838815689087, 357.00524520874023, 357.1222150325775, 357.23894810676575, 357.3557171821594, 357.47260308265686, 357.58937406539917, 357.70616602897644, 357.8227541446686, 357.9394919872284, 358.0565609931946, 358.17326402664185, 358.28999400138855, 358.40685510635376, 358.5235321521759, 358.6404139995575, 358.8531391620636]	[354.74926881243744, 354.8659354791041, 355.8489354791041, 356.0156354791041, 356.7656354791041, 356.8823021457708, 356.99896881243745, 357.1156354791041, 357.2323021457708, 357.3489688124375, 357.46563547910415, 357.5823021457708, 357.6989688124375, 357.8156354791042, 357.93230214577085, 358.0489688124375, 358.1656354791042, 358.28230214577087, 358.39896881243754, 358.5156354791042, 358.6323021457709, 358.86563547910424]	2020_Nov_27_1540	59.85330296647659	1	1
8	60	FALSE	NN	v	['G', 'C', 'U', 'B', 'T', 'Y', 'P', 'K', 'V', 'M', 'H', 'A', 'J', 'N', 'Z', 'W']	[944, 829, 2059, 760, 1888, 2670, 1456, 1122, 2245, 1224, 986, 697, 1029, 1335, 2911, 2448]	11	Absent	NA	NA	ABSENT	0.2130398750305176	360.85169100761414	362.86470103263855	363.7984881401062	364.14848613739014	366.9695031642914	4.104802131652832	[360.85928416252136, 360.9760811328888, 361.96066403388977, 362.12754106521606, 362.89534401893616, 362.9951090812683, 363.11173820495605, 363.22869420051575, 363.34539008140564, 363.4621171951294, 363.5790100097656, 363.69570112228394, 363.8124690055847, 363.92926502227783, 364.04636311531067, 364.16284799575806, 364.2798511981964, 364.3965780735016, 364.513396024704, 364.6302740573883, 364.74682211875916, 364.9695041179657]	[360.86563547910424, 360.9823021457709, 361.9653021457709, 362.1320021457709, 362.8820021457709, 362.9986688124376, 363.11533547910426, 363.23200214577093, 363.3486688124376, 363.4653354791043, 363.58200214577096, 363.69866881243763, 363.8153354791043, 363.932002145771, 364.04866881243765, 364.16533547910433, 364.282002145771, 364.3986688124377, 364.51533547910435, 364.632002145771, 364.7486688124377, 364.98200214577105]	2020_Nov_27_1540	59.85330296647659	1	1
8	61	FALSE	NN	v	['P', 'H', 'A', 'K', 'U', 'N', 'S', 'B', 'Z', 'T', 'C', 'R', 'W', 'J', 'E', 'V']	[1456, 986, 697, 1122, 2059, 1335, 1731, 760, 2911, 1888, 829, 1587, 2448, 1029, 904, 2245]	8	Absent	NA	NA	ABSENT	0.18553400039672852	366.9751160144806	368.9809741973877	369.56448197364807	369.9145600795746	373.085871219635	4.1048970222473145	[366.9827091693878, 367.0992751121521, 368.0838680267334, 368.2506170272827, 369.0012571811676, 369.1181221008301, 369.23498702049255, 369.35183119773865, 369.4686801433563, 369.58546805381775, 369.7023160457611, 369.8190941810608, 369.9358220100403, 370.0524799823761, 370.1694691181183, 370.2862801551819, 370.4028580188751, 370.5198771953583, 370.6364870071411, 370.7534611225128, 370.87000012397766, 371.0858700275421]	[366.98200214577105, 367.0986688124377, 368.0816688124377, 368.2483688124377, 368.9983688124377, 369.1150354791044, 369.23170214577107, 369.34836881243774, 369.4650354791044, 369.5817021457711, 369.69836881243776, 369.81503547910444, 369.9317021457711, 370.0483688124378, 370.16503547910446, 370.28170214577113, 370.3983688124378, 370.5150354791045, 370.63170214577116, 370.74836881243783, 370.8650354791045, 371.09836881243785]	2020_Nov_27_1540	59.85330296647659	1	1
8	62	FALSE	NA	v	['S', 'Z', 'G', 'A', 'H', 'K', 'R', 'N', 'T', 'X', 'J', 'W', 'B', 'U', 'V', 'P']	[1731, 2911, 944, 697, 986, 1122, 1587, 1335, 1888, 4000, 1029, 2448, 760, 2059, 2245, 1456]	10	Present	NA	NA	PRESENT	0.4309110641479492	373.0984470844269	375.09748816490173	375.9144721031189	376.26435804367065	379.20223808288574	4.104749917984009	[373.1060411930084, 373.22256302833557, 374.19010305404663, 374.357115983963, 375.12470602989197, 375.24141001701355, 375.35816502571106, 375.47509598731995, 375.591824054718, 375.70861411094666, 375.82542300224304, 375.9422800540924, 376.0589351654053, 376.1756100654602, 376.2926251888275, 376.40943217277527, 376.5260591506958, 376.64294505119324, 376.7428641319275, 376.85976910591125, 376.9767200946808, 377.2022371292114]	[373.09836881243785, 373.21503547910453, 374.19803547910453, 374.3647354791045, 375.1147354791045, 375.2314021457712, 375.3480688124379, 375.46473547910455, 375.5814021457712, 375.6980688124379, 375.81473547910457, 375.93140214577124, 376.0480688124379, 376.1647354791046, 376.28140214577127, 376.39806881243794, 376.5147354791046, 376.6314021457713, 376.74806881243796, 376.86473547910464, 376.9814021457713, 377.21473547910466]	2020_Nov_27_1540	59.85330296647659	1	1
8	63	FALSE	NN	v	['S', 'W', 'N', 'T', 'Y', 'V', 'R', 'U', 'K', 'A', 'P', 'M', 'E', 'B', 'C', 'G']	[1731, 2448, 1335, 1888, 2670, 2245, 1587, 2059, 1122, 697, 1456, 1224, 904, 760, 829, 944]	8	Absent	NA	NA	ABSENT	0.30736207962036133	379.2047581672669	381.2135891914368	381.7977111339569	382.14736008644104	385.31860518455505	4.105015993118286	[379.2123510837555, 379.32901215553284, 380.31347012519836, 380.4805021286011, 381.2311270236969, 381.34791803359985, 381.4647421836853, 381.5815680027008, 381.69844102859497, 381.81520318984985, 381.93197107315063, 382.04867219924927, 382.16545820236206, 382.2826302051544, 382.39914417266846, 382.51598501205444, 382.63256216049194, 382.74955701828003, 382.8661880493164, 382.9831850528717, 383.09983015060425, 383.31860613822937]	[379.21473547910466, 379.33140214577134, 380.31440214577134, 380.48110214577133, 381.23110214577133, 381.347768812438, 381.4644354791047, 381.58110214577135, 381.697768812438, 381.8144354791047, 381.9311021457714, 382.04776881243805, 382.1644354791047, 382.2811021457714, 382.3977688124381, 382.51443547910475, 382.6311021457714, 382.7477688124381, 382.86443547910477, 382.98110214577144, 383.0977688124381, 383.33110214577147]	2020_Nov_27_1540	59.85330296647659	1	1
8	64	FALSE	AA	v	['B', 'T', 'P', 'V', 'N', 'surprise', 'J', 'C', 'X', 'A', 'U', 'W', 'E', 'R', 'K', 'H']	[760, 1888, 1456, 2245, 1335, 'stimAuditory/all_stimAuditory/107.wav', 1029, 829, 4000, 697, 2059, 2448, 904, 1587, 1122, 986]	9	Present	stimAuditory/all_stimAuditory/103.wav	stimVisual/all_stimVisual/115.jpg	PRESENT	0.06485605239868164	385.3277380466461	387.33014607429504	388.03036618232727	388.3807921409607	391.4349710941314	4.104825019836426	[385.33533120155334, 385.4523410797119, 386.43685007095337, 386.60357308387756, 387.3542242050171, 387.47121000289917, 387.58774614334106, 387.70480513572693, 387.82138204574585, 387.9383280277252, 388.05504298210144, 388.17187905311584, 388.28872299194336, 388.40555119514465, 388.52224111557007, 388.638964176178, 388.7558901309967, 388.8728210926056, 388.98958015441895, 389.1062362194061, 389.2063090801239, 389.43497014045715]	[385.33110214577147, 385.44776881243814, 386.43076881243815, 386.59746881243814, 387.34746881243814, 387.4641354791048, 387.5808021457715, 387.69746881243816, 387.81413547910483, 387.9308021457715, 388.0474688124382, 388.16413547910486, 388.28080214577153, 388.3974688124382, 388.5141354791049, 388.63080214577155, 388.7474688124382, 388.8641354791049, 388.9808021457716, 389.09746881243825, 389.2141354791049, 389.4474688124383]	2020_Nov_27_1540	59.85330296647659	1	1
8	65	FALSE	NN	v	['H', 'A', 'G', 'P', 'R', 'C', 'Y', 'E', 'S', 'N', 'Z', 'U', 'W', 'K', 'J', 'T']	[986, 697, 944, 1456, 1587, 829, 2670, 904, 1731, 1335, 2911, 2059, 2448, 1122, 1029, 1888]	12	Absent	NA	NA	ABSENT	1.3575451374053955	391.4345111846924	393.44635820388794	394.4966311454773	394.84705805778503	397.5513381958008	4.104979991912842	[391.44210410118103, 391.55888414382935, 392.5435800552368, 392.7099471092224, 393.4775149822235, 393.5775442123413, 393.6944510936737, 393.8110890388489, 393.92818307876587, 394.0447611808777, 394.16166615486145, 394.2784252166748, 394.39522910118103, 394.51200914382935, 394.6286540031433, 394.74562907218933, 394.86223316192627, 394.97926902770996, 395.09598898887634, 395.21284914016724, 395.3295249938965, 395.5513370037079]	[391.4474688124383, 391.56413547910495, 392.54713547910495, 392.71383547910494, 393.46383547910494, 393.5805021457716, 393.6971688124383, 393.81383547910497, 393.93050214577164, 394.0471688124383, 394.163835479105, 394.28050214577166, 394.39716881243834, 394.513835479105, 394.6305021457717, 394.74716881243836, 394.86383547910503, 394.9805021457717, 395.0971688124384, 395.21383547910506, 395.33050214577173, 395.5638354791051]	2020_Nov_27_1540	59.85330296647659	1	1
8	66	FALSE	NV	v	['N', 'E', 'R', 'C', 'Z', 'W', 'A', 'U', 'T', 'Y', 'S', 'K', 'J', 'X', 'G', 'P']	[1335, 904, 1587, 829, 2911, 2448, 697, 2059, 1888, 2670, 1731, 1122, 1029, 4000, 944, 1456]	14	Present	NA	NA	PRESENT	0.2178788185119629	397.55780005455017	399.56257820129395	400.8463912010193	401.196573972702	403.6677041053772	4.105125904083252	[397.5653941631317, 397.682097196579, 398.6663200855255, 398.8333640098572, 399.58409214019775, 399.70076513290405, 399.81759214401245, 399.93458819389343, 400.0513000488281, 400.1681661605835, 400.2847900390625, 400.4017460346222, 400.5183641910553, 400.6353130340576, 400.7520971298218, 400.86879801750183, 400.9854609966278, 401.1024510860443, 401.2191250324249, 401.3360412120819, 401.45276498794556, 401.6677041053772]	[397.5638354791051, 397.68050214577175, 398.66350214577176, 398.83020214577175, 399.58020214577175, 399.6968688124384, 399.8135354791051, 399.9302021457718, 400.04686881243845, 400.1635354791051, 400.2802021457718, 400.39686881243847, 400.51353547910514, 400.6302021457718, 400.7468688124385, 400.86353547910517, 400.98020214577184, 401.0968688124385, 401.2135354791052, 401.33020214577186, 401.44686881243854, 401.6802021457719]	2020_Nov_27_1540	59.85330296647659	1	1
8	67	FALSE	AA	v	['R', 'M', 'G', 'A', 'N', 'Z', 'C', 'surprise', 'T', 'S', 'X', 'J', 'W', 'V', 'B', 'E']	[1587, 1224, 944, 697, 1335, 2911, 829, 'stimAuditory/all_stimAuditory/221.wav', 1888, 1731, 4000, 1029, 2448, 2245, 760, 904]	11	Present	stimAuditory/all_stimAuditory/110.wav	stimVisual/all_stimVisual/116.jpg	PRESENT	0.04713892936706543	403.68111419677734	405.67933201789856	406.6129891872406	406.9628272056579	409.7840712070465	4.104739189147949	[403.688707113266, 403.80525517463684, 404.77281618118286, 404.93975615501404, 405.70732712745667, 405.8241710662842, 405.94070506095886, 406.0575342178345, 406.17444705963135, 406.29116916656494, 406.4079101085663, 406.50800704956055, 406.64173698425293, 406.74158811569214, 406.85840916633606, 406.9752380847931, 407.0919210910797, 407.20891213417053, 407.3255341053009, 407.44231605529785, 407.5592930316925, 407.7840712070465]	[403.6802021457719, 403.79686881243856, 404.77986881243856, 404.94656881243856, 405.69656881243856, 405.81323547910523, 405.9299021457719, 406.0465688124386, 406.16323547910525, 406.2799021457719, 406.3965688124386, 406.5132354791053, 406.62990214577195, 406.7465688124386, 406.8632354791053, 406.979902145772, 407.09656881243865, 407.2132354791053, 407.329902145772, 407.44656881243867, 407.56323547910534, 407.7965688124387]	2020_Nov_27_1540	59.85330296647659	1	1
8	68	FALSE	NA	v	['W', 'B', 'J', 'P', 'V', 'R', 'Y', 'X', 'K', 'H', 'G', 'C', 'T', 'A', 'M', 'E']	[2448, 760, 1029, 1456, 2245, 1587, 2670, 4000, 1122, 986, 944, 829, 1888, 697, 1224, 904]	8	Present	NA	NA	PRESENT	0.17981410026550293	409.78755402565	411.79544401168823	412.3793041706085	412.7292840480805	415.9004380702973	4.104994058609009	[409.79514718055725, 409.9116201400757, 410.89619421958923, 411.0630600452423, 411.8138270378113, 411.9305431842804, 412.0472810268402, 412.1641230583191, 412.28094816207886, 412.39778113365173, 412.5145812034607, 412.6313591003418, 412.7481942176819, 412.8649380207062, 412.98165011405945, 413.098659992218, 413.2152681350708, 413.33251309394836, 413.44889521598816, 413.5657970905304, 413.6826140880585, 413.90043902397156]	[409.7965688124387, 409.91323547910537, 410.89623547910537, 411.06293547910536, 411.81293547910536, 411.92960214577204, 412.0462688124387, 412.1629354791054, 412.27960214577206, 412.39626881243873, 412.5129354791054, 412.6296021457721, 412.74626881243876, 412.86293547910543, 412.9796021457721, 413.0962688124388, 413.21293547910545, 413.3296021457721, 413.4462688124388, 413.5629354791055, 413.67960214577215, 413.9129354791055]	2020_Nov_27_1540	59.85330296647659	1	1
8	69	FALSE	NA	v	['B', 'G', 'M', 'T', 'J', 'C', 'S', 'R', 'K', 'N', 'X', 'Y', 'U', 'H', 'E', 'V']	[760, 944, 1224, 1888, 1029, 829, 1731, 1587, 1122, 1335, 4000, 2670, 2059, 986, 904, 2245]	11	Present	NA	NA	PRESENT	0.20907211303710935	415.91066217422485	417.91188502311707	418.8458490371704	419.195995092392	422.01680517196655	4.104920148849487	[415.9182550907135, 416.035019159317, 417.019424200058, 417.1862690448761, 417.93700313568115, 418.05394411087036, 418.17050313949585, 418.2873170375824, 418.40424513816833, 418.5208821296692, 418.6376461982727, 418.75439405441284, 418.87132501602173, 418.9882380962372, 419.10502910614014, 419.22183108329773, 419.33856320381165, 419.45532608032227, 419.5721571445465, 419.68890714645386, 419.788938999176, 420.01680421829224]	[415.9129354791055, 416.0296021457722, 417.0126021457722, 417.17930214577217, 417.92930214577217, 418.04596881243884, 418.1626354791055, 418.2793021457722, 418.39596881243887, 418.51263547910554, 418.6293021457722, 418.7459688124389, 418.86263547910556, 418.97930214577224, 419.0959688124389, 419.2126354791056, 419.32930214577226, 419.44596881243893, 419.5626354791056, 419.6793021457723, 419.79596881243896, 420.0293021457723]	2020_Nov_27_1540	59.85330296647659	1	1
8	70	FALSE	NV	v	['P', 'W', 'R', 'V', 'G', 'Y', 'B', 'X', 'M', 'E', 'S', 'T', 'H', 'N', 'C', 'K']	[1456, 2448, 1587, 2245, 944, 2670, 760, 4000, 1224, 904, 1731, 1888, 986, 1335, 829, 1122]	8	Present	NA	NA	PRESENT	0.02965116500854492	422.01700019836426	424.0281491279602	424.611937046051	424.9622089862823	428.13317012786865	4.105020999908447	[422.0245931148529, 422.14137601852417, 423.12583112716675, 423.2928931713104, 424.0433762073517, 424.16017603874207, 424.277086019516, 424.3938181400299, 424.5105001926422, 424.62750220298767, 424.74415016174316, 424.86103320121765, 424.97773003578186, 425.0947120189667, 425.21137619018555, 425.3282880783081, 425.4449601173401, 425.56185507774353, 425.67857098579407, 425.79550313949585, 425.9120841026306, 426.13317108154297]	[422.0293021457723, 422.145968812439, 423.128968812439, 423.295668812439, 424.045668812439, 424.16233547910565, 424.2790021457723, 424.395668812439, 424.5123354791057, 424.62900214577235, 424.745668812439, 424.8623354791057, 424.97900214577237, 425.09566881243904, 425.2123354791057, 425.3290021457724, 425.44566881243907, 425.56233547910574, 425.6790021457724, 425.7956688124391, 425.91233547910576, 426.1456688124391]	2020_Nov_27_1540	59.85330296647659	1	1
8	71	FALSE	NA	v	['A', 'J', 'S', 'N', 'C', 'U', 'H', 'Z', 'G', 'E', 'X', 'V', 'B', 'T', 'P', 'M']	[697, 1029, 1731, 1335, 829, 2059, 986, 2911, 944, 904, 4000, 2245, 760, 1888, 1456, 1224]	11	Present	NA	NA	PRESENT	0.05830311775207519	428.1402740478515	430.1445941925049	431.0782370567322	431.4285969734192	434.2495381832123	4.1049439907073975	[428.14788913726807, 428.2648091316223, 429.2491362094879, 429.4158020019531, 430.16669821739197, 430.2835121154785, 430.4003920555115, 430.5171411037445, 430.6339771747589, 430.7507891654968, 430.86753010749817, 430.98428416252136, 431.1010751724243, 431.2177531719208, 431.33460903167725, 431.4515891075134, 431.56819009780884, 431.6851260662079, 431.8019440174103, 431.91863107681274, 432.0354051589966, 432.2495381832123]	[428.1456688124391, 428.2623354791058, 429.2453354791058, 429.4120354791058, 430.1620354791058, 430.27870214577246, 430.39536881243913, 430.5120354791058, 430.6287021457725, 430.74536881243915, 430.8620354791058, 430.9787021457725, 431.0953688124392, 431.21203547910585, 431.3287021457725, 431.4453688124392, 431.5620354791059, 431.67870214577255, 431.7953688124392, 431.9120354791059, 432.02870214577257, 432.2620354791059]	2020_Nov_27_1540	59.85330296647659	1	1
8	72	FALSE	NN	v	['U', 'W', 'M', 'N', 'V', 'E', 'J', 'K', 'Y', 'H', 'Z', 'G', 'R', 'C', 'S', 'P']	[2059, 2448, 1224, 1335, 2245, 904, 1029, 1122, 2670, 986, 2911, 944, 1587, 829, 1731, 1456]	9	Absent	NA	NA	ABSENT	0.2235579490661621	434.26397919654846	436.2608861923218	436.9613950252533	437.3114411830902	440.3659040927887	4.105017900466919	[434.2715730667114, 434.3710570335388, 435.355504989624, 435.5224540233612, 436.28990507125854, 436.3899841308594, 436.5067729949951, 436.623407125473, 436.7402250766754, 436.85700821876526, 436.973797082901, 437.09061312675476, 437.2074661254883, 437.3241991996765, 437.4409680366516, 437.5577700138092, 437.674604177475, 437.79145407676697, 437.9084241390228, 438.0251410007477, 438.1418950557709, 438.365905046463]	[434.2620354791059, 434.3787021457726, 435.3617021457726, 435.5284021457726, 436.2784021457726, 436.39506881243926, 436.51173547910594, 436.6284021457726, 436.7450688124393, 436.86173547910596, 436.97840214577263, 437.0950688124393, 437.211735479106, 437.32840214577266, 437.44506881243933, 437.561735479106, 437.6784021457727, 437.79506881243935, 437.911735479106, 438.0284021457727, 438.1450688124394, 438.3784021457727]	2020_Nov_27_1540	59.85330296647659	1	1
8	73	FALSE	AV	v	['U', 'C', 'W', 'Z', 'T', 'H', 'N', 'surprise', 'P', 'B', 'X', 'S', 'K', 'R', 'Y', 'J']	[2059, 829, 2448, 2911, 1888, 986, 1335, 'stimAuditory/all_stimAuditory/220.wav', 1456, 760, 4000, 1731, 1122, 1587, 2670, 1029]	11	Present	stimAuditory/all_stimAuditory/207.wav	stimVisual/all_stimVisual/102.jpg	PRESENT	0.03615689277648926	440.37010312080383	442.37766098976135	443.3111500740051	443.6612951755524	446.482271194458	4.104610204696655	[440.3776960372925, 440.4943470954895, 441.4787690639496, 441.64573907852173, 442.39633417129517, 442.5133640766144, 442.6300630569458, 442.74669313430786, 442.8634240627289, 442.9803831577301, 443.0970380306244, 443.21396708488464, 443.33083605766296, 443.44753313064575, 443.5643072128296, 443.6812710762024, 443.7978801727295, 443.9146611690521, 444.0315270423889, 444.14836621284485, 444.2655701637268, 444.4822700023651]	[440.3784021457727, 440.4950688124394, 441.4780688124394, 441.6447688124394, 442.3947688124394, 442.51143547910607, 442.62810214577274, 442.7447688124394, 442.8614354791061, 442.97810214577277, 443.09476881243944, 443.2114354791061, 443.3281021457728, 443.44476881243946, 443.56143547910614, 443.6781021457728, 443.7947688124395, 443.91143547910616, 444.02810214577283, 444.1447688124395, 444.2614354791062, 444.49476881243953]	2020_Nov_27_1540	59.85330296647659	1	1
8	74	FALSE	NA	v	['R', 'T', 'B', 'K', 'E', 'U', 'V', 'M', 'C', 'A', 'Z', 'X', 'G', 'J', 'N', 'W']	[1587, 1888, 760, 1122, 904, 2059, 2245, 1224, 829, 697, 2911, 4000, 944, 1029, 1335, 2448]	12	Present	NA	NA	PRESENT	0.05730795860290527	446.49320220947266	448.49367904663086	449.54427218437195	449.89410400390625	452.59863805770874	4.104959011077881	[446.5007951259613, 446.61757612228394, 447.60216307640076, 447.76876306533813, 448.5196261405945, 448.63639402389526, 448.75315618515015, 448.86997509002686, 448.9867751598358, 449.10365104675293, 449.22038316726685, 449.3371551036835, 449.45407819747925, 449.57074904441833, 449.6873869895935, 449.8044021129608, 449.92122411727905, 450.03799319267273, 450.15481519699097, 450.2714021205902, 450.37149119377136, 450.59863805770874]	[446.49476881243953, 446.6114354791062, 447.5944354791062, 447.7611354791062, 448.5111354791062, 448.6278021457729, 448.74446881243955, 448.8611354791062, 448.9778021457729, 449.0944688124396, 449.21113547910625, 449.3278021457729, 449.4444688124396, 449.56113547910627, 449.67780214577294, 449.7944688124396, 449.9111354791063, 450.02780214577297, 450.14446881243964, 450.2611354791063, 450.377802145773, 450.61113547910634]	2020_Nov_27_1540	59.85330296647659	1	1
8	75	FALSE	NN	v	['S', 'K', 'J', 'H', 'T', 'Z', 'V', 'E', 'R', 'P', 'U', 'N', 'Y', 'W', 'C', 'B']	[1731, 1122, 1029, 986, 1888, 2911, 2245, 904, 1587, 1456, 2059, 1335, 2670, 2448, 829, 760]	8	Absent	NA	NA	ABSENT	0.43776988983154297	452.5998980998993	454.6101741790771	455.1939821243286	455.54383611679083	458.71500515937805	4.104830980300903	[452.60749220848083, 452.72406911849976, 453.70841002464294, 453.87549901008606, 454.6262722015381, 454.7429389953613, 454.85965514183044, 454.9765510559082, 455.0933771133423, 455.210009098053, 455.3268129825592, 455.443825006485, 455.5604360103607, 455.6774311065674, 455.79393005371094, 455.91071009635925, 456.0276620388031, 456.14445519447327, 456.2612690925598, 456.3780951499939, 456.4948241710663, 456.71500515937805]	[452.61113547910634, 452.727802145773, 453.710802145773, 453.877502145773, 454.627502145773, 454.7441688124397, 454.86083547910636, 454.97750214577303, 455.0941688124397, 455.2108354791064, 455.32750214577305, 455.4441688124397, 455.5608354791064, 455.6775021457731, 455.79416881243975, 455.9108354791064, 456.0275021457731, 456.1441688124398, 456.26083547910645, 456.3775021457731, 456.4941688124398, 456.72750214577314]	2020_Nov_27_1540	59.85330296647659	1	1
8	76	FALSE	NV	v	['V', 'W', 'G', 'H', 'C', 'E', 'N', 'X', 'Z', 'J', 'S', 'U', 'K', 'B', 'R', 'Y']	[2245, 2448, 944, 986, 829, 904, 1335, 4000, 2911, 1029, 1731, 2059, 1122, 760, 1587, 2670]	8	Present	NA	NA	PRESENT	0.09041190147399902	458.72285318374634	460.72643303871155	461.3101511001587	461.6605861186981	464.83137106895447	4.10493803024292	[458.730446100235, 458.8473150730133, 459.8316421508789, 459.9984230995178, 460.74928307533264, 460.8660261631012, 460.9828701019287, 461.09961700439453, 461.21648716926575, 461.3331301212311, 461.4499340057373, 461.5668799877167, 461.6837069988251, 461.80058002471924, 461.9172639846802, 462.0339021682739, 462.1507890224457, 462.2677161693573, 462.38432121276855, 462.5013020038605, 462.61793518066406, 462.83137106895447]	[458.72750214577314, 458.8441688124398, 459.8271688124398, 459.9938688124398, 460.7438688124398, 460.8605354791065, 460.97720214577316, 461.09386881243984, 461.2105354791065, 461.3272021457732, 461.44386881243986, 461.56053547910653, 461.6772021457732, 461.7938688124399, 461.91053547910656, 462.02720214577323, 462.1438688124399, 462.2605354791066, 462.37720214577325, 462.4938688124399, 462.6105354791066, 462.84386881243995]	2020_Nov_27_1540	59.85330296647659	1	1
8	77	FALSE	NA	v	['N', 'A', 'H', 'Z', 'T', 'V', 'K', 'Y', 'M', 'P', 'X', 'G', 'W', 'S', 'J', 'R']	[1335, 697, 986, 2911, 1888, 2245, 1122, 2670, 1224, 1456, 4000, 944, 2448, 1731, 1029, 1587]	11	Present	NA	NA	PRESENT	0.07173490524291992	464.82962799072266	466.8426921367645	467.77658104896545	468.1266980171203	470.9477381706238	4.105046033859253	[464.8372211456299, 464.9537751674652, 465.93811416625977, 466.1051092147827, 466.8724901676178, 466.9725921154022, 467.0893621444702, 467.20617604255676, 467.3229420185089, 467.43989515304565, 467.55643701553345, 467.67322611808777, 467.790057182312, 467.907014131546, 468.02365612983704, 468.1406400203705, 468.2572810649872, 468.3742210865021, 468.4908220767975, 468.6079361438751, 468.72440814971924, 468.9477381706238]	[464.84386881243995, 464.9605354791066, 465.94353547910663, 466.1102354791066, 466.8602354791066, 466.9769021457733, 467.09356881243997, 467.21023547910664, 467.3269021457733, 467.44356881244, 467.56023547910667, 467.67690214577334, 467.79356881244, 467.9102354791067, 468.02690214577336, 468.14356881244004, 468.2602354791067, 468.3769021457734, 468.49356881244006, 468.61023547910673, 468.7269021457734, 468.96023547910676]	2020_Nov_27_1540	59.85330296647659	1	1
8	78	FALSE	NV	v	['U', 'P', 'M', 'Z', 'R', 'N', 'C', 'W', 'T', 'X', 'B', 'S', 'V', 'K', 'H', 'E']	[2059, 1456, 1224, 2911, 1587, 1335, 829, 2448, 1888, 4000, 760, 1731, 2245, 1122, 986, 904]	10	Present	NA	NA	PRESENT	0.1483149528503418	470.9527430534363	472.9591190814972	473.7762761116028	474.1261041164398	477.0641040802002	4.104984998703003	[470.9603362083435, 471.07713413238525, 472.06151700019836, 472.22816920280457, 472.9789311885834, 473.09590101242065, 473.21263313293457, 473.3295910358429, 473.44622707366943, 473.56316113471985, 473.67976117134094, 473.7966651916504, 473.9133059978485, 474.03010511398315, 474.14704298973083, 474.26391410827637, 474.3805000782013, 474.49737310409546, 474.6141710281372, 474.7309260368347, 474.8476572036743, 475.0641031265259]	[470.96023547910676, 471.07690214577343, 472.05990214577344, 472.2266021457734, 472.9766021457734, 473.0932688124401, 473.2099354791068, 473.32660214577345, 473.4432688124401, 473.5599354791068, 473.6766021457735, 473.79326881244015, 473.9099354791068, 474.0266021457735, 474.14326881244017, 474.25993547910684, 474.3766021457735, 474.4932688124402, 474.60993547910687, 474.72660214577354, 474.8432688124402, 475.07660214577356]	2020_Nov_27_1540	59.85330296647659	1	1
8	79	FALSE	NV	v	['G', 'U', 'T', 'V', 'Y', 'P', 'A', 'J', 'X', 'K', 'C', 'N', 'Z', 'H', 'E', 'R']	[944, 2059, 1888, 2245, 2670, 1456, 697, 1029, 4000, 1122, 829, 1335, 2911, 986, 904, 1587]	9	Present	NA	NA	PRESENT	0.03357982635498047	477.07584714889526	479.0755372047424	479.77632904052734	480.1258821487427	483.1804711818695	4.104933977127075	[477.0834400653839, 477.2003571987152, 478.18452310562134, 478.35143208503723, 479.1024281978607, 479.21911811828613, 479.33596110343933, 479.45263719558716, 479.5694739818573, 479.68642711639404, 479.8029980659485, 479.91979718208313, 480.0366051197052, 480.1535210609436, 480.27002000808716, 480.3869800567627, 480.5038471221924, 480.62070298194885, 480.73747205734253, 480.8539969921112, 480.95412015914917, 481.1804711818695]	[477.07660214577356, 477.19326881244024, 478.17626881244024, 478.34296881244023, 479.09296881244023, 479.2096354791069, 479.3263021457736, 479.44296881244026, 479.55963547910693, 479.6763021457736, 479.7929688124403, 479.90963547910695, 480.0263021457736, 480.1429688124403, 480.259635479107, 480.37630214577365, 480.4929688124403, 480.609635479107, 480.7263021457737, 480.84296881244035, 480.959635479107, 481.19296881244037]	2020_Nov_27_1540	59.85330296647659	1	1
