participant	trial_num	practice	task	condition	RSVP	RAP	probePos	probe_presence	surprise_sound	surprise_img	probe_response	probe_resp_time	first_fixation_time	trial_start_time	surprise_start_time	probe_start_time	trial_end_time	trial_duration	actualEventTimes	plannedEventTimes	date	framerate	marker_vol	RAP_vol
8	1	FALSE	NA	a	['R', 'S', 'K', 'N', 'W', 'B', 'P', 'U', 'T', 'X', 'C', 'Y', 'A', 'Z', 'H', 'J']	[1587, 1731, 1122, 1335, 2448, 760, 1456, 2059, 1888, 4000, 829, 2670, 697, 2911, 986, 1029]	10	Present	NA	NA	ABSENT	0.17055296897888184	2.1457672119140625e-6	1.9904332160949707	2.8071096578767136	3.157111803623926	6.103869915008545	4.113436698913574	[0.019354820251464844, 0.11954498291015625, 1.0871930122375488, 1.2708308696746826, 2.021461009979248, 2.1385579109191895, 2.2551088333129883, 2.3718819618225098, 2.488560914993286, 2.6053988933563232, 2.722343921661377, 2.8389008045196533, 2.9559600353240967, 3.072497844696045, 3.189525842666626, 3.3063559532165527, 3.422837018966675, 3.5400049686431885, 3.656808853149414, 3.773178815841675, 3.8900890350341797, 4.103871822357178]	[1.9073486328125e-06, 0.11666857400863281, 1.0996685740086327, 1.2663685740086328, 2.0163685740086326, 2.1330352406686326, 2.2497019073286326, 2.3663685739886327, 2.4830352406486327, 2.5997019073086327, 2.7163685739686327, 2.8330352406286328, 2.949701907288633, 3.066368573948633, 3.183035240608633, 3.299701907268633, 3.416368573928633, 3.533035240588633, 3.649701907248633, 3.766368573908633, 3.883035240568633, 4.116368573901966]	2020_Nov_27_1519	59.96925976074086	1	0.375
8	2	FALSE	NV	a	['N', 'P', 'B', 'Z', 'U', 'H', 'S', 'A', 'E', 'X', 'W', 'K', 'V', 'G', 'J', 'C']	[1335, 1456, 760, 2911, 2059, 986, 1731, 697, 904, 4000, 2448, 1122, 2245, 944, 1029, 829]	10	Present	NA	NA	PRESENT	0.19976592063903809	6.10641622543335	8.10359501838684	8.92026979123853	9.270271698567162	12.220237016677856	4.116641998291016	[6.125767946243286, 6.242405891418457, 7.203558921813965, 7.377130031585693, 8.127701997756958, 8.244545936584473, 8.361536026000977, 8.478253841400146, 8.595090866088867, 8.711742877960205, 8.828707933425903, 8.945384979248047, 9.062234878540039, 9.178979873657227, 9.295923948287964, 9.41269588470459, 9.529546976089478, 9.64613389968872, 9.763078927993774, 9.879776954650879, 9.996450901031494, 10.22023892402649]	[6.116368573901966, 6.233035240561966, 7.216035240561966, 7.382735240561965, 8.132735240561965, 8.249401907221966, 8.366068573881966, 8.482735240541967, 8.599401907201967, 8.716068573861968, 8.832735240521968, 8.949401907181969, 9.066068573841969, 9.18273524050197, 9.29940190716197, 9.41606857382197, 9.532735240481971, 9.649401907141971, 9.766068573801972, 9.882735240461972, 9.999401907121973, 10.232735240455305]	2020_Nov_27_1519	59.96925976074086	1	0.375
8	3	FALSE	NV	a	['T', 'Y', 'M', 'B', 'A', 'H', 'E', 'X', 'W', 'R', 'C', 'V', 'J', 'U', 'Z', 'P']	[1888, 2670, 1224, 760, 697, 986, 904, 4000, 2448, 1587, 829, 2245, 1029, 2059, 2911, 1456]	8	Present	NA	NA	ABSENT	0.19652700424194336	12.212951183319092	14.21973705291748	14.803077538774854	15.153079446103488	18.336602926254272	4.116865873336792	[12.232302904129028, 12.348748922348022, 13.319928884506226, 13.500221967697144, 14.251264810562134, 14.367843866348267, 14.484628915786743, 14.60117483139038, 14.718025922775269, 14.834940910339355, 14.951555967330933, 15.06834602355957, 15.185359001159668, 15.302001953125, 15.418953895568848, 15.535720825195312, 15.652575016021729, 15.769284009933472, 15.885962009429932, 16.0029559135437, 16.11957097053528, 16.336601972579956]	[12.232735240455305, 12.349401907115306, 13.332401907115306, 13.499101907115307, 14.249101907115307, 14.365768573775307, 14.482435240435308, 14.599101907095308, 14.715768573755309, 14.83243524041531, 14.94910190707531, 15.06576857373531, 15.18243524039531, 15.299101907055311, 15.415768573715312, 15.532435240375312, 15.649101907035313, 15.765768573695313, 15.882435240355314, 15.999101907015314, 16.115768573675314, 16.34910190700865]	2020_Nov_27_1519	59.96925976074086	1	0.375
8	4	FALSE	NA	a	['P', 'V', 'N', 'Z', 'K', 'E', 'Y', 'X', 'G', 'T', 'R', 'W', 'A', 'M', 'B', 'J']	[1456, 2245, 1335, 2911, 1122, 904, 2670, 4000, 944, 1888, 1587, 2448, 697, 1224, 760, 1029]	8	Present	NA	NA	ABSENT	0.2017500400543213	18.335941076278687	20.336289167404175	20.91963036851729	21.269632514264497	24.452970027923584	4.116680860519409	[18.35529398918152, 18.47211194038391, 19.43629288673401, 19.62329602241516, 20.37410593032837, 20.490782022476196, 20.60792088508606, 20.724365949630737, 20.824323892593384, 20.94108486175537, 21.05794382095337, 21.17473793029785, 21.291477918624878, 21.408298015594482, 21.52510094642639, 21.641885995864868, 21.758687019348145, 21.87567400932312, 21.992257833480835, 22.109171867370605, 22.22591495513916, 22.4529709815979]	[18.34910190700865, 18.465768573668647, 19.448768573668648, 19.615468573668647, 20.365468573668647, 20.482135240328645, 20.598801906988644, 20.715468573648643, 20.83213524030864, 20.94880190696864, 21.06546857362864, 21.182135240288638, 21.298801906948636, 21.415468573608635, 21.532135240268634, 21.648801906928632, 21.76546857358863, 21.88213524024863, 21.99880190690863, 22.115468573568627, 22.232135240228626, 22.46546857356196]	2020_Nov_27_1519	59.96925976074086	1	0.375
8	5	FALSE	NN	a	['B', 'C', 'J', 'K', 'U', 'M', 'E', 'Y', 'V', 'A', 'T', 'P', 'S', 'G', 'N', 'Z']	[760, 829, 1029, 1122, 2059, 1224, 904, 2670, 2245, 697, 1888, 1456, 1731, 944, 1335, 2911]	12	Absent	NA	NA	ABSENT	0.23825287818908691	24.44248914718628	26.452468156814575	27.502476024567684	27.85247721664058	30.569337844848633	4.116869688034058	[24.461840867996216, 24.57843589782715, 25.55266284942627, 25.72970485687256, 26.480315923690796, 26.59708881378174, 26.714016914367676, 26.830731868743896, 26.947568893432617, 27.064285039901733, 27.18105697631836, 27.29789400100708, 27.41467595100403, 27.531503915786743, 27.648496866226196, 27.765043020248413, 27.882006883621216, 27.99879503250122, 28.115413904190063, 28.232383966445923, 28.349020957946777, 28.569337844848633]	[24.46546857356196, 24.58213524022196, 25.56513524022196, 25.731835240221958, 26.481835240221958, 26.598501906881957, 26.715168573541956, 26.831835240201954, 26.948501906861953, 27.06516857352195, 27.18183524018195, 27.29850190684195, 27.415168573501948, 27.531835240161946, 27.648501906821945, 27.765168573481944, 27.881835240141942, 27.99850190680194, 28.11516857346194, 28.23183524012194, 28.348501906781937, 28.58183524011527]	2020_Nov_27_1519	59.96925976074086	1	0.375
8	6	FALSE	AV	a	['P', 'G', 'Z', 'R', 'surprise', 'W', 'M', 'X', 'A', 'C', 'V', 'Y', 'U', 'N', 'B', 'S']	[1456, 944, 2911, 1587, 'stimAuditory/all_stimAuditory/201.wav', 2448, 1224, 4000, 697, 829, 2245, 2670, 2059, 1335, 760, 1731]	8	Present	stimAuditory/all_stimAuditory/201.wav	NA	ABSENT	0.14669418334960938	30.565314054489136	32.569053173065186	33.15239437417829	33.502396519925504	36.68570399284363	4.116650819778442	[30.58466601371765, 30.70155382156372, 31.669030904769897, 31.852744817733765, 32.60336899757385, 32.72028684616089, 32.836840867996216, 32.95395302772522, 33.07062792778015, 33.187543869018555, 33.30414080619812, 33.42101502418518, 33.537619829177856, 33.65487599372864, 33.77139592170715, 33.88800597190857, 34.004843950271606, 34.1219048500061, 34.23867988586426, 34.355371952056885, 34.47234392166138, 34.68570590019226]	[30.58183524011527, 30.69850190677527, 31.68150190677527, 31.84820190677527, 32.59820190677527, 32.714868573435275, 32.83153524009528, 32.94820190675528, 33.06486857341528, 33.181535240075284, 33.29820190673529, 33.41486857339529, 33.53153524005529, 33.64820190671529, 33.764868573375296, 33.8815352400353, 33.9982019066953, 34.1148685733553, 34.231535240015305, 34.34820190667531, 34.46486857333531, 34.69820190666864]	2020_Nov_27_1519	59.96925976074086	1	0.375
8	7	FALSE	NA	a	['G', 'U', 'T', 'E', 'P', 'S', 'Y', 'K', 'X', 'A', 'W', 'H', 'V', 'R', 'J', 'C']	[944, 2059, 1888, 904, 1456, 1731, 2670, 1122, 4000, 697, 2448, 986, 2245, 1587, 1029, 829]	9	Present	NA	NA	ABSENT	0.08015584945678711	36.671438217163086	38.685328006744385	39.38533515926176	39.73533706659039	42.80207085609436	4.116742849349976	[36.69078993797302, 36.807677030563354, 37.78539490699768, 37.9591429233551, 38.709619998931885, 38.82646989822388, 38.94346594810486, 39.06006598472595, 39.17705702781677, 39.293731927871704, 39.41065692901611, 39.52734398841858, 39.644147872924805, 39.76094198226929, 39.87767481803894, 39.99456286430359, 40.1114399433136, 40.228127002716064, 40.34498596191406, 40.46164083480835, 40.57858395576477, 40.80207180976868]	[36.69820190666864, 36.814868573328646, 37.79786857332864, 37.96456857332864, 38.71456857332864, 38.831235239988644, 38.947901906648646, 39.06456857330865, 39.18123523996865, 39.29790190662865, 39.414568573288655, 39.53123523994866, 39.64790190660866, 39.76456857326866, 39.881235239928664, 39.997901906588666, 40.11456857324867, 40.23123523990867, 40.34790190656867, 40.464568573228675, 40.58123523988868, 40.81456857322201]	2020_Nov_27_1519	59.96925976074086	1	0.375
8	8	FALSE	NV	a	['W', 'H', 'C', 'Z', 'B', 'A', 'M', 'X', 'T', 'Y', 'N', 'J', 'E', 'U', 'G', 'S']	[2448, 986, 829, 2911, 760, 697, 1224, 4000, 1888, 2670, 1335, 1029, 904, 2059, 944, 1731]	8	Present	NA	NA	ABSENT	0.06079411506652832	42.79480814933777	44.80161905288696	45.38495953874433	45.734961446072965	48.918437004089355	4.116817951202393	[42.814159870147705, 42.93075895309448, 43.901758909225464, 44.082448959350586, 44.83294200897217, 44.949684858322144, 45.06649303436279, 45.1833438873291, 45.299909830093384, 45.4168918132782, 45.533519983291626, 45.65043783187866, 45.767279863357544, 45.884095907211304, 46.000757932662964, 46.11764693260193, 46.23438501358032, 46.351263999938965, 46.46796703338623, 46.58486199378967, 46.70152688026428, 46.91843795776367]	[42.81456857322201, 42.931235239882014, 43.91423523988201, 44.08093523988201, 44.83093523988201, 44.94760190654201, 45.064268573202014, 45.180935239862016, 45.29760190652202, 45.41426857318202, 45.53093523984202, 45.647601906502025, 45.76426857316203, 45.88093523982203, 45.99760190648203, 46.114268573142034, 46.23093523980204, 46.34760190646204, 46.46426857312204, 46.58093523978204, 46.697601906442046, 46.93093523977538]	2020_Nov_27_1519	59.96925976074086	1	0.375
8	9	FALSE	VV	a	['M', 'G', 'H', 'C', 'surprise', 'Y', 'T', 'X', 'K', 'S', 'B', 'W', 'Z', 'U', 'J', 'E']	[1224, 944, 986, 829, 'stimAuditory/all_stimAuditory/209.wav', 2670, 1888, 4000, 1122, 1731, 760, 2448, 2911, 2059, 1029, 904]	8	Present	NA	NA	ABSENT	0.10561299324035645	48.918002128601074	50.918156147003174	51.501496394441965	51.851498540189176	55.03480386734009	4.116647720336914	[48.93735384941101, 49.054083824157715, 50.01812791824341, 50.20514702796936, 50.95587992668152, 51.0559298992157, 51.172688007354736, 51.28949284553528, 51.40623903274536, 51.523090839385986, 51.63987588882446, 51.75663089752197, 51.87351703643799, 51.990229845047, 52.107165813446045, 52.223848819732666, 52.34087085723877, 52.45743989944458, 52.57446503639221, 52.69103384017944, 52.807854890823364, 53.03480291366577]	[48.93093523977538, 49.04760190643538, 50.03060190643538, 50.19730190643538, 50.94730190643538, 51.06396857309538, 51.18063523975538, 51.297301906415385, 51.41396857307539, 51.53063523973539, 51.64730190639539, 51.763968573055394, 51.880635239715396, 51.9973019063754, 52.1139685730354, 52.2306352396954, 52.347301906355405, 52.46396857301541, 52.58063523967541, 52.69730190633541, 52.813968572995414, 53.04730190632875]	2020_Nov_27_1519	59.96925976074086	1	0.375
8	10	FALSE	NN	a	['C', 'K', 'B', 'R', 'J', 'V', 'U', 'Y', 'W', 'A', 'S', 'H', 'P', 'T', 'G', 'N']	[829, 1122, 760, 1587, 1029, 2245, 2059, 2670, 2448, 697, 1731, 986, 1456, 1888, 944, 1335]	12	Absent	NA	NA	ABSENT	0.03840112686157226	55.02477717399597	57.03423905372619	58.08424620622357	58.4342481135522	61.1511709690094	4.116931915283203	[55.04412889480591, 55.1601459980011, 56.13449692726135, 56.31163287162781, 57.06228184700012, 57.179091930389404, 57.29596400260925, 57.41262984275818, 57.529393911361694, 57.646296977996826, 57.76295781135559, 57.87992286682129, 57.99651098251343, 58.11336588859558, 58.230299949645996, 58.347074031829834, 58.463796854019165, 58.580617904663086, 58.69732403755188, 58.81429982185364, 58.93096089363098, 59.151171922683716]	[55.04730190632875, 55.16396857298875, 56.14696857298875, 56.313668572988746, 57.063668572988746, 57.18033523964875, 57.29700190630875, 57.41366857296875, 57.530335239628755, 57.64700190628876, 57.76366857294876, 57.88033523960876, 57.997001906268764, 58.113668572928766, 58.23033523958877, 58.34700190624877, 58.46366857290877, 58.580335239568775, 58.69700190622878, 58.81366857288878, 58.93033523954878, 59.163668572882116]	2020_Nov_27_1519	59.96925976074086	1	0.375
8	11	FALSE	NV	a	['J', 'B', 'C', 'N', 'H', 'E', 'W', 'S', 'Y', 'U', 'G', 'T', 'P', 'X', 'M', 'V']	[1029, 760, 829, 1335, 986, 904, 2448, 1731, 2670, 2059, 944, 1888, 1456, 4000, 1224, 2245]	14	Present	NA	NA	PRESENT	0.09883904457092284	61.14741206169128	63.15076804161072	64.43410948110241	64.78411138843104	67.26753783226013	4.116769790649414	[61.1667640209198, 61.28344798088074, 62.25086283683777, 62.43463397026062, 63.18540382385254, 63.302156925201416, 63.41881990432739, 63.535884857177734, 63.65252685546875, 63.76939392089844, 63.886005878448486, 64.00299286842346, 64.1197898387909, 64.23665189743042, 64.35345101356506, 64.47013998031616, 64.58712387084961, 64.70362997055054, 64.82053399085999, 64.93734288215637, 65.0541398525238, 65.26753687858582]	[61.163668572882116, 61.28033523954212, 62.263335239542116, 62.430035239542114, 63.180035239542114, 63.29670190620212, 63.41336857286212, 63.53003523952212, 63.64670190618212, 63.763368572842126, 63.88003523950213, 63.99670190616213, 64.11336857282213, 64.23003523948212, 64.34670190614212, 64.46336857280211, 64.5800352394621, 64.6967019061221, 64.8133685727821, 64.93003523944209, 65.04670190610209, 65.28003523943542]	2020_Nov_27_1519	59.96925976074086	1	0.375
8	12	FALSE	AA	a	['G', 'W', 'C', 'M', 'V', 'J', 'surprise', 'S', 'R', 'X', 'U', 'Z', 'K', 'H', 'P', 'A']	[944, 2448, 829, 1224, 2245, 1029, 'stimAuditory/all_stimAuditory/117.wav', 1731, 1587, 4000, 2059, 2911, 1122, 986, 1456, 697]	10	Present	stimAuditory/all_stimAuditory/209.wav	NA	ABSENT	0.11236691474914552	67.2536461353302	69.26694917678833	70.08362371122143	70.43362585696865	73.38390493392944	4.116955757141113	[67.27299785614014, 67.38971590995789, 68.36722803115845, 68.54107880592346, 69.29169297218323, 69.40858387947083, 69.52545094490051, 69.64202499389648, 69.75903391838074, 69.87568783760071, 69.99245381355286, 70.10925197601318, 70.22614192962646, 70.34290599822998, 70.45956897735596, 70.57646799087524, 70.69336986541748, 70.81016182899475, 70.92699098587036, 71.0437798500061, 71.16055393218994, 71.38390398025513]	[67.28003523943542, 67.39670190609542, 68.37970190609542, 68.54640190609543, 69.29640190609543, 69.41306857275542, 69.52973523941542, 69.64640190607541, 69.7630685727354, 69.8797352393954, 69.9964019060554, 70.11306857271539, 70.22973523937539, 70.34640190603538, 70.46306857269538, 70.57973523935537, 70.69640190601537, 70.81306857267536, 70.92973523933536, 71.04640190599535, 71.16306857265535, 71.39640190598868]	2020_Nov_27_1519	59.96925976074086	1	0.375
8	13	FALSE	NN	a	['V', 'H', 'K', 'B', 'A', 'C', 'T', 'W', 'J', 'M', 'U', 'R', 'Y', 'P', 'G', 'Z']	[2245, 986, 1122, 760, 697, 829, 1888, 2448, 1029, 1224, 2059, 1587, 2670, 1456, 944, 2911]	12	Absent	NA	NA	ABSENT	0.07681989669799805	73.37682318687439	75.3835461139679	76.43355422013958	76.78355612746822	79.50026988983154	4.1167237758636475	[73.39617490768433, 73.51288890838623, 74.48359394073486, 74.66451096534729, 75.414803981781, 75.53177881240845, 75.64851593971252, 75.76509284973145, 75.88196182250977, 75.9988968372345, 76.11550498008728, 76.23247599601746, 76.34928798675537, 76.46590399742126, 76.5827248096466, 76.69948983192444, 76.81629180908203, 76.93318891525269, 77.04991483688354, 77.16691589355469, 77.28343892097473, 77.50026988983154]	[73.39640190598868, 73.51306857264868, 74.49606857264868, 74.66276857264869, 75.41276857264869, 75.52943523930868, 75.64610190596868, 75.76276857262867, 75.87943523928867, 75.99610190594866, 76.11276857260866, 76.22943523926865, 76.34610190592865, 76.46276857258864, 76.57943523924864, 76.69610190590863, 76.81276857256863, 76.92943523922862, 77.04610190588862, 77.16276857254861, 77.27943523920861, 77.51276857254194]	2020_Nov_27_1519	59.96925976074086	1	0.375
8	14	FALSE	NV	a	['S', 'P', 'Y', 'J', 'E', 'G', 'M', 'Z', 'T', 'A', 'B', 'V', 'H', 'X', 'U', 'R']	[1731, 1456, 2670, 1029, 904, 944, 1224, 2911, 1888, 697, 760, 2245, 986, 4000, 2059, 1587]	14	Present	NA	NA	ABSENT	0.27416205406188965	79.50000500679016	81.50020503997803	82.78354743314404	83.13355053256556	85.61663699150085	4.116431951522827	[79.51935982704163, 79.63612294197083, 80.59996390342712, 80.78712582588196, 81.53807091712952, 81.63790893554688, 81.75472688674927, 81.87150692939758, 81.98824691772461, 82.10504484176636, 82.22185587882996, 82.33863091468811, 82.45548701286316, 82.57220387458801, 82.68907403945923, 82.8058660030365, 82.92279601097107, 83.03945302963257, 83.15642595291138, 83.27312898635864, 83.38974189758301, 83.61663699150085]	[79.51276857254194, 79.62943523920194, 80.61243523920194, 80.77913523920195, 81.52913523920195, 81.64580190586194, 81.76246857252194, 81.87913523918193, 81.99580190584193, 82.11246857250192, 82.22913523916192, 82.34580190582192, 82.46246857248191, 82.5791352391419, 82.6958019058019, 82.8124685724619, 82.92913523912189, 83.04580190578189, 83.16246857244188, 83.27913523910188, 83.39580190576187, 83.6291352390952]	2020_Nov_27_1519	59.96925976074086	1	0.375
8	15	FALSE	VA	a	['Z', 'T', 'B', 'U', 'surprise', 'A', 'R', 'X', 'J', 'S', 'Y', 'P', 'E', 'N', 'M', 'V']	[2911, 1888, 760, 2059, 'stimAuditory/all_stimAuditory/224.wav', 697, 1587, 4000, 1029, 1731, 2670, 1456, 904, 1335, 1224, 2245]	8	Present	NA	NA	ABSENT	0.2706921100616455	85.60662603378296	87.6161150932312	88.19945748643721	88.54945939376584	91.7330038547516	4.116888761520386	[85.62597799301147, 85.7422878742218, 86.71632885932922, 86.89365983009338, 87.64420795440674, 87.76125192642212, 87.87782001495361, 87.99468493461609, 88.11137986183167, 88.22826600074768, 88.34505200386047, 88.46185088157654, 88.57851600646973, 88.69545793533325, 88.81225180625916, 88.92902398109436, 89.04586696624756, 89.1624698638916, 89.27927994728088, 89.39632487297058, 89.51301884651184, 89.73300385475159]	[85.6291352390952, 85.7458019057552, 86.7288019057552, 86.89550190575521, 87.64550190575521, 87.7621685724152, 87.8788352390752, 87.9955019057352, 88.11216857239519, 88.22883523905519, 88.34550190571518, 88.46216857237518, 88.57883523903517, 88.69550190569517, 88.81216857235516, 88.92883523901516, 89.04550190567515, 89.16216857233515, 89.27883523899514, 89.39550190565514, 89.51216857231513, 89.74550190564847]	2020_Nov_27_1519	59.96925976074086	1	0.375
8	16	FALSE	NV	a	['R', 'G', 'W', 'K', 'S', 'B', 'H', 'U', 'E', 'Y', 'M', 'X', 'A', 'Z', 'T', 'C']	[1587, 944, 2448, 1122, 1731, 760, 986, 2059, 904, 2670, 1224, 4000, 697, 2911, 1888, 829]	12	Present	NA	NA	PRESENT	0.29120492935180664	91.729168176651	93.73265409469604	94.78266220086772	95.13266410819637	97.84937000274658	4.116715908050537	[91.74852085113525, 91.86550092697144, 92.83269500732422, 93.01649284362793, 93.76748394966125, 93.88444995880127, 94.0010678768158, 94.11781287193298, 94.23467588424683, 94.35135388374329, 94.46819591522217, 94.5849289894104, 94.70185899734497, 94.81855297088623, 94.9352400302887, 95.05214881896973, 95.16890096664429, 95.28558492660522, 95.40234398841858, 95.51923298835754, 95.63655400276184, 95.84937000274658]	[91.74550190564847, 91.86216857230846, 92.84516857230847, 93.01186857230847, 93.76186857230847, 93.87853523896847, 93.99520190562846, 94.11186857228846, 94.22853523894845, 94.34520190560845, 94.46186857226844, 94.57853523892844, 94.69520190558843, 94.81186857224843, 94.92853523890842, 95.04520190556842, 95.16186857222841, 95.27853523888841, 95.3952019055484, 95.5118685722084, 95.6285352388684, 95.86186857220173]	2020_Nov_27_1519	59.96925976074086	1	0.375
8	17	FALSE	NV	a	['Y', 'B', 'S', 'J', 'C', 'V', 'N', 'E', 'M', 'A', 'Z', 'H', 'X', 'U', 'T', 'G']	[2670, 760, 1731, 1029, 829, 2245, 1335, 904, 1224, 697, 2911, 986, 4000, 2059, 1888, 944]	13	Present	NA	NA	ABSENT	0.4644169807434082	97.8354949951172	99.84881019592284	101.01548473033596	101.36548687608315	103.96573686599731	4.116926670074463	[97.8548469543457, 97.97169184684753, 98.9490578174591, 99.1230959892273, 99.87370681762695, 99.99061584472656, 100.10734486579895, 100.22417902946472, 100.34091591835022, 100.45771288871765, 100.57453203201294, 100.69130182266235, 100.80810284614563, 100.92500400543213, 101.04154682159424, 101.1585648059845, 101.27519392967224, 101.3921070098877, 101.50877285003662, 101.62571787834167, 101.74239182472229, 101.965735912323]	[97.86186857220173, 97.97853523886172, 98.96153523886173, 99.12823523886173, 99.87823523886173, 99.99490190552173, 100.11156857218172, 100.22823523884172, 100.34490190550171, 100.46156857216171, 100.5782352388217, 100.6949019054817, 100.8115685721417, 100.92823523880169, 101.04490190546169, 101.16156857212168, 101.27823523878168, 101.39490190544167, 101.51156857210167, 101.62823523876166, 101.74490190542166, 101.97823523875499]	2020_Nov_27_1519	59.96925976074086	1	0.375
8	18	FALSE	NV	a	['E', 'J', 'Z', 'B', 'V', 'W', 'U', 'S', 'X', 'G', 'H', 'T', 'N', 'Y', 'R', 'C']	[904, 1029, 2911, 760, 2245, 2448, 2059, 1731, 4000, 944, 986, 1888, 1335, 2670, 1587, 829]	9	Present	NA	NA	ABSENT	0.0291149616241455	103.95881700515748	105.96523118019104	106.66523809428983	107.01524119371136	110.08210396766664	4.116872787475586	[103.97816896438599, 104.09498500823975, 105.06542801856995, 105.24615287780762, 105.99719500541687, 106.11373090744019, 106.23060083389282, 106.3473448753357, 106.46397280693054, 106.58063793182373, 106.69750189781189, 106.81442880630493, 106.9311318397522, 107.04790496826172, 107.1646409034729, 107.28172492980957, 107.39837694168091, 107.5152018070221, 107.63182091712952, 107.74873995780945, 107.86547684669495, 108.08210396766663]	[103.97823523875499, 104.09490190541499, 105.07790190541499, 105.244601905415, 105.994601905415, 106.11126857207499, 106.22793523873499, 106.34460190539498, 106.46126857205498, 106.57793523871497, 106.69460190537497, 106.81126857203496, 106.92793523869496, 107.04460190535495, 107.16126857201495, 107.27793523867494, 107.39460190533494, 107.51126857199493, 107.62793523865493, 107.74460190531492, 107.86126857197492, 108.09460190530825]	2020_Nov_27_1519	59.96925976074086	1	0.375
8	19	FALSE	NA	a	['H', 'R', 'P', 'U', 'J', 'Y', 'M', 'A', 'X', 'B', 'E', 'T', 'W', 'N', 'G', 'V']	[986, 1587, 1456, 2059, 1029, 2670, 1224, 697, 4000, 760, 904, 1888, 2448, 1335, 944, 2245]	9	Present	NA	NA	ABSENT	0.14642691612243652	110.08194613456726	112.08149313926695	112.78150005336576	113.13150219911296	116.19847083091736	4.116977691650391	[110.10129880905151, 110.21811699867249, 111.18179702758789, 111.36901593208313, 112.11985898017883, 112.21990394592285, 112.33673095703125, 112.45352697372437, 112.57037401199341, 112.68705892562866, 112.8037748336792, 112.92059087753296, 113.03737998008728, 113.1542158126831, 113.27101993560791, 113.38778591156006, 113.50452780723572, 113.62136483192444, 113.73840594291687, 113.85512280464172, 113.97174286842346, 114.19847083091736]	[110.09460190530825, 110.21126857196825, 111.19426857196825, 111.36096857196826, 112.11096857196826, 112.22763523862825, 112.34430190528825, 112.46096857194824, 112.57763523860824, 112.69430190526823, 112.81096857192823, 112.92763523858822, 113.04430190524822, 113.16096857190821, 113.27763523856821, 113.3943019052282, 113.5109685718882, 113.6276352385482, 113.74430190520819, 113.86096857186818, 113.97763523852818, 114.21096857186151]	2020_Nov_27_1519	59.96925976074086	1	0.375
8	20	FALSE	NA	a	['S', 'Z', 'E', 'B', 'C', 'N', 'A', 'X', 'T', 'G', 'J', 'M', 'Y', 'V', 'P', 'R']	[1731, 2911, 904, 760, 829, 1335, 697, 4000, 1888, 944, 1029, 1224, 2670, 2245, 1456, 1587]	8	Present	NA	NA	PRESENT	0.22285079956054688	116.1885859966278	118.19840812683104	118.78174837426984	119.13175147369138	122.31483793258668	4.116429805755615	[116.20793795585632, 116.32436394691467, 117.29816389083862, 117.47563290596008, 118.22619080543518, 118.34310102462769, 118.4600739479065, 118.57678389549255, 118.69343090057373, 118.81027793884277, 118.92700290679932, 119.04381084442139, 119.16048789024353, 119.27736687660217, 119.39415097236633, 119.51105785369873, 119.6276319026947, 119.74461793899536, 119.86132597923279, 119.97826981544495, 120.09502983093262, 120.31483793258667]	[116.21096857186151, 116.32763523852151, 117.31063523852151, 117.47733523852152, 118.22733523852152, 118.34400190518151, 118.46066857184151, 118.5773352385015, 118.6940019051615, 118.8106685718215, 118.92733523848149, 119.04400190514149, 119.16066857180148, 119.27733523846148, 119.39400190512147, 119.51066857178147, 119.62733523844146, 119.74400190510146, 119.86066857176145, 119.97733523842145, 120.09400190508144, 120.32733523841478]	2020_Nov_27_1519	59.96925976074086	1	0.375
8	21	FALSE	NA	a	['P', 'T', 'E', 'S', 'Y', 'U', 'V', 'W', 'B', 'J', 'X', 'G', 'M', 'Z', 'R', 'H']	[1456, 1888, 904, 1731, 2670, 2059, 2245, 2448, 760, 1029, 4000, 944, 1224, 2911, 1587, 986]	11	Present	NA	NA	ABSENT	0.25168299674987793	122.3113420009613	124.31437015533449	125.2477113564276	125.5977135021748	128.4312038421631	4.116833686828613	[122.3306930065155, 122.44757103919983, 123.4145278930664, 123.59870982170105, 124.34930491447449, 124.46628093719482, 124.58293294906616, 124.69967794418335, 124.81667280197144, 124.9332959651947, 125.05012083053589, 125.16683197021484, 125.28359794616699, 125.4005868434906, 125.51731181144714, 125.63444590568542, 125.75084185600281, 125.86767387390137, 125.98449897766113, 126.10141086578369, 126.21812796592712, 126.43120193481445]	[122.32733523841478, 122.44400190507477, 123.42700190507477, 123.59370190507478, 124.34370190507478, 124.46036857173478, 124.57703523839477, 124.69370190505477, 124.81036857171476, 124.92703523837476, 125.04370190503475, 125.16036857169475, 125.27703523835474, 125.39370190501474, 125.51036857167473, 125.62703523833473, 125.74370190499472, 125.86036857165472, 125.97703523831471, 126.09370190497471, 126.2103685716347, 126.44370190496804]	2020_Nov_27_1519	59.96925976074086	1	0.375
8	22	FALSE	NA	a	['A', 'R', 'T', 'M', 'V', 'S', 'J', 'K', 'H', 'X', 'Y', 'B', 'N', 'P', 'E', 'Z']	[697, 1587, 1888, 1224, 2245, 1731, 1029, 1122, 986, 4000, 2670, 760, 1335, 1456, 904, 2911]	10	Present	NA	NA	ABSENT	0.2568349838256836	128.41756200790405	130.43068599700928	131.24736076986096	131.5973626771896	134.5475709438324	4.11688494682312	[128.43691396713257, 128.5537428855896, 129.53089380264282, 129.70509481430054, 130.455668926239, 130.57257294654846, 130.6894919872284, 130.80613803863525, 130.92291593551636, 131.0398199558258, 131.15643286705017, 131.2733929157257, 131.389986038208, 131.5069088935852, 131.62356996536255, 131.74047899246216, 131.857323884964, 131.97405099868774, 132.09080481529236, 132.2074489593506, 132.32444882392883, 132.54756999015808]	[128.44370190496804, 128.56036857162803, 129.54336857162804, 129.71006857162803, 130.46006857162803, 130.57673523828802, 130.69340190494802, 130.810068571608, 130.926735238268, 131.043401904928, 131.160068571588, 131.276735238248, 131.393401904908, 131.51006857156798, 131.62673523822798, 131.74340190488797, 131.86006857154797, 131.97673523820797, 132.09340190486796, 132.21006857152796, 132.32673523818795, 132.56006857152127]	2020_Nov_27_1519	59.96925976074086	1	0.375
8	23	FALSE	VV	a	['E', 'W', 'G', 'U', 'V', 'surprise', 'B', 'A', 'X', 'S', 'H', 'R', 'M', 'P', 'J', 'C']	[904, 2448, 944, 2059, 2245, 'stimAuditory/all_stimAuditory/202.wav', 760, 697, 4000, 1731, 986, 1587, 1224, 1456, 1029, 829]	9	Present	NA	NA	PRESENT	0.08535099029541016	134.54058408737183	136.5471580028534	137.24716610904508	137.59716801637373	140.66393780708313	4.116779804229736	[134.55993700027466, 134.6768388748169, 135.64726400375366, 135.82835793495178, 136.5788209438324, 136.6957128047943, 136.81243991851807, 136.92927289009094, 137.04605984687805, 137.1627118587494, 137.2796289920807, 137.3962528705597, 137.51317286491394, 137.62971901893616, 137.74669194221497, 137.86337685585022, 137.98032593727112, 138.09719395637512, 138.2137908935547, 138.33075094223022, 138.44761180877686, 138.66393780708313]	[134.56006857152127, 134.67673523818127, 135.65973523818127, 135.82643523818126, 136.57643523818126, 136.69310190484126, 136.80976857150125, 136.92643523816125, 137.04310190482124, 137.15976857148124, 137.27643523814123, 137.39310190480123, 137.50976857146122, 137.62643523812122, 137.7431019047812, 137.8597685714412, 137.9764352381012, 138.0931019047612, 138.2097685714212, 138.3264352380812, 138.44310190474118, 138.6764352380745]	2020_Nov_27_1519	59.96925976074086	1	0.375
8	24	FALSE	NV	a	['G', 'J', 'Y', 'S', 'V', 'R', 'U', 'A', 'B', 'M', 'N', 'Z', 'X', 'H', 'T', 'C']	[944, 1029, 2670, 1731, 2245, 1587, 2059, 697, 760, 1224, 1335, 2911, 4000, 986, 1888, 829]	13	Present	NA	NA	ABSENT	0.242628812789917	140.66388821601868	142.66334104537964	143.83001581821134	144.18001867921427	146.78030490875244	4.116963863372803	[140.6832399368286, 140.79998993873596, 141.76362895965576, 141.95116591453552, 142.70205092430115, 142.80190086364746, 142.91866302490234, 143.03549599647522, 143.1523048877716, 143.26913785934448, 143.3859748840332, 143.502525806427, 143.61938881874084, 143.73616480827332, 143.85291695594788, 143.96990084648132, 144.08651995658875, 144.20354080200195, 144.3201608657837, 144.43717503547668, 144.55381202697754, 144.78030586242676]	[140.6764352380745, 140.7931019047345, 141.7761019047345, 141.9428019047345, 142.6928019047345, 142.8094685713945, 142.92613523805448, 143.04280190471448, 143.15946857137448, 143.27613523803447, 143.39280190469447, 143.50946857135446, 143.62613523801446, 143.74280190467445, 143.85946857133445, 143.97613523799444, 144.09280190465444, 144.20946857131443, 144.32613523797443, 144.44280190463442, 144.55946857129442, 144.79280190462774]	2020_Nov_27_1519	59.96925976074086	1	0.375
8	25	FALSE	NV	a	['Z', 'E', 'R', 'N', 'S', 'A', 'H', 'J', 'B', 'P', 'X', 'W', 'C', 'U', 'M', 'V']	[2911, 904, 1587, 1335, 1731, 697, 986, 1029, 760, 1456, 4000, 2448, 829, 2059, 1224, 2245]	11	Present	NA	NA	ABSENT	0.09538602828979492	146.77035808563232	148.77985405921936	149.71319549873104	150.0631974060597	152.89666986465454	4.116815805435181	[146.78970980644226, 146.90634083747864, 147.8799958229065, 148.05759501457214, 148.80814480781555, 148.92517280578613, 149.04194688796997, 149.15881395339966, 149.27537894248962, 149.39235281944275, 149.50901794433594, 149.6258189678192, 149.74268293380737, 149.85941982269287, 149.97620582580566, 150.09297585487366, 150.20989203453064, 150.32632899284363, 150.44337582588196, 150.560222864151, 150.677001953125, 150.89666891098022]	[146.79280190462774, 146.90946857128773, 147.89246857128774, 148.05916857128773, 148.80916857128773, 148.92583523794772, 149.04250190460772, 149.1591685712677, 149.2758352379277, 149.3925019045877, 149.5091685712477, 149.6258352379077, 149.7425019045677, 149.85916857122768, 149.97583523788768, 150.09250190454767, 150.20916857120767, 150.32583523786766, 150.44250190452766, 150.55916857118766, 150.67583523784765, 150.90916857118097]	2020_Nov_27_1519	59.96925976074086	1	0.375
8	26	FALSE	VV	a	['B', 'M', 'K', 'V', 'T', 'G', 'A', 'W', 'surprise', 'U', 'Y', 'X', 'N', 'S', 'J', 'H']	[760, 1224, 1122, 2245, 1888, 944, 697, 2448, 'stimAuditory/all_stimAuditory/112.wav', 2059, 2670, 4000, 1335, 1731, 1029, 986]	12	Present	NA	NA	ABSENT	0.08381986618041992	152.89337921142578	154.8961570262909	155.9461651324626	156.2961660861169	159.01303791999817	4.116880893707275	[152.91273093223572, 153.02954697608948, 153.99636483192444, 154.18057894706726, 154.93139600753784, 155.04824090003967, 155.1650619506836, 155.28172183036804, 155.39871382713318, 155.51544189453125, 155.6322238445282, 155.7489528656006, 155.86570501327515, 155.98231482505798, 156.09955191612244, 156.21599984169006, 156.3329689502716, 156.44947600364685, 156.5668079853058, 156.68331789970398, 156.80011582374573, 157.01303791999817]	[152.90916857118097, 153.02583523784097, 154.00883523784097, 154.17553523784096, 154.92553523784096, 155.04220190450096, 155.15886857116095, 155.27553523782095, 155.39220190448094, 155.50886857114094, 155.62553523780093, 155.74220190446093, 155.85886857112092, 155.97553523778092, 156.0922019044409, 156.2088685711009, 156.3255352377609, 156.4422019044209, 156.5588685710809, 156.6755352377409, 156.79220190440088, 157.0255352377342]	2020_Nov_27_1519	59.96925976074086	1	0.375
8	27	FALSE	NN	a	['T', 'V', 'J', 'M', 'S', 'N', 'C', 'U', 'H', 'R', 'W', 'G', 'Z', 'Y', 'B', 'K']	[1888, 2245, 1029, 1224, 1731, 1335, 829, 2059, 986, 1587, 2448, 944, 2911, 2670, 760, 1122]	10	Absent	NA	NA	ABSENT	0.065029144287109375	158.9995150566101	161.01265907287598	161.82933479940198	162.1793357530563	165.12940382957458	4.116744756698608	[159.01886701583862, 159.13566899299622, 160.11272883415222, 160.28703498840332, 161.03758883476257, 161.1546130180359, 161.27126502990723, 161.38827180862427, 161.50488591194153, 161.62178897857666, 161.73854088783264, 161.8554949760437, 161.97207283973694, 162.08887696266174, 162.20554399490356, 162.32240295410156, 162.43927383422852, 162.5558578968048, 162.672709941864, 162.7894139289856, 162.90643692016602, 163.12940502166748]	[159.0255352377342, 159.1422019043942, 160.1252019043942, 160.2919019043942, 161.0419019043942, 161.1585685710542, 161.27523523771418, 161.39190190437418, 161.50856857103417, 161.62523523769417, 161.74190190435417, 161.85856857101416, 161.97523523767416, 162.09190190433415, 162.20856857099415, 162.32523523765414, 162.44190190431414, 162.55856857097413, 162.67523523763413, 162.79190190429412, 162.90856857095412, 163.14190190428744]	2020_Nov_27_1519	59.96925976074086	1	0.375
8	28	FALSE	NV	a	['A', 'E', 'R', 'T', 'W', 'G', 'M', 'P', 'U', 'X', 'Z', 'H', 'S', 'Y', 'J', 'K']	[697, 904, 1587, 1888, 2448, 944, 1224, 1456, 2059, 4000, 2911, 986, 1731, 2670, 1029, 1122]	10	Present	NA	NA	ABSENT	0.01350593566894531	165.12260508537292	167.12896704673767	167.94564086591504	168.29564277324369	171.2457709312439	4.116803884506226	[165.14195799827576, 165.25893998146057, 166.2290940284729, 166.4099359512329, 167.16123294830322, 167.27781081199646, 167.39449191093445, 167.51135993003845, 167.6280038356781, 167.74489498138428, 167.86173701286316, 167.97840785980225, 168.09530186653137, 168.21197199821472, 168.3288598060608, 168.44543194770813, 168.56234884262085, 168.6791479587555, 168.79596996307373, 168.91262483596802, 169.02940392494202, 169.2457709312439]	[165.14190190428744, 165.25856857094743, 166.24156857094744, 166.40826857094743, 167.15826857094743, 167.27493523760742, 167.39160190426742, 167.5082685709274, 167.6249352375874, 167.7416019042474, 167.8582685709074, 167.9749352375674, 168.0916019042274, 168.20826857088738, 168.32493523754738, 168.44160190420737, 168.55826857086737, 168.67493523752736, 168.79160190418736, 168.90826857084735, 169.02493523750735, 169.25826857084067]	2020_Nov_27_1519	59.96925976074086	1	0.375
8	29	FALSE	NN	a	['P', 'A', 'C', 'B', 'Y', 'R', 'T', 'M', 'U', 'E', 'S', 'N', 'K', 'Z', 'G', 'V']	[1456, 697, 829, 760, 2670, 1587, 1888, 1224, 2059, 904, 1731, 1335, 1122, 2911, 944, 2245]	14	Absent	NA	NA	ABSENT	0.2509498596191406	171.245934009552	173.24516010284424	174.52850154233593	174.87850344966455	177.3621380329132	4.11697793006897	[171.26528692245483, 171.3819420337677, 172.34546089172363, 172.5329828262329, 173.2840278148651, 173.38391089439392, 173.50077390670776, 173.61745285987854, 173.7342848777771, 173.85108089447021, 173.96800684928894, 174.08468294143677, 174.20147681236267, 174.31815695762634, 174.43500900268555, 174.5519118309021, 174.66854786872864, 174.7854459285736, 174.90217900276184, 175.01911902427673, 175.13583183288574, 175.3621368408203]	[171.25826857084067, 171.37493523750067, 172.35793523750067, 172.52463523750066, 173.27463523750066, 173.39130190416066, 173.50796857082065, 173.62463523748065, 173.74130190414064, 173.85796857080064, 173.97463523746063, 174.09130190412063, 174.20796857078062, 174.32463523744062, 174.4413019041006, 174.5579685707606, 174.6746352374206, 174.7913019040806, 174.9079685707406, 175.0246352374006, 175.14130190406058, 175.3746352373939]	2020_Nov_27_1519	59.96925976074086	1	0.375
8	30	FALSE	NV	a	['S', 'M', 'U', 'A', 'Y', 'V', 'T', 'X', 'H', 'C', 'G', 'Z', 'N', 'P', 'B', 'E']	[1731, 1224, 2059, 697, 2670, 2245, 1888, 4000, 986, 829, 944, 2911, 1335, 1456, 760, 904]	8	Present	NA	NA	ABSENT	0.19935107231140137	177.35250210762024	179.36170601844788	179.94504650430525	180.29504841163387	183.4785029888153	4.116796970367432	[177.37185382843018, 177.4884078502655, 178.46182894706726, 178.63951802253723, 179.3902108669281, 179.5072078704834, 179.62401580810547, 179.7408230304718, 179.8574960231781, 179.97421383857727, 180.09108781814575, 180.20799803733826, 180.32474303245544, 180.4415638446808, 180.55810689926147, 180.67482781410217, 180.79176998138428, 180.90838384628296, 181.025328874588, 181.14197397232056, 181.25882291793823, 181.4785029888153]	[177.3746352373939, 177.4913019040539, 178.4743019040539, 178.6410019040539, 179.3910019040539, 179.5076685707139, 179.62433523737388, 179.74100190403388, 179.85766857069387, 179.97433523735387, 180.09100190401386, 180.20766857067386, 180.32433523733386, 180.44100190399385, 180.55766857065385, 180.67433523731384, 180.79100190397384, 180.90766857063383, 181.02433523729383, 181.14100190395382, 181.25766857061382, 181.49100190394714]	2020_Nov_27_1519	59.96925976074086	1	0.375
8	31	FALSE	AV	a	['K', 'A', 'C', 'Y', 'surprise', 'H', 'U', 'X', 'S', 'T', 'B', 'R', 'N', 'Z', 'G', 'J']	[1122, 697, 829, 2670, 'stimAuditory/all_stimAuditory/205.wav', 986, 2059, 4000, 1731, 1888, 760, 1587, 1335, 2911, 944, 1029]	8	Present	stimAuditory/all_stimAuditory/117.wav	NA	ABSENT	0.2198050022125244	183.47525811195376	185.47816920280457	186.06151040391768	186.41151254966488	189.59486985206604	4.116700649261475	[183.49460983276367, 183.61151003837585, 184.57819294929504, 184.7627408504486, 185.51339101791382, 185.63045287132263, 185.74693894386292, 185.86382794380188, 185.9805519580841, 186.0975308418274, 186.21425986289978, 186.3310329914093, 186.44764184951782, 186.56486892700195, 186.68128085136414, 186.7980649471283, 186.9146749973297, 187.0316698551178, 187.14848685264587, 187.26518392562866, 187.38193583488464, 187.59487199783325]	[183.49100190394714, 183.60766857060713, 184.59066857060714, 184.75736857060713, 185.50736857060713, 185.62403523726712, 185.74070190392712, 185.8573685705871, 185.9740352372471, 186.0907019039071, 186.2073685705671, 186.3240352372271, 186.4407019038871, 186.55736857054708, 186.67403523720708, 186.79070190386707, 186.90736857052707, 187.02403523718706, 187.14070190384706, 187.25736857050705, 187.37403523716705, 187.60736857050037]	2020_Nov_27_1519	59.96925976074086	1	0.375
8	32	FALSE	NN	a	['R', 'V', 'Y', 'U', 'E', 'M', 'K', 'H', 'P', 'B', 'C', 'G', 'T', 'W', 'N', 'J']	[1587, 2245, 2670, 2059, 904, 1224, 1122, 986, 1456, 760, 829, 944, 1888, 2448, 1335, 1029]	14	Absent	NA	NA	ABSENT	0.21716713905334473	189.5815830230713	191.5943100452423	192.877651484734	193.22765339206265	195.71123695373535	4.116926908493042	[189.60093593597412, 189.7177278995514, 190.69456100463867, 190.86888694763184, 191.61965894699097, 191.73664689064026, 191.85330080986023, 191.97009801864624, 192.0869059562683, 192.20377802848816, 192.32056593894958, 192.43737387657166, 192.554114818573, 192.671000957489, 192.78770303726196, 192.90450596809387, 193.02127695083618, 193.13785195350647, 193.25483298301697, 193.37145900726318, 193.488431930542, 193.71123695373535]	[189.60736857050037, 189.72403523716036, 190.70703523716037, 190.87373523716036, 191.62373523716036, 191.74040190382036, 191.85706857048035, 191.97373523714035, 192.09040190380034, 192.20706857046034, 192.32373523712033, 192.44040190378033, 192.55706857044032, 192.67373523710032, 192.7904019037603, 192.9070685704203, 193.0237352370803, 193.1404019037403, 193.2570685704003, 193.3737352370603, 193.49040190372028, 193.7237352370536]	2020_Nov_27_1519	59.96925976074086	1	0.375
8	33	FALSE	NV	a	['U', 'Z', 'E', 'H', 'K', 'C', 'T', 'X', 'Y', 'J', 'W', 'G', 'R', 'P', 'S', 'B']	[2059, 2911, 904, 986, 1122, 829, 1888, 4000, 2670, 1029, 2448, 944, 1587, 1456, 1731, 760]	8	Present	NA	NA	ABSENT	0.22980308532714844	195.70480513572693	197.7108860015869	198.2942264874443	198.6442283947729	201.82760286331177	4.1167168617248535	[195.72415590286255, 195.8408579826355, 196.81093001365662, 196.99232697486877, 197.74278783798218, 197.85949301719666, 197.9764440059662, 198.09328889846802, 198.21012902259827, 198.32676792144775, 198.4436628818512, 198.56035590171814, 198.67730903625488, 198.79413294792175, 198.91077780723572, 199.0274088382721, 199.14416098594666, 199.26112985610962, 199.377849817276, 199.49468994140625, 199.61153292655945, 199.82760190963745]	[195.7237352370536, 195.8404019037136, 196.8234019037136, 196.9901019037136, 197.7401019037136, 197.8567685703736, 197.97343523703358, 198.09010190369358, 198.20676857035357, 198.32343523701357, 198.44010190367356, 198.55676857033356, 198.67343523699356, 198.79010190365355, 198.90676857031355, 199.02343523697354, 199.14010190363354, 199.25676857029353, 199.37343523695353, 199.49010190361352, 199.60676857027352, 199.84010190360684]	2020_Nov_27_1519	59.96925976074086	1	0.375
8	34	FALSE	NA	a	['V', 'K', 'Z', 'W', 'J', 'Y', 'M', 'X', 'S', 'G', 'P', 'H', 'E', 'A', 'B', 'U']	[2245, 1122, 2911, 2448, 1029, 2670, 1224, 4000, 1731, 944, 1456, 986, 904, 697, 760, 2059]	8	Present	NA	NA	ABSENT	0.2911510467529297	201.82790803909305	203.82707810401917	204.41042455034105	204.76042741134395	207.94396996498108	4.116891860961914	[201.84725999832153, 201.96390080451965, 202.9272928237915, 203.11519694328308, 203.8659520149231, 203.9658498764038, 204.0826768875122, 204.19952487945557, 204.3162739276886, 204.4330768585205, 204.54987502098083, 204.66668486595154, 204.78349590301514, 204.90044593811035, 205.01717495918274, 205.13374400138855, 205.25068593025208, 205.36746096611023, 205.48419284820557, 205.60089087486267, 205.71786189079285, 205.9439709186554]	[201.84010190360684, 201.95676857026683, 202.93976857026684, 203.10646857026683, 203.85646857026683, 203.97313523692682, 204.08980190358682, 204.2064685702468, 204.3231352369068, 204.4398019035668, 204.5564685702268, 204.6731352368868, 204.7898019035468, 204.90646857020678, 205.02313523686678, 205.13980190352677, 205.25646857018677, 205.37313523684676, 205.48980190350676, 205.60646857016675, 205.72313523682675, 205.95646857016007]	2020_Nov_27_1519	59.96925976074086	1	0.375
8	35	FALSE	NA	a	['Z', 'H', 'C', 'U', 'W', 'M', 'E', 'N', 'R', 'K', 'V', 'S', 'X', 'B', 'J', 'P']	[2911, 986, 829, 2059, 2448, 1224, 904, 1335, 1587, 1122, 2245, 1731, 4000, 760, 1029, 1456]	13	Present	NA	NA	PRESENT	0.07185697555541992	207.93451309204104	209.943617105484	211.1102918783157	211.46029378564432	214.0603368282318	4.116719722747803	[207.95386481285095, 208.07044291496277, 209.04366183280945, 209.221510887146, 209.97219800949097, 210.08927989006042, 210.205885887146, 210.32280588150024, 210.43947100639343, 210.55623292922974, 210.67312288284302, 210.78990483283997, 210.9066939353943, 211.02355003356934, 211.1403148174286, 211.25712394714355, 211.3737449645996, 211.4905469417572, 211.6073009967804, 211.72398686408997, 211.84104681015015, 212.0603368282318]	[207.95646857016007, 208.07313523682006, 209.05613523682007, 209.22283523682006, 209.97283523682006, 210.08950190348006, 210.20616857014005, 210.32283523680005, 210.43950190346004, 210.55616857012004, 210.67283523678003, 210.78950190344003, 210.90616857010002, 211.02283523676002, 211.13950190342, 211.25616857008, 211.37283523674, 211.4895019034, 211.60616857006, 211.72283523672, 211.83950190337998, 212.0728352367133]	2020_Nov_27_1519	59.96925976074086	1	0.375
8	36	FALSE	VA	a	['B', 'G', 'T', 'R', 'E', 'Y', 'surprise', 'K', 'P', 'X', 'Z', 'V', 'U', 'W', 'N', 'J']	[760, 944, 1888, 1587, 904, 2670, 'stimAuditory/all_stimAuditory/206.wav', 1122, 1456, 4000, 2911, 2245, 2059, 2448, 1335, 1029]	10	Present	NA	NA	ABSENT	0.14853787422180176	214.05727100372312	216.05971503257751	216.87638885175488	217.22639075908353	220.17670392990112	4.116988897323608	[214.07662296295166, 214.1935019493103, 215.1600308418274, 215.34470295906067, 216.09535002708435, 216.2120578289032, 216.3290638923645, 216.44579792022705, 216.56260681152344, 216.67930603027344, 216.79630088806152, 216.91296887397766, 217.02976989746094, 217.14667296409607, 217.26335191726685, 217.38004803657532, 217.49675297737122, 217.61409997940063, 217.73031783103943, 217.8472399711609, 217.96405696868896, 218.17670488357544]	[214.0728352367133, 214.1895019033733, 215.1725019033733, 215.3392019033733, 216.0892019033733, 216.2058685700333, 216.32253523669328, 216.43920190335328, 216.55586857001327, 216.67253523667327, 216.78920190333326, 216.90586856999326, 217.02253523665325, 217.13920190331325, 217.25586856997325, 217.37253523663324, 217.48920190329324, 217.60586856995323, 217.72253523661323, 217.83920190327322, 217.95586856993322, 218.18920190326654]	2020_Nov_27_1519	59.96925976074086	1	0.375
8	37	FALSE	NA	a	['T', 'K', 'N', 'Z', 'S', 'H', 'P', 'C', 'V', 'B', 'Y', 'J', 'E', 'X', 'A', 'R']	[1888, 1122, 1335, 2911, 1731, 986, 1456, 829, 2245, 760, 2670, 1029, 904, 4000, 697, 1587]	14	Present	NA	NA	ABSENT	0.36957812309265137	220.1634750366211	222.17619609832764	223.45953753781933	223.80953944514795	226.29307103157043	4.116874933242798	[220.1828269958496, 220.29981589317322, 221.27639293670654, 221.45094990730286, 222.20178389549255, 222.3185589313507, 222.43529295921326, 222.55223393440247, 222.66891598701477, 222.78581881523132, 222.90252494812012, 223.0193419456482, 223.13619589805603, 223.25285291671753, 223.3696939945221, 223.4866168498993, 223.60324501991272, 223.71994495391846, 223.83691501617432, 223.95375680923462, 224.07042002677917, 224.29307103157043]	[220.18920190326654, 220.30586856992653, 221.28886856992654, 221.45556856992653, 222.20556856992653, 222.32223523658652, 222.43890190324652, 222.5555685699065, 222.6722352365665, 222.7889019032265, 222.9055685698865, 223.0222352365465, 223.1389019032065, 223.25556856986648, 223.37223523652648, 223.48890190318647, 223.60556856984647, 223.72223523650646, 223.83890190316646, 223.95556856982645, 224.07223523648645, 224.30556856981977]	2020_Nov_27_1519	59.96925976074086	1	0.375
8	38	FALSE	NA	a	['S', 'U', 'Y', 'E', 'R', 'G', 'T', 'X', 'B', 'V', 'P', 'A', 'W', 'H', 'M', 'K']	[1731, 2059, 2670, 904, 1587, 944, 1888, 4000, 760, 2245, 1456, 697, 2448, 986, 1224, 1122]	8	Present	NA	NA	ABSENT	0.4060969352722168	226.28681302070615	228.29263710975647	228.87597854928816	229.2259804566168	232.40943694114685	4.116799831390381	[226.30616784095764, 226.42302894592285, 227.3927619457245, 227.57453298568726, 228.32482194900513, 228.44157195091248, 228.55852794647217, 228.6750729084015, 228.79217886924744, 228.90884494781494, 229.0257019996643, 229.1422848701477, 229.25931882858276, 229.37588095664978, 229.4926598072052, 229.60953187942505, 229.72626399993896, 229.84306693077087, 229.9599199295044, 230.07656383514404, 230.1935329437256, 230.40943789482117]	[226.30556856981977, 226.42223523647976, 227.40523523647977, 227.57193523647976, 228.32193523647976, 228.43860190313976, 228.55526856979975, 228.67193523645975, 228.78860190311974, 228.90526856977974, 229.02193523643973, 229.13860190309973, 229.25526856975972, 229.37193523641972, 229.4886019030797, 229.6052685697397, 229.7219352363997, 229.8386019030597, 229.9552685697197, 230.0719352363797, 230.18860190303968, 230.421935236373]	2020_Nov_27_1519	59.96925976074086	1	0.375
8	39	FALSE	NN	a	['K', 'Y', 'C', 'W', 'H', 'R', 'A', 'P', 'B', 'G', 'N', 'V', 'U', 'Z', 'S', 'J']	[1122, 2670, 829, 2448, 986, 1587, 697, 1456, 760, 944, 1335, 2245, 2059, 2911, 1731, 1029]	8	Absent	NA	NA	ABSENT	0.0993478298187256	232.4098000526428	234.40891313552856	234.99225338296736	235.34225552871456	238.52580499649048	4.116891860961914	[232.42915201187134, 232.545804977417, 233.50913095474243, 233.6971378326416, 234.4479570388794, 234.54789686203003, 234.6647539138794, 234.78154397010803, 234.89826202392578, 235.01515197753906, 235.13185381889343, 235.24869585037231, 235.36571502685547, 235.48230290412903, 235.59903192520142, 235.71580982208252, 235.83280491828918, 235.94931483268738, 236.06627297401428, 236.18311882019043, 236.29975485801697, 236.52580499649048]	[232.421935236373, 232.538601903033, 233.521601903033, 233.688301903033, 234.438301903033, 234.554968569693, 234.67163523635298, 234.78830190301298, 234.90496856967297, 235.02163523633297, 235.13830190299296, 235.25496856965296, 235.37163523631295, 235.48830190297295, 235.60496856963294, 235.72163523629294, 235.83830190295294, 235.95496856961293, 236.07163523627293, 236.18830190293292, 236.30496856959292, 236.53830190292624]	2020_Nov_27_1519	59.96925976074086	1	0.375
8	40	FALSE	VV	a	['K', 'B', 'W', 'S', 'M', 'H', 'T', 'Z', 'surprise', 'R', 'Y', 'X', 'U', 'G', 'E', 'N']	[1122, 760, 2448, 1731, 1224, 986, 1888, 2911, 'stimAuditory/all_stimAuditory/223.wav', 1587, 2670, 4000, 2059, 944, 904, 1335]	12	Present	NA	NA	ABSENT	0.22390294075012207	238.51654410362244	240.5255331993103	241.5755401133891	241.92554202071773	244.6421709060669	4.116637706756592	[238.53589701652527, 238.65221095085144, 239.62549686431885, 239.80357384681702, 240.5542688369751, 240.67123985290527, 240.78784489631653, 240.90458703041077, 241.02148485183716, 241.13823795318604, 241.25525283813477, 241.3718659877777, 241.4887249469757, 241.60537195205688, 241.7223060131073, 241.83889484405518, 241.95580101013184, 242.0724959373474, 242.1894509792328, 242.30608892440796, 242.42304301261902, 242.6421709060669]	[238.53830190292624, 238.65496856958623, 239.63796856958623, 239.80466856958623, 240.55466856958623, 240.67133523624622, 240.78800190290622, 240.9046685695662, 241.0213352362262, 241.1380019028862, 241.2546685695462, 241.3713352362062, 241.4880019028662, 241.60466856952618, 241.72133523618618, 241.83800190284617, 241.95466856950617, 242.07133523616616, 242.18800190282616, 242.30466856948615, 242.42133523614615, 242.65466856947947]	2020_Nov_27_1519	59.96925976074086	1	0.375
8	41	FALSE	NV	a	['N', 'H', 'W', 'G', 'P', 'Z', 'A', 'X', 'U', 'T', 'S', 'R', 'J', 'M', 'E', 'Y']	[1335, 986, 2448, 944, 1456, 2911, 697, 4000, 2059, 1888, 1731, 1587, 1029, 1224, 904, 2670]	8	Present	NA	NA	ABSENT	0.8366169929504395	244.63913917541504	246.64155101776123	247.2248915036186	247.5748943646215	250.7585368156433	4.11698579788208	[244.65849089622498, 244.77536392211914, 245.74186182022095, 245.92656803131104, 246.67744994163513, 246.79427099227905, 246.91105103492737, 247.02785396575928, 247.1444628238678, 247.26138997077942, 247.3781189918518, 247.4949870109558, 247.61195397377014, 247.72866201400757, 247.84523797035217, 247.96200585365295, 248.07895684242249, 248.19563603401184, 248.31227898597717, 248.42908787727356, 248.54606199264526, 248.7585380077362]	[244.65466856947947, 244.77133523613946, 245.75433523613947, 245.92103523613946, 246.67103523613946, 246.78770190279945, 246.90436856945945, 247.02103523611945, 247.13770190277944, 247.25436856943944, 247.37103523609943, 247.48770190275943, 247.60436856941942, 247.72103523607942, 247.8377019027394, 247.9543685693994, 248.0710352360594, 248.1877019027194, 248.3043685693794, 248.4210352360394, 248.53770190269938, 248.7710352360327]	2020_Nov_27_1519	59.96925976074086	1	0.375
8	42	FALSE	NN	a	['C', 'S', 'P', 'N', 'U', 'Y', 'W', 'H', 'J', 'K', 'R', 'T', 'B', 'E', 'V', 'G']	[829, 1731, 1456, 1335, 2059, 2670, 2448, 986, 1029, 1122, 1587, 1888, 760, 904, 2245, 944]	13	Absent	NA	NA	ABSENT	0.2578291893005371	250.7455780506134	252.75800204277041	253.92467681560208	254.27467967660505	256.8749029636383	4.11690092086792	[250.76493000984192, 250.88190603256226, 251.85822987556458, 252.03303384780884, 252.78364181518555, 252.9006278514862, 253.01733088493347, 253.134202003479, 253.25103783607483, 253.36780285835266, 253.48466682434082, 253.60134196281433, 253.7182629108429, 253.83498692512512, 253.95159602165222, 254.0684678554535, 254.18542003631592, 254.30198884010315, 254.41892099380493, 254.5356388092041, 254.65243887901306, 254.8749029636383]	[250.7710352360327, 250.8877019026927, 251.8707019026927, 252.0374019026927, 252.7874019026927, 252.9040685693527, 253.02073523601268, 253.13740190267268, 253.25406856933267, 253.37073523599267, 253.48740190265266, 253.60406856931266, 253.72073523597265, 253.83740190263265, 253.95406856929264, 254.07073523595264, 254.18740190261263, 254.30406856927263, 254.42073523593263, 254.53740190259262, 254.65406856925262, 254.88740190258594]	2020_Nov_27_1519	59.96925976074086	1	0.375
8	43	FALSE	NV	a	['R', 'E', 'P', 'S', 'A', 'J', 'G', 'W', 'B', 'X', 'Z', 'M', 'V', 'H', 'T', 'K']	[1587, 904, 1456, 1731, 697, 1029, 944, 2448, 760, 4000, 2911, 1224, 2245, 986, 1888, 1122]	10	Present	NA	NA	ABSENT	0.06235098838806152	256.86864614486694	258.87445306777954	259.6911268869569	260.04112879428556	262.99126982688904	4.116816759109497	[256.8879988193512, 257.0050280094147, 257.97459602355957, 258.1565339565277, 258.90690302848816, 259.02375197410583, 259.1405529975891, 259.25734782218933, 259.3741338253021, 259.49082803726196, 259.6076970100403, 259.72452187538147, 259.8412539958954, 259.95808696746826, 260.07467699050903, 260.1916608810425, 260.3083288669586, 260.4251229763031, 260.54214000701904, 260.65854501724243, 260.77555894851685, 260.99127101898193]	[256.8874019025859, 257.00406856924593, 257.98706856924593, 258.1537685692459, 258.9037685692459, 259.02043523590595, 259.137101902566, 259.253768569226, 259.370435235886, 259.48710190254604, 259.60376856920607, 259.7204352358661, 259.8371019025261, 259.95376856918614, 260.07043523584616, 260.1871019025062, 260.3037685691662, 260.42043523582623, 260.53710190248626, 260.6537685691463, 260.7704352358063, 261.00376856913965]	2020_Nov_27_1519	59.96925976074086	1	0.375
8	44	FALSE	NA	a	['N', 'B', 'A', 'P', 'R', 'G', 'U', 'W', 'K', 'T', 'Z', 'Y', 'S', 'X', 'H', 'C']	[1335, 760, 697, 1456, 1587, 944, 2059, 2448, 1122, 1888, 2911, 2670, 1731, 4000, 986, 829]	14	Present	NA	NA	ABSENT	0.3236110210418701	262.9918692111969	264.9906949996948	266.2740364391865	266.62403834651514	269.10763788223267	4.116942882537842	[263.01122093200684, 263.1280698776245, 264.0909650325775, 264.262414932251, 265.02993392944336, 265.12989687919617, 265.2467408180237, 265.36356687545776, 265.4803400039673, 265.5971519947052, 265.71404695510864, 265.83069491386414, 265.9477210044861, 266.06442499160767, 266.1813049316406, 266.29803800582886, 266.4148488044739, 266.53148102760315, 266.6484489440918, 266.7649738788605, 266.88188195228577, 267.10763692855835]	[263.00376856913965, 263.1204352357997, 264.1034352357997, 264.27013523579967, 265.02013523579967, 265.1368019024597, 265.2534685691197, 265.37013523577974, 265.48680190243977, 265.6034685690998, 265.7201352357598, 265.83680190241984, 265.95346856907986, 266.0701352357399, 266.1868019023999, 266.30346856905993, 266.42013523571995, 266.53680190238, 266.65346856904, 266.7701352357, 266.88680190236005, 267.1201352356934]	2020_Nov_27_1519	59.96925976074086	1	0.375
8	45	FALSE	NA	a	['T', 'H', 'N', 'M', 'S', 'A', 'R', 'P', 'V', 'Z', 'B', 'Y', 'X', 'G', 'W', 'C']	[1888, 986, 1335, 1224, 1731, 697, 1587, 1456, 2245, 2911, 760, 2670, 4000, 944, 2448, 829]	13	Present	NA	NA	PRESENT	0.320263147354126	269.0983910560608	271.10719299316406	272.27386776599576	272.6238696733244	275.22400403022766	4.116811037063599	[269.1177439689636, 269.23419094085693, 270.2073290348053, 270.3855969905853, 271.13627099990845, 271.2530059814453, 271.3699758052826, 271.48662090301514, 271.60364985466003, 271.72019481658936, 271.8372309207916, 271.95387291908264, 272.0707838535309, 272.1875, 272.30434703826904, 272.4210538864136, 272.53782296180725, 272.6546368598938, 272.7714059352875, 272.8882439136505, 273.0047998428345, 273.2240059375763]	[269.1201352356934, 269.2368019023534, 270.2198019023534, 270.3865019023534, 271.1365019023534, 271.25316856901344, 271.36983523567346, 271.4865019023335, 271.6031685689935, 271.71983523565353, 271.83650190231356, 271.9531685689736, 272.0698352356336, 272.1865019022936, 272.30316856895365, 272.4198352356137, 272.5365019022737, 272.6531685689337, 272.76983523559375, 272.88650190225377, 273.0031685689138, 273.23650190224714]	2020_Nov_27_1519	59.96925976074086	1	0.375
8	46	FALSE	NA	a	['G', 'Z', 'P', 'E', 'K', 'N', 'T', 'B', 'M', 'U', 'W', 'R', 'X', 'V', 'J', 'S']	[944, 2911, 1456, 904, 1122, 1335, 1888, 760, 1224, 2059, 2448, 1587, 4000, 2245, 1029, 1731]	13	Present	NA	NA	PRESENT	0.2447450160980225	275.2214250564575	277.22352409362793	278.39019767436673	278.74019982011396	281.3403708934784	4.116846799850464	[275.240779876709, 275.35755586624146, 276.32369589805603, 276.508829832077, 277.2594459056854, 277.376179933548, 277.493136882782, 277.6098129749298, 277.72653889656067, 277.8434729576111, 277.96012902259827, 278.07716393470764, 278.1936819553375, 278.3104908466339, 278.4272539615631, 278.5442428588867, 278.6611578464508, 278.7778058052063, 278.89441180229187, 279.01142501831055, 279.12800884246826, 279.3403699398041]	[275.23650190224714, 275.35316856890717, 276.33616856890717, 276.50286856890716, 277.25286856890716, 277.3695352355672, 277.4862019022272, 277.60286856888723, 277.71953523554726, 277.8362019022073, 277.9528685688673, 278.0695352355273, 278.18620190218735, 278.3028685688474, 278.4195352355074, 278.5362019021674, 278.65286856882744, 278.76953523548747, 278.8862019021475, 279.0028685688075, 279.11953523546754, 279.3528685688009]	2020_Nov_27_1519	59.96925976074086	1	0.375
8	47	FALSE	NA	a	['A', 'R', 'Y', 'J', 'Z', 'W', 'N', 'K', 'G', 'M', 'H', 'V', 'X', 'C', 'S', 'U']	[697, 1587, 2670, 1029, 2911, 2448, 1335, 1122, 944, 1224, 986, 2245, 4000, 829, 1731, 2059]	13	Present	NA	NA	PRESENT	0.4343101978302002	281.32760214805603	283.33993315696716	284.5066088834732	284.8566107908018	287.4567379951477	4.116804838180542	[281.34695386886597, 281.46394300460815, 282.44006180763245, 282.61501693725586, 283.3657820224762, 283.48275780677795, 283.59940099716187, 283.71633887290955, 283.83307695388794, 283.9497318267822, 284.0666799545288, 284.18323493003845, 284.3002848625183, 284.4168429374695, 284.5337989330292, 284.65047883987427, 284.7673559188843, 284.88404083251953, 285.0009648799896, 285.1176128387451, 285.23465299606323, 285.4567379951477]	[281.3528685688009, 281.4695352354609, 282.4525352354609, 282.6192352354609, 283.3692352354609, 283.48590190212093, 283.60256856878095, 283.719235235441, 283.835901902101, 283.952568568761, 284.06923523542105, 284.18590190208107, 284.3025685687411, 284.4192352354011, 284.53590190206114, 284.65256856872116, 284.7692352353812, 284.8859019020412, 285.00256856870124, 285.11923523536126, 285.2359019020213, 285.46923523535463]	2020_Nov_27_1519	59.96925976074086	1	0.375
8	48	FALSE	NN	a	['C', 'Z', 'N', 'Y', 'W', 'K', 'H', 'A', 'U', 'T', 'P', 'J', 'V', 'G', 'M', 'R']	[829, 2911, 1335, 2670, 2448, 1122, 986, 697, 2059, 1888, 1456, 1029, 2245, 944, 1224, 1587]	13	Absent	NA	NA	ABSENT	0.2705390453338623	287.45071601867676	289.4561140537262	290.6227878728836	290.9727897802122	293.5731039047241	4.116989850997925	[287.4700679779053, 287.58698892593384, 288.55642795562744, 288.73859095573425, 289.48887491226196, 289.6058728694916, 289.72229194641113, 289.839359998703, 289.95618081092834, 290.07284593582153, 290.18950486183167, 290.30638694763184, 290.42335200309753, 290.54013991355896, 290.6568260192871, 290.77347588539124, 290.8902819156647, 291.00727796554565, 291.12413597106934, 291.2408540248871, 291.3576109409332, 291.5731019973755]	[287.46923523535463, 287.58590190201465, 288.56890190201466, 288.73560190201465, 289.48560190201465, 289.6022685686747, 289.7189352353347, 289.8356019019947, 289.95226856865474, 290.06893523531477, 290.1856019019748, 290.3022685686348, 290.41893523529484, 290.53560190195486, 290.6522685686149, 290.7689352352749, 290.88560190193493, 291.00226856859496, 291.118935235255, 291.235601901915, 291.352268568575, 291.5856019019084]	2020_Nov_27_1519	59.96925976074086	1	0.375
8	49	FALSE	NA	a	['B', 'H', 'M', 'V', 'J', 'T', 'U', 'N', 'C', 'A', 'Y', 'P', 'R', 'X', 'K', 'E']	[760, 986, 1224, 2245, 1029, 1888, 2059, 1335, 829, 697, 2670, 1456, 1587, 4000, 1122, 904]	14	Present	NA	NA	ABSENT	0.22002100944519043	293.57390117645264	295.57264709472656	296.85598948789254	297.2059913952212	299.68947100639343	4.11682391166687	[293.5932538509369, 293.71006202697754, 294.6727948188782, 294.84440302848816, 295.6127359867096, 295.71211099624634, 295.82870602607727, 295.9455578327179, 296.06239199638367, 296.1791160106659, 296.2960669994354, 296.4126989841461, 296.52976393699646, 296.6462969779968, 296.7633559703827, 296.87994599342346, 296.9968469142914, 297.11350989341736, 297.2304358482361, 297.3470799922943, 297.4641020298004, 297.68946981430054]	[293.5856019019084, 293.7022685685684, 294.6852685685684, 294.8519685685684, 295.6019685685684, 295.7186352352284, 295.83530190188844, 295.95196856854847, 296.0686352352085, 296.1853019018685, 296.30196856852854, 296.41863523518856, 296.5353019018486, 296.6519685685086, 296.76863523516863, 296.88530190182865, 297.0019685684887, 297.1186352351487, 297.2353019018087, 297.35196856846875, 297.4686352351288, 297.7019685684621]	2020_Nov_27_1519	59.96925976074086	1	0.375
8	50	FALSE	NN	a	['T', 'A', 'R', 'K', 'S', 'B', 'J', 'Z', 'U', 'V', 'N', 'W', 'Y', 'C', 'H', 'E']	[1888, 697, 1587, 1122, 1731, 760, 1029, 2911, 2059, 2245, 1335, 2448, 2670, 829, 986, 904]	11	Absent	NA	NA	ABSENT	0.01637506484985351	299.68059611320496	301.6890821456909	302.62242334678405	302.9724245388569	305.80583786964417	4.116755723953247	[299.6999490261078, 299.8163139820099, 300.78916001319885, 300.96767497062683, 301.7183589935303, 301.83526587486267, 301.95211696624756, 302.0688488483429, 302.18568992614746, 302.3023509979248, 302.4192409515381, 302.53595495224, 302.6526629924774, 302.7696018218994, 302.8862028121948, 303.00316286087036, 303.1199538707733, 303.2367148399353, 303.3535828590393, 303.47032403945923, 303.5871458053589, 303.80583691596985]	[299.7019685684621, 299.81863523512214, 300.80163523512215, 300.96833523512214, 301.71833523512214, 301.83500190178216, 301.9516685684422, 302.0683352351022, 302.18500190176223, 302.30166856842226, 302.4183352350823, 302.5350019017423, 302.65166856840233, 302.76833523506235, 302.8850019017224, 303.0016685683824, 303.1183352350424, 303.23500190170245, 303.35166856836247, 303.4683352350225, 303.5850019016825, 303.81833523501587]	2020_Nov_27_1519	59.96925976074086	1	0.375
8	51	FALSE	NA	a	['N', 'G', 'T', 'Z', 'J', 'K', 'V', 'X', 'S', 'Y', 'M', 'P', 'C', 'R', 'W', 'A']	[1335, 944, 1888, 2911, 1029, 1122, 2245, 4000, 1731, 2670, 1224, 1456, 829, 1587, 2448, 697]	8	Present	NA	NA	ABSENT	0.2459590435028076	305.80348014831543	307.8052911758423	308.3886314232811	308.73863333060973	311.92220401763916	4.116912841796875	[305.8228349685669, 305.9394578933716, 306.9055290222168, 307.0909729003906, 307.8414340019226, 307.9582369327545, 308.07514691352844, 308.1918079853058, 308.3085880279541, 308.4255018234253, 308.5422968864441, 308.65910291671753, 308.77581882476807, 308.89249181747437, 309.00929403305054, 309.1262788772583, 309.243026971817, 309.35973596572876, 309.4766809940338, 309.5938799381256, 309.71018981933594, 309.9222049713135]	[305.81833523501587, 305.9350019016759, 306.9180019016759, 307.0847019016759, 307.8347019016759, 307.9513685683359, 308.06803523499593, 308.18470190165596, 308.301368568316, 308.418035234976, 308.534701901636, 308.65136856829605, 308.7680352349561, 308.8847019016161, 309.0013685682761, 309.11803523493614, 309.23470190159617, 309.3513685682562, 309.4680352349162, 309.58470190157624, 309.70136856823626, 309.9347019015696]	2020_Nov_27_1519	59.96925976074086	1	0.375
8	52	FALSE	NV	a	['S', 'M', 'E', 'J', 'B', 'G', 'N', 'P', 'U', 'Y', 'R', 'X', 'H', 'W', 'T', 'Z']	[1731, 1224, 904, 1029, 760, 944, 1335, 1456, 2059, 2670, 1587, 4000, 986, 2448, 1888, 2911]	12	Present	NA	NA	ABSENT	0.31430697441101074	311.9097430706024	313.92176818847656	314.97177605622966	315.3217782019769	318.0385699272156	4.116801738739014	[311.9290978908539, 312.04589080810547, 313.02189588546753, 313.19710183143616, 313.9479808807373, 314.06457781791687, 314.18149185180664, 314.2981379032135, 314.41508889198303, 314.53180289268494, 314.64873003959656, 314.76533794403076, 314.8822560310364, 314.9989619255066, 315.11579298973083, 315.23257398605347, 315.34931993484497, 315.4662048816681, 315.5828158855438, 315.6997950077057, 315.81667399406433, 316.0385699272156]	[311.9347019015696, 312.05136856822963, 313.03436856822964, 313.20106856822963, 313.95106856822963, 314.06773523488965, 314.1844019015497, 314.3010685682097, 314.4177352348697, 314.53440190152975, 314.65106856818977, 314.7677352348498, 314.8844019015098, 315.00106856816984, 315.11773523482987, 315.2344019014899, 315.3510685681499, 315.46773523480994, 315.58440190146996, 315.70106856813, 315.81773523479, 316.05106856812336]	2020_Nov_27_1519	59.96925976074086	1	0.375
8	53	FALSE	NV	a	['T', 'W', 'U', 'Z', 'S', 'M', 'E', 'X', 'P', 'V', 'B', 'N', 'K', 'G', 'H', 'A']	[1888, 2448, 2059, 2911, 1731, 1224, 904, 4000, 1456, 2245, 760, 1335, 1122, 944, 986, 697]	8	Present	NA	NA	PRESENT	0.25475192070007324	318.0329751968384	320.03812408447266	320.62146552400435	320.971467431333	324.1549379825592	4.116813898086548	[318.0523269176483, 318.1688358783722, 319.13826298713684, 319.32003593444824, 320.071359872818, 320.1877558231354, 320.3045768737793, 320.4212658405304, 320.5381979942322, 320.65491795539856, 320.77182698249817, 320.8886208534241, 321.0051989555359, 321.1222369670868, 321.23883295059204, 321.3557679653168, 321.4723448753357, 321.5894420146942, 321.7062568664551, 321.8227050304413, 321.9395818710327, 322.1549379825592]	[318.05106856812336, 318.1677352347834, 319.1507352347834, 319.3174352347834, 320.0674352347834, 320.1841019014434, 320.3007685681034, 320.41743523476345, 320.53410190142347, 320.6507685680835, 320.7674352347435, 320.88410190140354, 321.00076856806356, 321.1174352347236, 321.2341019013836, 321.35076856804363, 321.46743523470366, 321.5841019013637, 321.7007685680237, 321.8174352346837, 321.93410190134375, 322.1674352346771]	2020_Nov_27_1519	59.96925976074086	1	0.375
8	54	FALSE	NV	a	['G', 'U', 'T', 'K', 'Z', 'N', 'R', 'M', 'X', 'A', 'P', 'H', 'E', 'C', 'W', 'Y']	[944, 2059, 1888, 1122, 2911, 1335, 1587, 1224, 4000, 697, 1456, 986, 904, 829, 2448, 2670]	9	Present	NA	NA	PRESENT	0.300029993057251	324.1559250354767	326.1549241542816	326.85493202205475	327.2049341678019	330.2713029384613	4.1163787841796875	[324.1752769947052, 324.29196190834045, 325.2546248435974, 325.42652797698975, 326.19417095184326, 326.29414200782776, 326.41091084480286, 326.5275938510895, 326.6443438529968, 326.7612328529358, 326.8781359195709, 326.9947929382324, 327.1117408275604, 327.22842288017273, 327.34533190727234, 327.46196603775024, 327.57880997657776, 327.69561195373535, 327.8124649524689, 327.9291298389435, 328.0461039543152, 328.2713038921356]	[324.1674352346771, 324.2841019013371, 325.2671019013371, 325.4338019013371, 326.1838019013371, 326.30046856799714, 326.41713523465717, 326.5338019013172, 326.6504685679772, 326.76713523463724, 326.88380190129726, 327.0004685679573, 327.1171352346173, 327.23380190127733, 327.35046856793736, 327.4671352345974, 327.5838019012574, 327.7004685679174, 327.81713523457745, 327.9338019012375, 328.0504685678975, 328.28380190123085]	2020_Nov_27_1519	59.96925976074086	1	0.375
8	55	FALSE	NA	a	['A', 'V', 'E', 'M', 'K', 'J', 'W', 'R', 'X', 'U', 'C', 'B', 'G', 'S', 'N', 'H']	[697, 2245, 904, 1224, 1122, 1029, 2448, 1587, 4000, 2059, 829, 760, 944, 1731, 1335, 986]	9	Present	NA	NA	ABSENT	0.3686180114746094	330.2627820968628	332.2709209918976	332.9709300517636	333.3209321975108	336.38766980171204	4.116748809814453	[330.2821350097656, 330.3986859321594, 331.3709948062897, 331.5497670173645, 332.3005418777466, 332.41727590560913, 332.53403091430664, 332.65076780319214, 332.76774287223816, 332.88426780700684, 333.00104093551636, 333.1178660392761, 333.2346558570862, 333.3516700267792, 333.46821784973145, 333.5851049423218, 333.7020308971405, 333.8187139034271, 333.935467004776, 334.0524230003357, 334.1691198348999, 334.38766980171204]	[330.28380190123085, 330.40046856789087, 331.3834685678909, 331.55016856789086, 332.30016856789086, 332.4168352345509, 332.5335019012109, 332.65016856787094, 332.76683523453096, 332.883501901191, 333.000168567851, 333.11683523451103, 333.23350190117105, 333.3501685678311, 333.4668352344911, 333.5835019011511, 333.70016856781115, 333.81683523447117, 333.9335019011312, 334.0501685677912, 334.16683523445124, 334.4001685677846]	2020_Nov_27_1519	59.96925976074086	1	0.375
8	56	FALSE	VA	a	['R', 'T', 'A', 'S', 'K', 'surprise', 'C', 'V', 'X', 'E', 'Y', 'P', 'N', 'U', 'J', 'H']	[1587, 1888, 697, 1731, 1122, 'stimAuditory/all_stimAuditory/114.wav', 829, 2245, 4000, 904, 2670, 1456, 1335, 2059, 1029, 986]	9	Present	NA	NA	ABSENT	0.02208709716796875	336.3855710029602	338.3871121406555	339.08712000842866	339.4371221541758	342.50403690338135	4.11692476272583	[336.4049229621887, 336.52178382873535, 337.48736000061035, 337.67285799980164, 338.42358589172363, 338.5405328273773, 338.65716099739075, 338.77394104003906, 338.89073300361633, 339.0075378417969, 339.12429189682007, 339.24116587638855, 339.35791182518005, 339.4746940135956, 339.5923218727112, 339.70815896987915, 339.82499980926514, 339.94196796417236, 340.04182982444763, 340.1752510070801, 340.2754008769989, 340.50403785705566]	[336.4001685677846, 336.5168352344446, 337.4998352344446, 337.6665352344446, 338.4165352344446, 338.53320190110463, 338.64986856776466, 338.7665352344247, 338.8832019010847, 338.9998685677447, 339.11653523440475, 339.2332019010648, 339.3498685677248, 339.4665352343848, 339.58320190104484, 339.69986856770487, 339.8165352343649, 339.9332019010249, 340.04986856768494, 340.16653523434496, 340.283201901005, 340.51653523433833]	2020_Nov_27_1519	59.96925976074086	1	0.375
8	57	FALSE	NV	a	['N', 'T', 'B', 'E', 'W', 'K', 'Y', 'S', 'G', 'P', 'X', 'U', 'V', 'H', 'C', 'R']	[1335, 1888, 760, 904, 2448, 1122, 2670, 1731, 944, 1456, 4000, 2059, 2245, 986, 829, 1587]	11	Present	NA	NA	PRESENT	0.6425440311431885	342.4918360710144	344.5035672187805	345.43690841987365	345.78691032720224	348.620404958725	4.116837739944458	[342.5111880302429, 342.6278729438782, 343.6037268638611, 343.7792229652405, 344.52990794181824, 344.6468629837036, 344.7635838985443, 344.8801648616791, 344.99711298942566, 345.1137819290161, 345.23058795928955, 345.34737181663513, 345.46438002586365, 345.58118891716003, 345.69796681404114, 345.814728975296, 345.93130803108215, 346.0483069419861, 346.16496300697327, 346.2818148136139, 346.39872002601624, 346.6204059123993]	[342.51653523433833, 342.63320190099836, 343.61620190099836, 343.78290190099835, 344.53290190099835, 344.6495685676584, 344.7662352343184, 344.8829019009784, 344.99956856763845, 345.1162352342985, 345.2329019009585, 345.3495685676185, 345.46623523427854, 345.58290190093857, 345.6995685675986, 345.8162352342586, 345.93290190091864, 346.04956856757866, 346.1662352342387, 346.2829019008987, 346.39956856755873, 346.6329019008921]	2020_Nov_27_1519	59.96925976074086	1	0.375
8	58	FALSE	NN	a	['Y', 'R', 'U', 'C', 'A', 'H', 'N', 'G', 'S', 'Z', 'M', 'V', 'T', 'P', 'E', 'B']	[2670, 1587, 2059, 829, 697, 986, 1335, 944, 1731, 2911, 1224, 2245, 1888, 1456, 904, 760]	12	Absent	NA	NA	ABSENT	0.1273660659790039	348.61501002311707	350.6198580265045	351.6698661326762	352.01986804000484	354.7367699146271	4.116911888122559	[348.6343619823456, 348.7510528564453, 349.7200939655304, 349.9026689529419, 350.65312790870667, 350.76986289024353, 350.8867859840393, 351.0035078525543, 351.12023282051086, 351.23707699775696, 351.35369396209717, 351.47051882743835, 351.5873999595642, 351.70416498184204, 351.8207960128784, 351.9376599788666, 352.05457401275635, 352.1714208126068, 352.28797483444214, 352.4049668312073, 352.5216238498688, 352.7367708683014]	[348.6329019008921, 348.7495685675521, 349.7325685675521, 349.8992685675521, 350.6492685675521, 350.7659352342121, 350.88260190087215, 350.99926856753217, 351.1159352341922, 351.2326019008522, 351.34926856751224, 351.46593523417226, 351.5826019008323, 351.6992685674923, 351.81593523415233, 351.93260190081236, 352.0492685674724, 352.1659352341324, 352.28260190079243, 352.39926856745245, 352.5159352341125, 352.7492685674458]	2020_Nov_27_1519	59.96925976074086	1	0.375
8	59	FALSE	NA	a	['N', 'Z', 'T', 'B', 'U', 'G', 'E', 'S', 'C', 'X', 'K', 'J', 'W', 'V', 'R', 'H']	[1335, 2911, 1888, 760, 2059, 944, 904, 1731, 829, 4000, 1122, 1029, 2448, 2245, 1587, 986]	10	Present	NA	NA	PRESENT	0.02848005294799804	354.7380840778351	356.7363500595093	357.55302387868664	357.9030257860153	360.8531379699707	4.116787910461426	[354.7574360370636, 354.87402391433716, 355.83646392822266, 356.0085668563843, 356.7761080265045, 356.87622594833374, 356.9931688308716, 357.1097629070282, 357.2266700267792, 357.3432879447937, 357.4599828720093, 357.57683801651, 357.69385981559753, 357.81048583984375, 357.9271240234375, 358.0440340042114, 358.1609048843384, 358.2776999473572, 358.394583940506, 358.51124000549316, 358.62817883491516, 358.8531379699707]	[354.7492685674458, 354.86593523410585, 355.84893523410585, 356.01563523410584, 356.76563523410584, 356.88230190076587, 356.9989685674259, 357.1156352340859, 357.23230190074594, 357.34896856740596, 357.465635234066, 357.582301900726, 357.69896856738603, 357.81563523404606, 357.9323019007061, 358.0489685673661, 358.1656352340261, 358.28230190068615, 358.3989685673462, 358.5156352340062, 358.6323019006662, 358.86563523399957]	2020_Nov_27_1519	59.96925976074086	1	0.375
8	60	FALSE	NN	a	['U', 'K', 'Y', 'T', 'W', 'C', 'N', 'A', 'R', 'V', 'P', 'H', 'S', 'M', 'J', 'G']	[2059, 1122, 2670, 1888, 2448, 829, 1335, 697, 1587, 2245, 1456, 986, 1731, 1224, 1029, 944]	14	Absent	NA	NA	ABSENT	0.08910107612609863	360.8447680473328	362.85268211364746	364.1360235531391	364.4860254604678	366.9695038795471	4.116821765899658	[360.8641209602356, 360.98038601875305, 361.9528260231018, 362.13179183006287, 362.88260102272034, 362.99937891960144, 363.1162450313568, 363.2328608036041, 363.3496799468994, 363.4664180278778, 363.58327293395996, 363.7001049518585, 363.81670594215393, 363.9336669445038, 364.0502579212189, 364.1673138141632, 364.28399085998535, 364.4008538722992, 364.51745796203613, 364.6342308521271, 364.7511508464813, 364.9695038795471]	[360.86563523399957, 360.9823019006596, 361.9653019006596, 362.1320019006596, 362.8820019006596, 362.9986685673196, 363.11533523397964, 363.23200190063966, 363.3486685672997, 363.4653352339597, 363.58200190061973, 363.69866856727975, 363.8153352339398, 363.9320019005998, 364.0486685672598, 364.16533523391985, 364.28200190057987, 364.3986685672399, 364.5153352338999, 364.63200190055994, 364.74866856721997, 364.9820019005533]	2020_Nov_27_1519	59.96925976074086	1	0.375
8	61	FALSE	VN	a	['J', 'Z', 'V', 'W', 'U', 'N', 'E', 'surprise', 'M', 'A', 'P', 'T', 'C', 'R', 'B', 'K']	[1029, 2911, 2245, 2448, 2059, 1335, 904, 'stimAuditory/all_stimAuditory/124.wav', 1224, 697, 1456, 1888, 829, 1587, 760, 1122]	11	Absent	NA	NA	ABSENT	0.25440502166748047	366.96737408638	368.9690890312195	369.9024304707312	370.2524323780598	373.0858709812164	4.116781949996948	[366.98672580718994, 367.10371589660645, 368.06919288635254, 368.25475788116455, 369.0056710243225, 369.1226089000702, 369.23925590515137, 369.3560998439789, 369.47277188301086, 369.589586019516, 369.70621395111084, 369.82320189476013, 369.9400508403778, 370.0566358566284, 370.1734399795532, 370.29036498069763, 370.40706491470337, 370.5069658756256, 370.62403297424316, 370.74070286750793, 370.85743498802185, 371.0858700275421]	[366.9820019005533, 367.09866856721334, 368.08166856721334, 368.24836856721333, 368.99836856721333, 369.11503523387336, 369.2317019005334, 369.3483685671934, 369.4650352338534, 369.58170190051345, 369.6983685671735, 369.8150352338335, 369.9317019004935, 370.04836856715355, 370.16503523381357, 370.2817019004736, 370.3983685671336, 370.51503523379364, 370.63170190045366, 370.7483685671137, 370.8650352337737, 371.09836856710706]	2020_Nov_27_1519	59.96925976074086	1	0.375
8	62	FALSE	NA	a	['R', 'N', 'P', 'Y', 'T', 'Z', 'M', 'S', 'G', 'H', 'V', 'E', 'J', 'X', 'A', 'W']	[1587, 1335, 1456, 2670, 1888, 2911, 1224, 1731, 944, 986, 2245, 904, 1029, 4000, 697, 2448]	14	Present	NA	NA	PRESENT	0.2669849395751953	373.07405710220337	375.08559703826904	376.3689384777607	376.71894133876367	379.2022368907929	4.116639852523804	[373.0934088230133, 373.2098779678345, 374.18556094169617, 374.36130690574646, 375.1120219230652, 375.2288398742676, 375.34580302238464, 375.4624328613281, 375.57929396629333, 375.69589281082153, 375.8128340244293, 375.9295799732208, 376.04623103141785, 376.1632180213928, 376.2798500061035, 376.3967969417572, 376.51335287094116, 376.630411863327, 376.7469708919525, 376.86391401290894, 376.9806809425354, 377.20223784446716]	[373.09836856710706, 373.2150352337671, 374.1980352337671, 374.3647352337671, 375.1147352337671, 375.2314019004271, 375.3480685670871, 375.46473523374715, 375.5814019004072, 375.6980685670672, 375.8147352337272, 375.93140190038724, 376.04806856704727, 376.1647352337073, 376.2814019003673, 376.39806856702734, 376.51473523368736, 376.6314019003474, 376.7480685670074, 376.86473523366743, 376.98140190032746, 377.2147352336608]	2020_Nov_27_1519	59.96925976074086	1	0.375
8	63	FALSE	NA	a	['H', 'R', 'T', 'G', 'Z', 'A', 'K', 'N', 'X', 'C', 'J', 'U', 'S', 'E', 'P', 'M']	[986, 1587, 1888, 944, 2911, 697, 1122, 1335, 4000, 829, 1029, 2059, 1731, 904, 1456, 1224]	9	Present	NA	NA	ABSENT	0.27946019172668457	379.19689416885376	381.2017471790314	381.9017550468045	382.2517571925517	385.3186049461365	4.1168577671051025	[379.216246843338, 379.33310985565186, 380.3019289970398, 380.48421001434326, 381.23542189598083, 381.35196900367737, 381.46867299079895, 381.5856239795685, 381.70223689079285, 381.81922793388367, 381.9358949661255, 382.05259680747986, 382.1693170070648, 382.2860429286957, 382.40305495262146, 382.5197808742523, 382.63648200035095, 382.7534158229828, 382.8701000213623, 382.9870889186859, 383.10378193855286, 383.31860399246216]	[379.2147352336608, 379.3314019003208, 380.31440190032083, 380.4811019003208, 381.2311019003208, 381.34776856698085, 381.46443523364087, 381.5811019003009, 381.6977685669609, 381.81443523362094, 381.93110190028096, 382.047768566941, 382.164435233601, 382.28110190026104, 382.39776856692106, 382.5144352335811, 382.6311019002411, 382.74776856690113, 382.86443523356115, 382.9811019002212, 383.0977685668812, 383.33110190021455]	2020_Nov_27_1519	59.96925976074086	1	0.375
8	64	FALSE	NN	a	['R', 'G', 'P', 'K', 'Z', 'U', 'Y', 'E', 'M', 'N', 'H', 'C', 'T', 'B', 'S', 'V']	[1587, 944, 1456, 1122, 2911, 2059, 2670, 904, 1224, 1335, 986, 829, 1888, 760, 1731, 2245]	13	Absent	NA	NA	ABSENT	0.28488612174987793	385.3201191425323	387.318144083023	388.4848188558548	388.83482171685773	391.4349708557129	4.116826772689819	[385.3394708633423, 385.45614981651306, 386.4182958602905, 386.5905599594116, 387.3581359386444, 387.4582920074463, 387.57515692710876, 387.6918330192566, 387.8086049556732, 387.9254460334778, 388.0420229434967, 388.15893602371216, 388.27581787109375, 388.3925700187683, 388.5093970298767, 388.6261978149414, 388.7429778575897, 388.8598139286041, 388.9766278266907, 389.0934329032898, 389.2100360393524, 389.4349708557129]	[385.33110190021455, 385.4477685668746, 386.4307685668746, 386.59746856687457, 387.34746856687457, 387.4641352335346, 387.5808019001946, 387.69746856685464, 387.81413523351466, 387.9308019001747, 388.0474685668347, 388.16413523349473, 388.28080190015476, 388.3974685668148, 388.5141352334748, 388.6308019001348, 388.74746856679485, 388.8641352334549, 388.9808019001149, 389.0974685667749, 389.21413523343494, 389.4474685667683]	2020_Nov_27_1519	59.96925976074086	1	0.375
8	65	FALSE	NN	a	['B', 'T', 'Z', 'A', 'V', 'M', 'W', 'C', 'G', 'K', 'S', 'E', 'U', 'R', 'P', 'H']	[760, 1888, 2911, 697, 2245, 1224, 2448, 829, 944, 1122, 1731, 904, 2059, 1587, 1456, 986]	8	Absent	NA	NA	ABSENT	0.3134448528289795	391.4268810749054	393.4343810081482	394.0177214940056	394.3677234013342	397.5513379573822	4.116956949234009	[391.4462339878082, 391.5626800060272, 392.5346608161926, 392.71394300460815, 393.46471095085144, 393.58151388168335, 393.69815587997437, 393.81506991386414, 393.9318368434906, 394.04862880706787, 394.16542196273804, 394.28220796585083, 394.3988559246063, 394.5155940055847, 394.63238501548767, 394.74929690361023, 394.86602091789246, 394.9828658103943, 395.0995090007782, 395.216521024704, 395.33323192596436, 395.5513370037079]	[391.4474685667683, 391.5641352334283, 392.5471352334283, 392.7138352334283, 393.4638352334283, 393.58050190008834, 393.69716856674836, 393.8138352334084, 393.9305019000684, 394.04716856672843, 394.16383523338845, 394.2805019000485, 394.3971685667085, 394.5138352333685, 394.63050190002855, 394.7471685666886, 394.8638352333486, 394.9805019000086, 395.09716856666864, 395.21383523332867, 395.3305018999887, 395.56383523332204]	2020_Nov_27_1519	59.96925976074086	1	0.375
8	66	FALSE	NN	a	['Z', 'A', 'M', 'Y', 'C', 'E', 'N', 'B', 'W', 'U', 'K', 'G', 'S', 'V', 'J', 'P']	[2911, 697, 1224, 2670, 829, 904, 1335, 760, 2448, 2059, 1122, 944, 1731, 2245, 1029, 1456]	9	Absent	NA	NA	PRESENT	0.6708691120147705	397.54941606521606	399.55097699165344	400.2509850978451	400.60098700517375	403.6677029132843	4.116725921630859	[397.5687680244446, 397.6858329772949, 398.65102791786194, 398.8368709087372, 399.5878908634186, 399.7046239376068, 399.821240901947, 399.9381489753723, 400.05492997169495, 400.1715738773346, 400.28854990005493, 400.4051938056946, 400.52196884155273, 400.63893699645996, 400.7556459903717, 400.8555519580841, 400.97235584259033, 401.089115858078, 401.2059049606323, 401.3226888179779, 401.4395170211792, 401.6677038669586]	[397.56383523332204, 397.68050189998206, 398.66350189998207, 398.83020189998206, 399.58020189998206, 399.6968685666421, 399.8135352333021, 399.9302018999621, 400.04686856662215, 400.1635352332822, 400.2802018999422, 400.3968685666022, 400.51353523326225, 400.63020189992227, 400.7468685665823, 400.8635352332423, 400.98020189990234, 401.09686856656236, 401.2135352332224, 401.3302018998824, 401.44686856654243, 401.6802018998758]	2020_Nov_27_1519	59.96925976074086	1	0.375
8	67	FALSE	NN	a	['M', 'Z', 'N', 'R', 'K', 'S', 'C', 'H', 'G', 'A', 'Y', 'B', 'W', 'E', 'V', 'T']	[1224, 2911, 1335, 1587, 1122, 1731, 829, 986, 944, 697, 2670, 760, 2448, 904, 2245, 1888]	9	Absent	NA	NA	ABSENT	0.3230440616607666	403.65603613853455	405.6671311855316	406.367140006979	406.71714215272624	409.78407096862793	4.1169397830963135	[403.6753878593445, 403.79204297065735, 404.7673978805542, 404.9434688091278, 405.6941068172455, 405.8109369277954, 405.9278509616852, 406.044517993927, 406.16118693351746, 406.27818393707275, 406.3950319290161, 406.5115909576416, 406.6283309459686, 406.745187997818, 406.8617880344391, 406.97874188423157, 407.09559202194214, 407.21233081817627, 407.3290100097656, 407.4460480213165, 407.5626859664917, 407.78407192230225]	[403.6802018998758, 403.7968685665358, 404.7798685665358, 404.9465685665358, 405.6965685665358, 405.8132352331958, 405.92990189985585, 406.0465685665159, 406.1632352331759, 406.2799018998359, 406.39656856649594, 406.51323523315597, 406.629901899816, 406.746568566476, 406.86323523313604, 406.97990189979606, 407.0965685664561, 407.2132352331161, 407.32990189977613, 407.44656856643616, 407.5632352330962, 407.7965685664295]	2020_Nov_27_1519	59.96925976074086	1	0.375
8	68	FALSE	NA	a	['J', 'P', 'Z', 'C', 'H', 'R', 'A', 'M', 'S', 'N', 'X', 'W', 'E', 'G', 'B', 'T']	[1029, 1456, 2911, 829, 986, 1587, 697, 1224, 1731, 1335, 4000, 2448, 904, 944, 760, 1888]	11	Present	NA	NA	PRESENT	0.13580989837646484	409.77894711494446	411.7835230827331	412.716863330152	413.06686642957345	415.90043783187866	4.116914749145508	[409.7982988357544, 409.9151928424835, 410.88375902175903, 411.06668186187744, 411.8170909881592, 411.93408584594727, 412.0506989955902, 412.1677680015564, 412.2843379974365, 412.4010319709778, 412.5180118083954, 412.63491797447205, 412.75143480300903, 412.8682658672333, 412.9850618839264, 413.1018989086151, 413.21869802474976, 413.3355088233948, 413.4522399902344, 413.5691599845886, 413.6858479976654, 413.90043592453003]	[409.7965685664295, 409.91323523308955, 410.89623523308956, 411.06293523308955, 411.81293523308955, 411.92960189974957, 412.0462685664096, 412.1629352330696, 412.27960189972964, 412.39626856638967, 412.5129352330497, 412.6296018997097, 412.74626856636974, 412.86293523302976, 412.9796018996898, 413.0962685663498, 413.21293523300983, 413.32960189966985, 413.4462685663299, 413.5629352329899, 413.6796018996499, 413.9129352329833]	2020_Nov_27_1519	59.96925976074086	1	0.375
8	69	FALSE	NA	a	['B', 'A', 'P', 'M', 'T', 'Y', 'R', 'Z', 'N', 'X', 'V', 'J', 'C', 'S', 'U', 'W']	[760, 697, 1456, 1224, 1888, 2670, 1587, 2911, 1335, 4000, 2245, 1029, 829, 1731, 2059, 2448]	10	Present	NA	NA	ABSENT	0.35709285736083984	415.9023051261902	417.8997881412506	418.7164617220094	419.06646482143094	422.01680397987366	4.117015838623047	[415.9216558933258, 416.0384290218353, 417.0001268386841, 417.1726288795471, 417.94034481048584, 418.0403230190277, 418.157320022583, 418.27393102645874, 418.3908770084381, 418.5075559616089, 418.62424898147583, 418.7412450313568, 418.857745885849, 418.97467494010925, 419.0913908481598, 419.2083489894867, 419.32508993148804, 419.44180703163147, 419.5587549209595, 419.67547082901, 419.7921438217163, 420.01680397987366]	[415.9129352329833, 416.0296018996433, 417.0126018996433, 417.1793018996433, 417.9293018996433, 418.0459685663033, 418.16263523296334, 418.27930189962336, 418.3959685662834, 418.5126352329434, 418.62930189960343, 418.74596856626346, 418.8626352329235, 418.9793018995835, 419.0959685662435, 419.21263523290355, 419.3293018995636, 419.4459685662236, 419.5626352328836, 419.67930189954365, 419.79596856620367, 420.029301899537]	2020_Nov_27_1519	59.96925976074086	1	0.375
8	70	FALSE	NN	a	['K', 'Y', 'J', 'C', 'V', 'H', 'E', 'M', 'N', 'U', 'W', 'B', 'P', 'A', 'S', 'Z']	[1122, 2670, 1029, 829, 2245, 986, 904, 1224, 1335, 2059, 2448, 760, 1456, 697, 1731, 2911]	14	Absent	NA	NA	ABSENT	0.21753811836242676	422.00895500183105	424.0162341594696	425.2995744068684	425.6495765526156	428.1331708431244	4.116936683654785	[422.02830696105957, 422.1446979045868, 423.116495847702, 423.29579401016235, 424.0467429161072, 424.1635479927063, 424.28036189079285, 424.39720582962036, 424.5137619972229, 424.63059401512146, 424.7473638057709, 424.864266872406, 424.98103499412537, 425.0982208251953, 425.21445989608765, 425.33138489723206, 425.44802689552307, 425.5647859573364, 425.681715965271, 425.79856991767883, 425.9153389930725, 426.1331708431244]	[422.029301899537, 422.14596856619704, 423.12896856619705, 423.29566856619704, 424.04566856619704, 424.16233523285706, 424.2790018995171, 424.3956685661771, 424.51233523283713, 424.62900189949715, 424.7456685661572, 424.8623352328172, 424.9790018994772, 425.09566856613725, 425.2123352327973, 425.3290018994573, 425.4456685661173, 425.56233523277734, 425.67900189943737, 425.7956685660974, 425.9123352327574, 426.14566856609076]	2020_Nov_27_1519	59.96925976074086	1	0.375
8	71	FALSE	NA	a	['P', 'U', 'H', 'B', 'T', 'M', 'G', 'S', 'W', 'C', 'Z', 'A', 'K', 'X', 'Y', 'N']	[1456, 2059, 986, 760, 1888, 1224, 944, 1731, 2448, 829, 2911, 697, 1122, 4000, 2670, 1335]	14	Present	NA	NA	ABSENT	0.2870450019836426	428.1316931247711	430.1327390670776	431.4160805065693	431.76608241389795	434.2495379447937	4.1167988777160645	[428.15104484558105, 428.2677698135376, 429.2328608036041, 429.4190340042114, 430.16976499557495, 430.28655195236206, 430.4033260345459, 430.5201120376587, 430.63712882995605, 430.75363993644714, 430.870463848114, 430.9873468875885, 431.1041929721832, 431.22084188461304, 431.32077503204346, 431.4375319480896, 431.55472803115845, 431.6711518764496, 431.78796792030334, 431.9047818183899, 432.0215699672699, 432.2495379447937]	[428.14566856609076, 428.2623352327508, 429.2453352327508, 429.4120352327508, 430.1620352327508, 430.2787018994108, 430.39536856607083, 430.51203523273085, 430.6287018993909, 430.7453685660509, 430.8620352327109, 430.97870189937095, 431.09536856603097, 431.212035232691, 431.328701899351, 431.44536856601104, 431.56203523267106, 431.6787018993311, 431.7953685659911, 431.91203523265114, 432.02870189931116, 432.2620352326445]	2020_Nov_27_1519	59.96925976074086	1	0.375
8	72	FALSE	NN	a	['W', 'E', 'B', 'Z', 'U', 'T', 'A', 'V', 'P', 'Y', 'C', 'M', 'H', 'S', 'K', 'J']	[2448, 904, 760, 2911, 2059, 1888, 697, 2245, 1456, 2670, 829, 1224, 986, 1731, 1122, 1029]	8	Absent	NA	NA	ABSENT	0.19542217254638672	434.23817110061646	436.2493350505829	436.8326764901146	437.1826783974432	440.3659029006958	4.116567850112915	[434.2575228214264, 434.37410593032837, 435.34922885894775, 435.5254228115082, 436.2762448787689, 436.3928339481354, 436.5097289085388, 436.6266498565674, 436.74327087402344, 436.8602089881897, 436.97695302963257, 437.09385895729065, 437.2104768753052, 437.32726192474365, 437.444139957428, 437.56089091300964, 437.6775770187378, 437.79448199272156, 437.9111998081207, 438.0281128883362, 438.14476585388184, 438.3659029006958]	[434.2620352326445, 434.37870189930453, 435.36170189930453, 435.5284018993045, 436.2784018993045, 436.39506856596455, 436.5117352326246, 436.6284018992846, 436.7450685659446, 436.86173523260464, 436.97840189926467, 437.0950685659247, 437.2117352325847, 437.32840189924474, 437.44506856590476, 437.5617352325648, 437.6784018992248, 437.79506856588483, 437.91173523254486, 438.0284018992049, 438.1450685658649, 438.37840189919825]	2020_Nov_27_1519	59.96925976074086	1	0.375
8	73	FALSE	NN	a	['W', 'R', 'N', 'A', 'C', 'Z', 'M', 'H', 'K', 'P', 'B', 'Y', 'T', 'J', 'S', 'G']	[2448, 1587, 1335, 697, 829, 2911, 1224, 986, 1122, 1456, 760, 2670, 1888, 1029, 1731, 944]	14	Absent	NA	NA	ABSENT	0.23194408416748047	440.36115622520447	442.3655800819397	443.64892032933847	443.9989224750857	446.4822700023651	4.116689920425415	[440.3805079460144, 440.49731492996216, 441.46559500694275, 441.6486349105835, 442.39928698539734, 442.5161328315735, 442.63284182548523, 442.7497878074646, 442.8665280342102, 442.9831290245056, 443.10004782676697, 443.2167730331421, 443.3336658477783, 443.45051288604736, 443.5672068595886, 443.6839289665222, 443.80062198638916, 443.9175908565521, 444.0343029499054, 444.1509368419647, 444.2679479122162, 444.4822700023651]	[440.37840189919825, 440.4950685658583, 441.4780685658583, 441.64476856585827, 442.39476856585827, 442.5114352325183, 442.6281018991783, 442.74476856583834, 442.86143523249837, 442.9781018991584, 443.0947685658184, 443.21143523247844, 443.32810189913846, 443.4447685657985, 443.5614352324585, 443.67810189911853, 443.79476856577855, 443.9114352324386, 444.0281018990986, 444.1447685657586, 444.26143523241865, 444.494768565752]	2020_Nov_27_1519	59.96925976074086	1	0.375
8	74	FALSE	NN	a	['V', 'J', 'E', 'M', 'C', 'B', 'P', 'K', 'T', 'G', 'U', 'S', 'R', 'N', 'Y', 'H']	[2245, 1029, 904, 1224, 829, 760, 1456, 1122, 1888, 944, 2059, 1731, 1587, 1335, 2670, 986]	8	Absent	NA	NA	ABSENT	0.48525404930114746	446.4843170642853	448.4816701412201	449.0650103886589	449.4150125344061	452.59863781929016	4.116967678070068	[446.5036790370941, 446.6035668849945, 447.5819718837738, 447.75500202178955, 448.5054769515991, 448.6224148273468, 448.7391040325165, 448.85600996017456, 448.9727599620819, 449.0897059440613, 449.20655393600464, 449.32334780693054, 449.44007086753845, 449.55690693855286, 449.67345690727234, 449.7904169559479, 449.90707993507385, 450.0238709449768, 450.1407120227814, 450.25751781463623, 450.3743679523468, 450.59863686561584]	[446.494768565752, 446.611435232412, 447.594435232412, 447.761135232412, 448.511135232412, 448.62780189907204, 448.74446856573206, 448.8611352323921, 448.9778018990521, 449.09446856571213, 449.21113523237216, 449.3278018990322, 449.4444685656922, 449.5611352323522, 449.67780189901225, 449.7944685656723, 449.9111352323323, 450.0278018989923, 450.14446856565235, 450.26113523231237, 450.3778018989724, 450.61113523230574]	2020_Nov_27_1519	59.96925976074086	1	0.375
8	75	FALSE	NA	a	['W', 'H', 'P', 'G', 'E', 'S', 'K', 'B', 'X', 'A', 'R', 'U', 'M', 'C', 'T', 'Y']	[2448, 986, 1456, 944, 904, 1731, 1122, 760, 4000, 697, 1587, 2059, 1224, 829, 1888, 2670]	9	Present	NA	NA	PRESENT	0.07366013526916504	452.590900182724	454.5981240272522	455.2981311797696	455.6481330870982	458.7150039672851	4.116879940032959	[452.61025190353394, 452.72673988342285, 453.6983289718628, 453.87800192832947, 454.62863397598267, 454.74570894241333, 454.862251996994, 454.97927594184875, 455.0958788394928, 455.2128310203552, 455.3294038772583, 455.44642996788025, 455.56314182281494, 455.6797528266907, 455.796746969223, 455.9135239124298, 456.0302298069, 456.1469488143921, 456.26373386383057, 456.3805208206177, 456.4974730014801, 456.7150058746338]	[452.61113523230574, 452.72780189896577, 453.71080189896577, 453.87750189896576, 454.62750189896576, 454.7441685656258, 454.8608352322858, 454.97750189894583, 455.09416856560586, 455.2108352322659, 455.3275018989259, 455.4441685655859, 455.56083523224595, 455.677501898906, 455.794168565566, 455.910835232226, 456.02750189888604, 456.14416856554607, 456.2608352322061, 456.3775018988661, 456.49416856552614, 456.7275018988595]	2020_Nov_27_1519	59.96925976074086	1	0.375
8	76	FALSE	NN	a	['P', 'E', 'J', 'A', 'S', 'Y', 'C', 'W', 'G', 'H', 'M', 'Z', 'V', 'T', 'U', 'B']	[1456, 904, 1029, 697, 1731, 2670, 829, 2448, 944, 986, 1224, 2911, 2245, 1888, 2059, 760]	10	Absent	NA	NA	ABSENT	0.655142068862915	458.7136080265045	460.71455001831055	461.53122479116223	461.8812266984909	464.8313708305359	4.116820812225342	[458.73295998573303, 458.84975481033325, 459.8146939277649, 460.00105381011963, 460.75182580947876, 460.8686988353729, 460.9855749607086, 461.10206389427185, 461.2189338207245, 461.33590483665466, 461.4527540206909, 461.5525369644165, 461.66935086250305, 461.7862479686737, 461.9029788970947, 462.0196809768677, 462.1364769935608, 462.25327491760254, 462.3700478076935, 462.48684787750244, 462.6040139198303, 462.83136892318726]	[458.7275018988595, 458.8441685655195, 459.8271685655195, 459.9938685655195, 460.7438685655195, 460.86053523217953, 460.97720189883955, 461.0938685654996, 461.2105352321596, 461.3272018988196, 461.44386856547965, 461.56053523213967, 461.6772018987997, 461.7938685654597, 461.91053523211974, 462.02720189877977, 462.1438685654398, 462.2605352320998, 462.37720189875984, 462.49386856541986, 462.6105352320799, 462.84386856541323]	2020_Nov_27_1519	59.96925976074086	1	0.375
8	77	FALSE	NV	a	['N', 'T', 'R', 'M', 'B', 'E', 'P', 'G', 'X', 'V', 'A', 'J', 'Z', 'C', 'K', 'W']	[1335, 1888, 1587, 1224, 760, 904, 1456, 944, 4000, 2245, 697, 1029, 2911, 829, 1122, 2448]	9	Present	NA	NA	ABSENT	0.1636648178100586	464.8202271461487	466.83080220222473	467.5308091163235	467.88081102365214	470.9477379322052	4.116935729980469	[464.8395788669586, 464.9562289714813, 465.9310619831085, 466.10733103752136, 466.8582589626312, 466.9750888347626, 467.0917568206787, 467.2086818218231, 467.32530999183655, 467.44209694862366, 467.559063911438, 467.6759150028229, 467.792662858963, 467.90950989723206, 468.026211977005, 468.14295291900635, 468.259724855423, 468.37642884254456, 468.4932658672333, 468.6101088523865, 468.7269079685211, 468.9477379322052]	[464.84386856541323, 464.96053523207325, 465.94353523207326, 466.11023523207325, 466.86023523207325, 466.9769018987333, 467.0935685653933, 467.2102352320533, 467.32690189871334, 467.44356856537337, 467.5602352320334, 467.6769018986934, 467.79356856535344, 467.91023523201346, 468.0269018986735, 468.1435685653335, 468.26023523199353, 468.37690189865356, 468.4935685653136, 468.6102352319736, 468.7269018986336, 468.960235231967]	2020_Nov_27_1519	59.96925976074086	1	0.375
8	78	FALSE	AN	a	['K', 'W', 'R', 'H', 'N', 'U', 'surprise', 'S', 'P', 'Z', 'J', 'T', 'M', 'C', 'B', 'Y']	[1122, 2448, 1587, 986, 1335, 2059, 'stimAuditory/all_stimAuditory/103.wav', 1731, 1456, 2911, 1029, 1888, 1224, 829, 760, 2670]	10	Absent	stimAuditory/all_stimAuditory/224.wav	NA	ABSENT	0.0238199234008789	470.9431600570678	472.9472742080689	473.7639477888277	474.1139496961563	477.0641038417816	4.1168296337127686	[470.9625120162964, 471.07943391799927, 472.047425031662, 472.2306740283966, 472.9816269874573, 473.0982279777527, 473.21497988700867, 473.33167791366577, 473.4486539363861, 473.5651788711548, 473.68227887153625, 473.7988770008087, 473.915629863739, 474.0323419570923, 474.1492028236389, 474.2661700248718, 474.38287901878357, 474.49962997436523, 474.61643981933594, 474.73311281204224, 474.8500909805298, 475.0641038417816]	[470.960235231967, 471.076901898627, 472.059901898627, 472.226601898627, 472.976601898627, 473.093268565287, 473.20993523194704, 473.32660189860707, 473.4432685652671, 473.5599352319271, 473.67660189858714, 473.79326856524716, 473.9099352319072, 474.0266018985672, 474.14326856522723, 474.25993523188725, 474.3766018985473, 474.4932685652073, 474.6099352318673, 474.72660189852735, 474.8432685651874, 475.0766018985207]	2020_Nov_27_1519	59.96925976074086	1	0.375
8	79	FALSE	NV	a	['U', 'C', 'Z', 'P', 'T', 'A', 'V', 'E', 'W', 'N', 'X', 'G', 'B', 'R', 'K', 'M']	[2059, 829, 2911, 1456, 1888, 697, 2245, 904, 2448, 1335, 4000, 944, 760, 1587, 1122, 1224]	11	Present	NA	NA	PRESENT	0.14944195747375488	477.0663230419159	479.0638930797577	479.9972345192694	480.347236426598	483.1804699897766	4.116576910018921	[477.0856759548187, 477.1856048107147, 478.1637978553772, 478.33715081214905, 479.0875768661499, 479.2046089172363, 479.3214268684387, 479.4381458759308, 479.55503702163696, 479.6718318462372, 479.78841495513916, 479.90550780296326, 480.0220558643341, 480.1389558315277, 480.2556619644165, 480.3725199699402, 480.48920488357544, 480.60585498809814, 480.7228078842163, 480.8397629261017, 480.9563009738922, 481.1804709434509]	[477.0766018985207, 477.19326856518074, 478.17626856518075, 478.34296856518074, 479.09296856518074, 479.20963523184076, 479.3263018985008, 479.4429685651608, 479.55963523182083, 479.67630189848086, 479.7929685651409, 479.9096352318009, 480.02630189846093, 480.14296856512095, 480.259635231781, 480.376301898441, 480.492968565101, 480.60963523176105, 480.72630189842107, 480.8429685650811, 480.9596352317411, 481.19296856507447]	2020_Nov_27_1519	59.96925976074086	1	0.375
