participant	trial_num	practice	task	condition	RSVP	RAP	probePos	probe_presence	surprise_sound	surprise_img	probe_response	probe_resp_time	first_fixation_time	trial_start_time	surprise_start_time	probe_start_time	trial_end_time	trial_duration	actualEventTimes	plannedEventTimes	date	framerate	marker_vol	RAP_vol
21	1	FALSE	NV	v	['W', 'H', 'R', 'A', 'K', 'C', 'Z', 'S', 'J', 'M', 'U', 'X', 'B', 'Y', 'N', 'P']	[2448, 986, 1587, 697, 1122, 829, 2911, 1731, 1029, 1224, 2059, 4000, 760, 2670, 1335, 1456]	12	Present	NA	NA	PRESENT	0.0740509033203125	3.0994415283203125e-6	1.987905979156494	3.0367989540100098	3.386744976043701	6.1038689613342285	4.115962982177734	[0.02113795280456543, 0.1212770938873291, 1.1057720184326172, 1.2723379135131836, 2.0232980251312256, 2.139894962310791, 2.2569029331207275, 2.373677968978882, 2.49045991897583, 2.6071488857269287, 2.7240641117095947, 2.840744972229004, 2.95750093460083, 3.074738025665283, 3.1913259029388428, 3.308069944381714, 3.4246480464935303, 3.541599988937378, 3.658292055130005, 3.7750940322875977, 3.89188289642334, 4.1038689613342285]	[9.5367431640625e-07, 0.11666762034098306, 1.099667620340983, 1.266367620340983, 2.016367620340983, 2.1330342870076495, 2.249700953674316, 2.366367620340983, 2.4830342870076496, 2.5997009536743163, 2.716367620340983, 2.8330342870076497, 2.9497009536743164, 3.066367620340983, 3.18303428700765, 3.2997009536743165, 3.416367620340983, 3.53303428700765, 3.6497009536743166, 3.7663676203409833, 3.88303428700765, 4.116367620340983]	2021_Feb_02_1709	59.930100905030386	1	1
21	2	FALSE	NV	v	['Z', 'K', 'E', 'B', 'W', 'P', 'N', 'S', 'J', 'G', 'A', 'X', 'Y', 'H', 'C', 'V']	[2911, 1122, 904, 760, 2448, 1456, 1335, 1731, 1029, 944, 697, 4000, 2670, 986, 829, 2245]	12	Present	NA	NA	PRESENT	0.17479515075683594	6.089641094207764	8.101972103118896	9.153402090072632	9.501955032348633	12.22023606300354	4.1182639598846436	[6.110776901245117, 6.227763891220093, 7.211985111236572, 7.378880023956299, 8.146408081054688, 8.246376037597656, 8.363241910934448, 8.496814012527466, 8.596774101257324, 8.71379804611206, 8.83048391342163, 8.947139024734497, 9.064027070999146, 9.180953025817871, 9.297668933868408, 9.414518117904663, 9.531336069107056, 9.647897005081177, 9.764909982681274, 9.881484985351562, 9.998460054397583, 10.22023606300354]	[6.116367620340983, 6.23303428700765, 7.216034287007649, 7.382734287007649, 8.132734287007649, 8.249400953674316, 8.366067620340983, 8.48273428700765, 8.599400953674317, 8.716067620340985, 8.832734287007652, 8.949400953674319, 9.066067620340986, 9.182734287007653, 9.29940095367432, 9.416067620340987, 9.532734287007655, 9.649400953674322, 9.766067620340989, 9.882734287007656, 9.999400953674323, 10.232734287007656]	2021_Feb_02_1709	59.930100905030386	1	1
21	3	FALSE	NA	v	['C', 'H', 'R', 'S', 'M', 'J', 'N', 'A', 'B', 'T', 'X', 'Z', 'E', 'Y', 'V', 'W']	[829, 986, 1587, 1731, 1224, 1029, 1335, 697, 760, 1888, 4000, 2911, 904, 2670, 2245, 2448]	11	Present	NA	NA	PRESENT	0.3714029788970947	12.21299409866333	14.218544006347656	15.151968955993652	15.502012014389038	18.336601972579956	4.1180579662323	[12.234128952026367, 12.351030111312866, 13.335577011108398, 13.502238035202026, 14.252871036529541, 14.3695969581604, 14.486607074737549, 14.603380918502808, 14.720246076583862, 14.836990118026733, 14.953718900680542, 15.070436954498291, 15.187397003173828, 15.304167985916138, 15.420950889587402, 15.537715911865234, 15.654567003250122, 15.7710599899292, 15.888115882873535, 16.004748106002808, 16.121711015701294, 16.336601972579956]	[12.232734287007656, 12.349400953674323, 13.332400953674323, 13.499100953674324, 14.249100953674324, 14.365767620340991, 14.482434287007658, 14.599100953674325, 14.715767620340992, 14.83243428700766, 14.949100953674327, 15.065767620340994, 15.182434287007661, 15.299100953674328, 15.415767620340995, 15.532434287007662, 15.64910095367433, 15.765767620340997, 15.882434287007664, 15.999100953674331, 16.115767620340996, 16.34910095367433]	2021_Feb_02_1709	59.930100905030386	1	1
21	4	FALSE	AA	v	['B', 'M', 'R', 'W', 'K', 'N', 'Y', 'P', 'surprise', 'G', 'T', 'X', 'H', 'Z', 'J', 'V']	[760, 1224, 1587, 2448, 1122, 1335, 2670, 1456, 'stimAuditory/all_stimAuditory/113.wav', 944, 1888, 4000, 986, 2911, 1029, 2245]	12	Present	stimAuditory/all_stimAuditory/113.wav	stimVisual/all_stimVisual/119.jpg	PRESENT	1.0405499935150146	18.336123943328857	20.334988117218018	21.384968042373657	21.734925985336304	24.452970027923584	4.117981910705566	[18.35725998878479, 18.47400188446045, 19.441631078720093, 19.608525037765503, 20.376115083694458, 20.4928081035614, 20.609540939331055, 20.726571083068848, 20.84319806098938, 20.960213899612427, 21.076929092407227, 21.19380211830139, 21.310308933258057, 21.427303075790405, 21.527141094207764, 21.644007921218872, 21.760842084884644, 21.877624034881592, 21.99426794052124, 22.111123085021973, 22.228111028671265, 22.452969074249268]	[18.34910095367433, 18.465767620340998, 19.448767620341, 19.615467620340997, 20.365467620340997, 20.482134287007664, 20.59880095367433, 20.715467620341, 20.832134287007666, 20.948800953674333, 21.065467620341, 21.182134287007667, 21.298800953674334, 21.415467620341, 21.53213428700767, 21.648800953674336, 21.765467620341003, 21.88213428700767, 21.998800953674337, 22.115467620341004, 22.23213428700767, 22.465467620341006]	2021_Feb_02_1709	59.930100905030386	1	1
21	5	FALSE	NA	v	['B', 'C', 'T', 'N', 'R', 'P', 'Z', 'Y', 'E', 'U', 'V', 'X', 'S', 'M', 'K', 'J']	[760, 829, 1888, 1335, 1587, 1456, 2911, 2670, 904, 2059, 2245, 4000, 1731, 1224, 1122, 1029]	12	Present	NA	NA	PRESENT	0.5167908668518066	24.44251608848572	26.450833082199097	27.5012891292572	27.851258039474487	30.569336891174316	4.11850380897522	[24.46365189552307, 24.580678939819336, 25.565119981765747, 25.731796979904175, 26.482521057128906, 26.599370002746582, 26.71628999710083, 26.8328959941864, 26.94981288909912, 27.06651496887207, 27.183377027511597, 27.30018401145935, 27.417009115219116, 27.53359889984131, 27.650553941726685, 27.767324924468994, 27.884186029434204, 28.001007080078125, 28.117568016052246, 28.23442792892456, 28.35126495361328, 28.5693359375]	[24.465467620341006, 24.582134287007673, 25.565134287007673, 25.731834287007672, 26.481834287007672, 26.59850095367434, 26.715167620341006, 26.831834287007673, 26.94850095367434, 27.065167620341008, 27.181834287007675, 27.298500953674342, 27.41516762034101, 27.531834287007676, 27.648500953674343, 27.76516762034101, 27.881834287007678, 27.998500953674345, 28.115167620341012, 28.23183428700768, 28.348500953674346, 28.58183428700768]	2021_Feb_02_1709	59.930100905030386	1	1
21	6	FALSE	NA	v	['N', 'J', 'Z', 'M', 'U', 'B', 'P', 'G', 'E', 'Y', 'A', 'R', 'X', 'T', 'C', 'K']	[1335, 1029, 2911, 1224, 2059, 760, 1456, 944, 904, 2670, 697, 1587, 4000, 1888, 829, 1122]	13	Present	NA	NA	PRESENT	0.4665429592132568	30.566002130508423	32.56738209724426	33.73450493812561	34.08429408073425	36.68570399284363	4.118321895599365	[30.58714008331299, 30.70373010635376, 31.688256978988647, 31.85507893562317, 32.6058669090271, 32.72261905670166, 32.83943009376526, 32.95604705810547, 33.073249101638794, 33.18978309631348, 33.30667805671692, 33.423381090164185, 33.54004788398743, 33.65678691864014, 33.77373504638672, 33.89051294326782, 34.00741410255432, 34.124104022979736, 34.24066996574402, 34.35766100883484, 34.45762395858765, 34.68570303916931]	[30.58183428700768, 30.698500953674348, 31.681500953674348, 31.848200953674347, 32.59820095367435, 32.71486762034102, 32.831534287007685, 32.94820095367435, 33.06486762034102, 33.181534287007686, 33.29820095367435, 33.41486762034102, 33.53153428700769, 33.648200953674355, 33.76486762034102, 33.88153428700769, 33.998200953674356, 34.11486762034102, 34.23153428700769, 34.34820095367436, 34.464867620341025, 34.69820095367436]	2021_Feb_02_1709	59.930100905030386	1	1
21	7	FALSE	NV	v	['U', 'W', 'G', 'N', 'C', 'M', 'Z', 'Y', 'V', 'X', 'B', 'T', 'J', 'H', 'K', 'R']	[2059, 2448, 944, 1335, 829, 1224, 2911, 2670, 2245, 4000, 760, 1888, 1029, 986, 1122, 1587]	10	Present	NA	NA	PRESENT	0.4149589538574219	36.67233109474182	38.68369007110596	39.50059914588928	39.850610971450806	42.80206990242005	4.118379831314087	[36.69346594810486, 36.81030201911926, 37.794524908065796, 37.96156191825867, 38.72903895378113, 38.8290638923645, 38.94589400291443, 39.06261706352234, 39.179574966430664, 39.296072006225586, 39.413023948669434, 39.52964401245117, 39.64652705192566, 39.763580083847046, 39.880253076553345, 39.99701499938965, 40.11369299888611, 40.23043489456177, 40.34730410575867, 40.464026927948, 40.5809600353241, 40.80206894874573]	[36.69820095367436, 36.814867620341026, 37.79786762034102, 37.96456762034102, 38.71456762034102, 38.83123428700769, 38.947900953674356, 39.06456762034102, 39.18123428700769, 39.29790095367436, 39.414567620341025, 39.53123428700769, 39.64790095367436, 39.764567620341026, 39.88123428700769, 39.99790095367436, 40.11456762034103, 40.231234287007695, 40.34790095367436, 40.46456762034103, 40.581234287007696, 40.81456762034103]	2021_Feb_02_1709	59.930100905030386	1	1
21	8	FALSE	NA	v	['P', 'J', 'E', 'V', 'Y', 'C', 'Z', 'U', 'T', 'S', 'K', 'A', 'X', 'B', 'W', 'R']	[1456, 1029, 904, 2245, 2670, 829, 2911, 2059, 1888, 1731, 1122, 697, 4000, 760, 2448, 1587]	13	Present	NA	NA	ABSENT	0.25945496559143066	42.795501947402954	44.79984402656555	45.966838121414185	46.31715798377991	48.918437004089355	4.118592977523804	[42.81663703918457, 42.93334698677063, 43.918095111846924, 44.08469104766846, 44.83544898033142, 44.95226788520813, 45.069140911102295, 45.185877084732056, 45.30264210700989, 45.41932392120361, 45.536335945129395, 45.65286207199097, 45.76995396614075, 45.88658809661865, 46.00331211090088, 46.120136976242065, 46.23694205284119, 46.35377311706543, 46.470391035079956, 46.58735489845276, 46.70408606529236, 46.91843605041504]	[42.81456762034103, 42.9312342870077, 43.914234287007694, 44.08093428700769, 44.83093428700769, 44.94760095367436, 45.06426762034103, 45.180934287007695, 45.29760095367436, 45.41426762034103, 45.530934287007696, 45.64760095367436, 45.76426762034103, 45.8809342870077, 45.997600953674365, 46.11426762034103, 46.2309342870077, 46.347600953674366, 46.46426762034103, 46.5809342870077, 46.69760095367437, 46.9309342870077]	2021_Feb_02_1709	59.930100905030386	1	1
21	9	FALSE	NV	v	['N', 'K', 'M', 'V', 'A', 'Z', 'G', 'R', 'X', 'S', 'C', 'T', 'J', 'E', 'P', 'W']	[1335, 1122, 1224, 2245, 697, 2911, 944, 1587, 4000, 1731, 829, 1888, 1029, 904, 1456, 2448]	9	Present	NA	NA	PRESENT	0.3041689395904541	48.91869115829468	50.916810035705566	51.61702513694763	51.9665961265564	55.03480291366577	4.117992877960205	[48.939826011657715, 49.03969407081604, 50.0241539478302, 50.19100999832153, 50.95855689048767, 51.05857992172241, 51.19199299812317, 51.29219102859497, 51.425698041915894, 51.52569603919983, 51.64248490333557, 51.75938892364502, 51.87611198425293, 51.99292492866516, 52.109780073165894, 52.22651290893555, 52.34349203109741, 52.460092067718506, 52.5771279335022, 52.693658113479614, 52.81062602996826, 53.034801959991455]	[48.9309342870077, 49.04760095367437, 50.030600953674366, 50.197300953674365, 50.947300953674365, 51.06396762034103, 51.1806342870077, 51.297300953674366, 51.41396762034103, 51.5306342870077, 51.64730095367437, 51.763967620341035, 51.8806342870077, 51.99730095367437, 52.113967620341036, 52.2306342870077, 52.34730095367437, 52.46396762034104, 52.580634287007705, 52.69730095367437, 52.81396762034104, 53.04730095367437]	2021_Feb_02_1709	59.930100905030386	1	1
21	10	FALSE	NN	v	['S', 'Z', 'A', 'N', 'Y', 'H', 'M', 'C', 'J', 'U', 'G', 'K', 'T', 'R', 'W', 'B']	[1731, 2911, 697, 1335, 2670, 986, 1224, 829, 1029, 2059, 944, 1122, 1888, 1587, 2448, 760]	11	Absent	NA	NA	ABSENT	0.22127509117126465	55.02505803108215	57.03266906738281	57.966493129730225	58.31646704673767	61.15117001533508	4.1185009479522705	[55.046194076538086, 55.16307711601257, 56.147319078445435, 56.31415510177612, 57.06500291824341, 57.18175196647644, 57.29858589172363, 57.41556000709534, 57.53233790397644, 57.64885711669922, 57.76567196846008, 57.88251996040344, 57.99958109855652, 58.11631107330322, 58.23309588432312, 58.3498260974884, 58.466546058654785, 58.583385944366455, 58.70023703575134, 58.817049980163574, 58.93346309661865, 59.1511709690094]	[55.04730095367437, 55.16396762034104, 56.14696762034104, 56.313667620341036, 57.063667620341036, 57.1803342870077, 57.29700095367437, 57.41366762034104, 57.530334287007705, 57.64700095367437, 57.76366762034104, 57.880334287007706, 57.99700095367437, 58.11366762034104, 58.23033428700771, 58.347000953674375, 58.46366762034104, 58.58033428700771, 58.697000953674376, 58.81366762034104, 58.93033428700771, 59.163667620341045]	2021_Feb_02_1709	59.930100905030386	1	1
21	11	FALSE	NA	v	['H', 'C', 'N', 'S', 'Y', 'M', 'R', 'P', 'T', 'W', 'V', 'A', 'J', 'X', 'B', 'U']	[986, 829, 1335, 1731, 2670, 1224, 1587, 1456, 1888, 2448, 2245, 697, 1029, 4000, 760, 2059]	14	Present	NA	NA	PRESENT	0.10640883445739746	61.14837813377381	63.14918494224548	64.43270516395569	64.78276801109314	67.2675371170044	4.118352174758911	[61.16951298713684, 61.28637504577637, 62.27057409286499, 62.43741011619568, 63.18858194351196, 63.304994106292725, 63.42176008224487, 63.53872895240784, 63.655487060546875, 63.77231693267822, 63.88893508911133, 64.00593400001526, 64.1227240562439, 64.23957705497742, 64.35623788833618, 64.4730339050293, 64.5897569656372, 64.70668196678162, 64.82325005531311, 64.94020199775696, 65.04001188278198, 65.2675371170044]	[61.163667620341045, 61.28033428700771, 62.26333428700771, 62.43003428700771, 63.18003428700771, 63.296700953674375, 63.41336762034104, 63.53003428700771, 63.646700953674376, 63.76336762034104, 63.88003428700771, 63.99670095367438, 64.11336762034104, 64.2300342870077, 64.34670095367436, 64.46336762034102, 64.58003428700768, 64.69670095367434, 64.813367620341, 64.93003428700766, 65.04670095367432, 65.28003428700765]	2021_Feb_02_1709	59.930100905030386	1	1
21	12	FALSE	NV	v	['B', 'H', 'Z', 'R', 'W', 'M', 'T', 'G', 'Y', 'X', 'S', 'P', 'K', 'V', 'A', 'U']	[760, 986, 2911, 1587, 2448, 1224, 1888, 944, 2670, 4000, 1731, 1456, 1122, 2245, 697, 2059]	10	Present	NA	NA	ABSENT	0.8071079254150391	67.25468707084656	69.26570415496826	70.08260798454285	70.43383502960205	73.38390302658081	4.118198871612549	[67.27582311630249, 67.39273595809937, 68.37716388702393, 68.54394102096558, 69.29457592964172, 69.41156911849976, 69.52831196784973, 69.64492392539978, 69.7620370388031, 69.87861490249634, 69.99554705619812, 70.11268210411072, 70.22922396659851, 70.34585404396057, 70.46274900436401, 70.57933497428894, 70.69622206687927, 70.8129870891571, 70.929927110672, 71.04655504226685, 71.16351199150085, 71.3839020729065]	[67.28003428700765, 67.39670095367431, 68.37970095367432, 68.54640095367432, 69.29640095367432, 69.41306762034098, 69.52973428700764, 69.6464009536743, 69.76306762034096, 69.87973428700762, 69.99640095367428, 70.11306762034094, 70.2297342870076, 70.34640095367426, 70.46306762034092, 70.57973428700758, 70.69640095367424, 70.8130676203409, 70.92973428700756, 71.04640095367422, 71.16306762034088, 71.39640095367422]	2021_Feb_02_1709	59.930100905030386	1	1
21	13	FALSE	NA	v	['C', 'K', 'G', 'W', 'A', 'Z', 'J', 'H', 'T', 'R', 'B', 'X', 'Y', 'E', 'U', 'P']	[829, 1122, 944, 2448, 697, 2911, 1029, 986, 1888, 1587, 760, 4000, 2670, 904, 2059, 1456]	12	Present	NA	NA	PRESENT	0.9157609939575196	73.37835907936096	75.38194394111633	76.43200898170471	76.78218412399292	79.50026893615723	4.1183249950408936	[73.399493932724, 73.51593399047852, 74.50025391578674, 74.66722393035889, 75.41793894767761, 75.53471398353577, 75.65165495872498, 75.81822609901428, 75.88527297973633, 76.00196290016174, 76.11862897872925, 76.23547291755676, 76.3523359298706, 76.4690420627594, 76.58578610420227, 76.70283198356628, 76.81949090957642, 76.93632507324219, 77.05311703681946, 77.16994595527649, 77.28671598434448, 77.50026988983154]	[73.39640095367422, 73.51306762034088, 74.49606762034088, 74.66276762034089, 75.41276762034089, 75.52943428700755, 75.6461009536742, 75.76276762034087, 75.87943428700753, 75.99610095367419, 76.11276762034085, 76.2294342870075, 76.34610095367417, 76.46276762034083, 76.57943428700749, 76.69610095367415, 76.81276762034081, 76.92943428700747, 77.04610095367413, 77.16276762034079, 77.27943428700745, 77.51276762034078]	2021_Feb_02_1709	59.930100905030386	1	1
21	14	FALSE	NV	v	['S', 'B', 'A', 'G', 'Z', 'C', 'P', 'T', 'K', 'M', 'Y', 'R', 'X', 'W', 'N', 'V']	[1731, 760, 697, 944, 2911, 829, 1456, 1888, 1122, 1224, 2670, 1587, 4000, 2448, 1335, 2245]	13	Present	NA	NA	ABSENT	0.2490248680114746	79.48424005508423	81.49814105033875	82.6653699874878	83.0152759552002	85.61663699150085	4.118495941162109	[79.50537490844727, 79.62228798866272, 80.60683608055115, 80.7736349105835, 81.5410430431366, 81.64102101325989, 81.75780892372131, 81.87458896636963, 81.99144291877747, 82.10826110839844, 82.22502303123474, 82.34187698364258, 82.45884394645691, 82.57540011405945, 82.69241404533386, 82.80897808074951, 82.92601609230042, 83.04295492172241, 83.15944004058838, 83.2762770652771, 83.39316511154175, 83.61663699150085]	[79.51276762034078, 79.62943428700744, 80.61243428700745, 80.77913428700745, 81.52913428700745, 81.64580095367411, 81.76246762034077, 81.87913428700743, 81.99580095367409, 82.11246762034075, 82.22913428700741, 82.34580095367407, 82.46246762034073, 82.57913428700739, 82.69580095367405, 82.81246762034071, 82.92913428700737, 83.04580095367403, 83.16246762034069, 83.27913428700735, 83.39580095367401, 83.62913428700735]	2021_Feb_02_1709	59.930100905030386	1	1
21	15	FALSE	NA	v	['B', 'E', 'R', 'Y', 'H', 'W', 'M', 'K', 'X', 'G', 'A', 'Z', 'C', 'P', 'J', 'U']	[760, 904, 1587, 2670, 986, 2448, 1224, 1122, 4000, 944, 697, 2911, 829, 1456, 1029, 2059]	9	Present	NA	NA	PRESENT	0.10135889053344728	85.60766315460205	87.61477613449097	88.31474113464355	88.66488599777222	91.73300290107728	4.118226766586304	[85.6287989616394, 85.74571299552917, 86.73002099990845, 86.89692711830139, 87.64748692512512, 87.764230966568, 87.88125801086426, 87.99800992012024, 88.1148009300232, 88.23154211044312, 88.34840297698975, 88.46513295173645, 88.58181405067444, 88.69873404502869, 88.81535601615906, 88.9320740699768, 89.04921388626099, 89.16598892211914, 89.28279209136963, 89.39951610565186, 89.51619505882263, 89.73300409317017]	[85.62913428700735, 85.745800953674, 86.72880095367401, 86.89550095367402, 87.64550095367402, 87.76216762034068, 87.87883428700734, 87.995500953674, 88.11216762034066, 88.22883428700732, 88.34550095367398, 88.46216762034064, 88.5788342870073, 88.69550095367396, 88.81216762034062, 88.92883428700728, 89.04550095367394, 89.1621676203406, 89.27883428700726, 89.39550095367392, 89.51216762034058, 89.74550095367391]	2021_Feb_02_1709	59.930100905030386	1	1
21	16	FALSE	NA	v	['S', 'H', 'A', 'T', 'U', 'G', 'Y', 'P', 'X', 'B', 'V', 'W', 'N', 'K', 'C', 'R']	[1731, 986, 697, 1888, 2059, 944, 2670, 1456, 4000, 760, 2245, 2448, 1335, 1122, 829, 1587]	9	Present	NA	NA	ABSENT	0.10669589042663574	91.73084712028503	93.73102712631226	94.43124008178712	94.78115701675416	97.84937000274658	4.118342876434326	[91.75198411941528, 91.86866903305054, 92.85317492485046, 93.02002000808716, 93.77113389968872, 93.88763499259949, 94.00425696372986, 94.12106204032898, 94.23785591125488, 94.35477089881897, 94.47138500213623, 94.5881769657135, 94.70513200759888, 94.82192993164062, 94.9385769367218, 95.05554699897766, 95.17215204238892, 95.28893709182739, 95.40598201751709, 95.5225830078125, 95.62282299995422, 95.84936904907227]	[91.74550095367391, 91.86216762034057, 92.84516762034058, 93.01186762034058, 93.76186762034058, 93.87853428700724, 93.9952009536739, 94.11186762034056, 94.22853428700722, 94.34520095367388, 94.46186762034054, 94.5785342870072, 94.69520095367386, 94.81186762034052, 94.92853428700718, 95.04520095367384, 95.1618676203405, 95.27853428700716, 95.39520095367382, 95.51186762034048, 95.62853428700714, 95.86186762034048]	2021_Feb_02_1709	59.930100905030386	1	1
21	17	FALSE	NA	v	['G', 'N', 'Z', 'E', 'M', 'J', 'C', 'Y', 'X', 'S', 'R', 'W', 'T', 'A', 'P', 'K']	[944, 1335, 2911, 904, 1224, 1029, 829, 2670, 4000, 1731, 1587, 2448, 1888, 697, 1456, 1122]	9	Present	NA	NA	PRESENT	0.14324188232421875	97.83747410774232	99.84747505187988	100.54775714874268	100.89779496192932	103.965735912323	4.118260860443115	[97.8586208820343, 97.97525310516357, 98.95956707000732, 99.12651991844177, 99.87714505195618, 99.99393606185913, 100.11073303222656, 100.22742509841919, 100.34452295303345, 100.46115493774414, 100.57806611061096, 100.6947751045227, 100.81141901016235, 100.92829990386963, 101.04504299163818, 101.1618549823761, 101.27864503860474, 101.39558005332947, 101.51229310035706, 101.62910008430481, 101.7459089756012, 101.965735912323]	[97.86186762034048, 97.97853428700714, 98.96153428700714, 99.12823428700715, 99.87823428700715, 99.9949009536738, 100.11156762034047, 100.22823428700713, 100.34490095367379, 100.46156762034045, 100.5782342870071, 100.69490095367377, 100.81156762034043, 100.92823428700709, 101.04490095367375, 101.1615676203404, 101.27823428700707, 101.39490095367373, 101.51156762034039, 101.62823428700705, 101.7449009536737, 101.97823428700704]	2021_Feb_02_1709	59.930100905030386	1	1
21	18	FALSE	AV	v	['U', 'Y', 'G', 'S', 'K', 'surprise', 'V', 'W', 'X', 'A', 'C', 'N', 'R', 'M', 'E', 'T']	[2059, 2670, 944, 1731, 1122, 'stimAuditory/all_stimAuditory/221.wav', 2245, 2448, 4000, 697, 829, 1335, 1587, 1224, 904, 1888]	9	Present	stimAuditory/all_stimAuditory/221.wav	stimVisual/all_stimVisual/213.jpg	ABSENT	1.0039939880371094	103.96090006828308	105.96357703208923	106.664311170578	107.01416301727296	110.082102060318	4.11852502822876	[103.98203611373901, 104.098228931427, 105.08302307128906, 105.24954891204834, 106.00045895576477, 106.11712503433228, 106.23398494720459, 106.35066509246826, 106.46764302253723, 106.58420395851135, 106.70122599601746, 106.81803798675537, 106.93469190597534, 107.0516049861908, 107.16828489303589, 107.28519105911255, 107.40200400352478, 107.51882290840149, 107.63540601730347, 107.75225400924683, 107.86906695365906, 108.08210301399231]	[103.97823428700704, 104.0949009536737, 105.0779009536737, 105.24460095367371, 105.99460095367371, 106.11126762034037, 106.22793428700703, 106.34460095367369, 106.46126762034035, 106.57793428700701, 106.69460095367367, 106.81126762034033, 106.92793428700699, 107.04460095367365, 107.16126762034031, 107.27793428700697, 107.39460095367363, 107.51126762034029, 107.62793428700695, 107.74460095367361, 107.86126762034027, 108.0946009536736]	2021_Feb_02_1709	59.930100905030386	1	1
21	19	FALSE	NN	v	['G', 'Y', 'E', 'S', 'J', 'K', 'N', 'C', 'T', 'Z', 'H', 'M', 'W', 'P', 'V', 'U']	[944, 2670, 904, 1731, 1029, 1122, 1335, 829, 1888, 2911, 986, 1224, 2448, 1456, 2245, 2059]	13	Absent	NA	NA	ABSENT	0.2012779712677002	110.06692099571228	112.0799880027771	113.2471001148224	113.59719514846802	116.19847011566162	4.1184821128845215	[110.08806800842285, 110.20479488372803, 111.1891860961914, 111.35621094703674, 112.12356400489807, 112.2235860824585, 112.34056091308594, 112.45709300041199, 112.57388591766357, 112.6907479763031, 112.80766701698303, 112.92433094978333, 113.04140305519104, 113.15801310539246, 113.27471899986267, 113.39144992828369, 113.50850105285645, 113.62511897087097, 113.74187588691711, 113.85881805419922, 113.97554993629456, 114.19846892356873]	[110.0946009536736, 110.21126762034027, 111.19426762034027, 111.36096762034028, 112.11096762034028, 112.22763428700694, 112.3443009536736, 112.46096762034026, 112.57763428700692, 112.69430095367358, 112.81096762034024, 112.9276342870069, 113.04430095367356, 113.16096762034022, 113.27763428700688, 113.39430095367354, 113.5109676203402, 113.62763428700686, 113.74430095367352, 113.86096762034018, 113.97763428700684, 114.21096762034017]	2021_Feb_02_1709	59.930100905030386	1	1
21	20	FALSE	NV	v	['N', 'C', 'U', 'S', 'Y', 'E', 'K', 'W', 'R', 'P', 'V', 'J', 'T', 'X', 'H', 'B']	[1335, 829, 2059, 1731, 2670, 904, 1122, 2448, 1587, 1456, 2245, 1029, 1888, 4000, 986, 760]	14	Present	NA	NA	PRESENT	0.1497640609741211	116.19028401374815	118.19636702537537	119.47998595237732	119.83013916015624	122.31483602523804	4.118468999862671	[116.21143198013306, 116.32817196846008, 117.31239700317383, 117.47940802574158, 118.23018193244934, 118.34675908088684, 118.46353793144226, 118.5805230140686, 118.69712495803833, 118.81399488449097, 118.93057298660278, 119.04765892028809, 119.16431593894958, 119.28123211860657, 119.39790606498718, 119.51485395431519, 119.63142991065979, 119.7484860420227, 119.86504411697388, 119.9820499420166, 120.09875893592834, 120.31483697891235]	[116.21096762034017, 116.32763428700683, 117.31063428700683, 117.47733428700684, 118.22733428700684, 118.3440009536735, 118.46066762034016, 118.57733428700682, 118.69400095367348, 118.81066762034014, 118.9273342870068, 119.04400095367346, 119.16066762034012, 119.27733428700678, 119.39400095367344, 119.5106676203401, 119.62733428700676, 119.74400095367342, 119.86066762034008, 119.97733428700674, 120.0940009536734, 120.32733428700674]	2021_Feb_02_1709	59.930100905030386	1	1
21	21	FALSE	NV	v	['T', 'M', 'G', 'E', 'B', 'V', 'U', 'P', 'Y', 'Z', 'H', 'S', 'X', 'K', 'A', 'W']	[1888, 1224, 944, 904, 760, 2245, 2059, 1456, 2670, 2911, 986, 1731, 4000, 1122, 697, 2448]	13	Present	NA	NA	ABSENT	0.634984016418457	122.31342315673828	124.31293511390686	125.47982907295228	125.82960200309752	128.43120288848877	4.118267774581909	[122.33455896377563, 122.45137906074524, 123.43601107597351, 123.60232090950012, 124.35330390930176, 124.47020602226257, 124.58684706687927, 124.70367193222046, 124.82045292854309, 124.9371190071106, 125.05403089523315, 125.1709098815918, 125.28751707077026, 125.40441107749939, 125.52112293243408, 125.6377809047699, 125.75477910041809, 125.87149405479431, 125.98832893371582, 126.10520792007446, 126.20511603355408, 126.43120193481445]	[122.32733428700674, 122.4440009536734, 123.4270009536734, 123.5937009536734, 124.3437009536734, 124.46036762034007, 124.57703428700673, 124.69370095367339, 124.81036762034005, 124.9270342870067, 125.04370095367337, 125.16036762034003, 125.27703428700669, 125.39370095367335, 125.51036762034, 125.62703428700667, 125.74370095367333, 125.86036762033999, 125.97703428700665, 126.0937009536733, 126.21036762033997, 126.4437009536733]	2021_Feb_02_1709	59.930100905030386	1	1
21	22	FALSE	NV	v	['W', 'G', 'N', 'C', 'K', 'H', 'U', 'V', 'Y', 'M', 'Z', 'B', 'S', 'X', 'P', 'T']	[2448, 944, 1335, 829, 1122, 986, 2059, 2245, 2670, 1224, 2911, 760, 1731, 4000, 1456, 1888]	14	Present	NA	NA	PRESENT	0.5673530101776123	128.41981601715088	130.4294631481171	131.71290111541748	132.06320905685425	134.54756999015808	4.118106842041016	[128.44095301628113, 128.55766010284424, 129.54201102256775, 129.70904397964478, 130.45984601974487, 130.5767641067505, 130.69348788261414, 130.8099548816681, 130.92693495750427, 131.04363489151, 131.16033601760864, 131.2773299217224, 131.39387702941895, 131.5109419822693, 131.62754106521606, 131.74450397491455, 131.8613839149475, 131.97812604904175, 132.09478998184204, 132.21170592308044, 132.3283851146698, 132.54756903648376]	[128.4437009536733, 128.56036762033997, 129.54336762033998, 129.71006762033997, 130.46006762033997, 130.57673428700664, 130.69340095367332, 130.81006762034, 130.92673428700667, 131.04340095367334, 131.16006762034002, 131.2767342870067, 131.39340095367336, 131.51006762034004, 131.6267342870067, 131.7434009536734, 131.86006762034006, 131.97673428700674, 132.0934009536734, 132.21006762034008, 132.32673428700676, 132.56006762034008]	2021_Feb_02_1709	59.930100905030386	1	1
21	23	FALSE	NV	v	['R', 'Y', 'U', 'H', 'E', 'C', 'N', 'X', 'T', 'B', 'W', 'Z', 'M', 'J', 'S', 'K']	[1587, 2670, 2059, 986, 904, 829, 1335, 4000, 1888, 760, 2448, 2911, 1224, 1029, 1731, 1122]	8	Present	NA	NA	PRESENT	0.1080620288848877	134.54304814338684	136.54561114311218	137.1294629573822	137.4790849685669	140.6639370918274	4.11832594871521	[134.5641839504242, 134.68094110488892, 135.66524410247803, 135.83230209350586, 136.58279609680176, 136.69972205162048, 136.81647109985352, 136.93341588974, 137.04998397827148, 137.16680598258972, 137.2835988998413, 137.40056896209717, 137.51733493804932, 137.63407397270203, 137.7509789466858, 137.86744904518127, 137.98451709747314, 138.10124802589417, 138.21814107894897, 138.33490300178528, 138.45150709152222, 138.6639370918274]	[134.56006762034008, 134.67673428700675, 135.65973428700676, 135.82643428700675, 136.57643428700675, 136.69310095367342, 136.8097676203401, 136.92643428700677, 137.04310095367345, 137.15976762034012, 137.2764342870068, 137.39310095367347, 137.50976762034014, 137.62643428700682, 137.7431009536735, 137.85976762034016, 137.97643428700684, 138.0931009536735, 138.2097676203402, 138.32643428700686, 138.44310095367354, 138.67643428700686]	2021_Feb_02_1709	59.930100905030386	1	1
21	24	FALSE	NA	v	['J', 'K', 'W', 'B', 'A', 'Z', 'T', 'C', 'G', 'E', 'P', 'V', 'N', 'X', 'R', 'S']	[1029, 1122, 2448, 760, 697, 2911, 1888, 829, 944, 904, 1456, 2245, 1335, 4000, 1587, 1731]	14	Present	NA	NA	PRESENT	0.20951199531555176	140.64940905570984	142.66174817085266	143.94561100006104	144.29556798934937	146.7803020477295	4.118553876876831	[140.6705460548401, 140.78744292259216, 141.77172589302063, 141.938570022583, 142.7060809135437, 142.80609607696533, 142.92302894592285, 143.04020190238953, 143.15639209747314, 143.27329301834106, 143.39005589485168, 143.50694608688354, 143.62362408638, 143.7404499053955, 143.85737991333008, 143.97411704063416, 144.09091806411743, 144.2076530456543, 144.32454895973206, 144.44122195243835, 144.5581250190735, 144.7803030014038]	[140.67643428700686, 140.79310095367353, 141.77610095367353, 141.94280095367353, 142.69280095367353, 142.8094676203402, 142.92613428700687, 143.04280095367355, 143.15946762034022, 143.2761342870069, 143.39280095367357, 143.50946762034025, 143.62613428700692, 143.7428009536736, 143.85946762034027, 143.97613428700694, 144.09280095367362, 144.2094676203403, 144.32613428700697, 144.44280095367364, 144.5594676203403, 144.79280095367363]	2021_Feb_02_1709	59.930100905030386	1	1
21	25	FALSE	NA	v	['N', 'W', 'U', 'V', 'Z', 'A', 'B', 'P', 'G', 'C', 'X', 'Y', 'J', 'T', 'H', 'E']	[1335, 2448, 2059, 2245, 2911, 697, 760, 1456, 944, 829, 4000, 2670, 1029, 1888, 986, 904]	11	Present	NA	NA	NONE	-1	146.7726969718933	148.77829599380493	149.7122130393982	150.06237316131592	152.91705298423767	4.138756990432739	[146.79383301734924, 146.91057109832764, 147.8949179649353, 148.06191301345825, 148.81248807907104, 148.92917490005493, 149.04633402824402, 149.16299510002136, 149.2798080444336, 149.3965609073639, 149.51315307617188, 149.6303689479828, 149.74679398536682, 149.86381697654724, 149.98037195205688, 150.0973789691925, 150.21390795707703, 150.33103394508362, 150.44765901565552, 150.56454992294312, 150.68123507499695, 150.89667010307312]	[146.79280095367363, 146.9094676203403, 147.8924676203403, 148.0591676203403, 148.8091676203403, 148.92583428700698, 149.04250095367365, 149.15916762034033, 149.275834287007, 149.39250095367368, 149.50916762034035, 149.62583428700702, 149.7425009536737, 149.85916762034037, 149.97583428700705, 150.09250095367372, 150.2091676203404, 150.32583428700707, 150.44250095367374, 150.55916762034042, 150.6758342870071, 150.9091676203404]	2021_Feb_02_1709	59.930100905030386	1	1
21	26	FALSE	NV	v	['B', 'Z', 'G', 'W', 'E', 'C', 'K', 'X', 'H', 'R', 'M', 'S', 'V', 'P', 'N', 'U']	[760, 2911, 944, 2448, 904, 829, 1122, 4000, 986, 1587, 1224, 1731, 2245, 1456, 1335, 2059]	8	Present	NA	NA	PRESENT	1.2031269073486328	152.91240215301514	154.89485812187195	155.4783079624176	155.82825899124146	159.01303696632385	4.118178844451904	[152.9335379600525, 153.03385400772095, 154.00151991844177, 154.16816902160645, 154.93594193458557, 155.05262899398804, 155.16949105262756, 155.28634595870972, 155.40297889709473, 155.5196349620819, 155.63668990135193, 155.75329399108887, 155.87010598182678, 155.98700594902039, 156.1037359237671, 156.22061896324158, 156.32041597366333, 156.45416498184204, 156.55398511886597, 156.67088508605957, 156.78780508041382, 157.01303601264954]	[152.9091676203404, 153.0258342870071, 154.0088342870071, 154.17553428700708, 154.92553428700708, 155.04220095367376, 155.15886762034043, 155.2755342870071, 155.39220095367378, 155.50886762034045, 155.62553428700713, 155.7422009536738, 155.85886762034048, 155.97553428700715, 156.09220095367382, 156.2088676203405, 156.32553428700717, 156.44220095367385, 156.55886762034052, 156.6755342870072, 156.79220095367387, 157.0255342870072]	2021_Feb_02_1709	59.930100905030386	1	1
21	27	FALSE	NV	v	['B', 'K', 'V', 'W', 'Z', 'S', 'R', 'X', 'P', 'T', 'H', 'G', 'J', 'U', 'Y', 'E']	[760, 1122, 2245, 2448, 2911, 1731, 1587, 4000, 1456, 1888, 986, 944, 1029, 2059, 2670, 904]	8	Present	NA	NA	PRESENT	0.2634928226470947	159.00233697891235	161.0110220909119	161.59480714797974	161.94463396072388	165.12940311431885	4.118381023406982	[159.0234730243683, 159.14013600349426, 160.12498307228088, 160.29154205322266, 161.04225707054138, 161.15914702415466, 161.27591395378113, 161.3925359249115, 161.50950598716736, 161.62619304656982, 161.7431139945984, 161.85984897613525, 161.97655606269836, 162.09341502189636, 162.21003794670105, 162.32703590393066, 162.44369196891785, 162.56066298484802, 162.6775209903717, 162.79417490959167, 162.91081190109253, 163.12940406799316]	[159.0255342870072, 159.14220095367386, 160.12520095367387, 160.29190095367386, 161.04190095367386, 161.15856762034053, 161.2752342870072, 161.39190095367388, 161.50856762034056, 161.62523428700723, 161.7419009536739, 161.85856762034058, 161.97523428700725, 162.09190095367393, 162.2085676203406, 162.32523428700728, 162.44190095367395, 162.55856762034063, 162.6752342870073, 162.79190095367397, 162.90856762034065, 163.14190095367397]	2021_Feb_02_1709	59.930100905030386	1	1
21	28	FALSE	NN	v	['S', 'C', 'B', 'A', 'E', 'P', 'G', 'T', 'V', 'W', 'U', 'M', 'Z', 'Y', 'K', 'R']	[1731, 829, 760, 697, 904, 1456, 944, 1888, 2245, 2448, 2059, 1224, 2911, 2670, 1122, 1587]	11	Absent	NA	NA	ABSENT	0.3893461227416992	165.12557315826416	167.1276421546936	168.06129598617554	168.41092705726624	171.24576902389526	4.11812686920166	[165.1467089653015, 165.26353406906128, 166.247878074646, 166.41456699371338, 167.16537308692932, 167.28239107131958, 167.39900708198547, 167.5159409046173, 167.63267707824707, 167.74933505058289, 167.865984916687, 167.98280096054077, 168.0996539592743, 168.21666502952576, 168.33349108695984, 168.4501988887787, 168.56708002090454, 168.68379497528076, 168.8004629611969, 168.91723608970642, 169.01726698875427, 169.24576997756958]	[165.14190095367397, 165.25856762034064, 166.24156762034065, 166.40826762034064, 167.15826762034064, 167.2749342870073, 167.391600953674, 167.50826762034066, 167.62493428700733, 167.741600953674, 167.85826762034068, 167.97493428700736, 168.09160095367403, 168.2082676203407, 168.32493428700738, 168.44160095367405, 168.55826762034073, 168.6749342870074, 168.79160095367408, 168.90826762034075, 169.02493428700743, 169.25826762034075]	2021_Feb_02_1709	59.930100905030386	1	1
21	29	FALSE	NA	v	['G', 'V', 'N', 'T', 'U', 'K', 'R', 'J', 'S', 'B', 'P', 'X', 'E', 'Z', 'A', 'Y']	[944, 2245, 1335, 1888, 2059, 1122, 1587, 1029, 1731, 760, 1456, 4000, 904, 2911, 697, 2670]	12	Present	NA	NA	PRESENT	0.1136939525604248	171.2321491241455	173.24404501914978	174.2939031124115	174.64427399635315	177.3621370792389	4.118092060089111	[171.25328397750854, 171.3700668811798, 172.3542070388794, 172.5212700366974, 173.28900909423828, 173.3886489868164, 173.5056118965149, 173.62235689163208, 173.73897409439087, 173.85588002204895, 173.97245907783508, 174.08933806419373, 174.20622301101685, 174.32304906845093, 174.439838886261, 174.55661296844482, 174.6733009815216, 174.79027009010315, 174.90687799453735, 175.0239610671997, 175.1406009197235, 175.3621370792389]	[171.25826762034075, 171.37493428700742, 172.35793428700742, 172.52463428700742, 173.27463428700742, 173.3913009536741, 173.50796762034076, 173.62463428700744, 173.7413009536741, 173.8579676203408, 173.97463428700746, 174.09130095367414, 174.2079676203408, 174.32463428700748, 174.44130095367416, 174.55796762034083, 174.6746342870075, 174.79130095367418, 174.90796762034086, 175.02463428700753, 175.1413009536742, 175.37463428700752]	2021_Feb_02_1709	59.930100905030386	1	1
21	30	FALSE	NN	v	['S', 'W', 'P', 'E', 'H', 'B', 'T', 'K', 'M', 'Z', 'C', 'A', 'G', 'V', 'R', 'N']	[1731, 2448, 1456, 904, 986, 760, 1888, 1122, 1224, 2911, 829, 697, 944, 2245, 1587, 1335]	9	Absent	NA	NA	ABSENT	0.24611401557922363	177.35518312454224	179.3600790500641	180.06043100357056	180.4103691577911	183.4785029888153	4.118423938751221	[177.37631797790527, 177.4930579662323, 178.47743701934814, 178.64415502548218, 179.39511609077454, 179.5119071006775, 179.6286358833313, 179.7454810142517, 179.86215591430664, 179.97914695739746, 180.09588599205017, 180.21260809898376, 180.32949209213257, 180.4460859298706, 180.5629870891571, 180.67988300323486, 180.7965428829193, 180.9132959842682, 181.0300168991089, 181.14694094657898, 181.26383304595947, 181.4785029888153]	[177.37463428700752, 177.4913009536742, 178.4743009536742, 178.6410009536742, 179.3910009536742, 179.50766762034087, 179.62433428700754, 179.74100095367422, 179.8576676203409, 179.97433428700757, 180.09100095367424, 180.2076676203409, 180.3243342870076, 180.44100095367426, 180.55766762034094, 180.6743342870076, 180.79100095367428, 180.90766762034096, 181.02433428700763, 181.1410009536743, 181.25766762034098, 181.4910009536743]	2021_Feb_02_1709	59.930100905030386	1	1
21	31	FALSE	NN	v	['T', 'E', 'H', 'Z', 'S', 'J', 'C', 'A', 'W', 'R', 'G', 'K', 'Y', 'M', 'N', 'V']	[1888, 904, 986, 2911, 1731, 1029, 829, 697, 2448, 1587, 944, 1122, 2670, 1224, 1335, 2245]	10	Absent	NA	NA	ABSENT	0.2996039390563965	183.478609085083	185.47655415534973	186.2936520576477	186.6438000202179	189.59487009048465	4.118315935134888	[183.49974489212036, 183.61657810211182, 184.58384108543396, 184.75063395500183, 185.51839089393616, 185.63525295257568, 185.7518379688263, 185.86860394477844, 185.96859002113342, 186.10217595100403, 186.21917700767517, 186.3359179496765, 186.43580794334412, 186.55249190330505, 186.66926288604736, 186.78614211082458, 186.90288710594177, 187.01972699165344, 187.13653898239136, 187.25331902503967, 187.370197057724, 187.59486889839172]	[183.4910009536743, 183.60766762034098, 184.59066762034098, 184.75736762034097, 185.50736762034097, 185.62403428700765, 185.74070095367432, 185.857367620341, 185.97403428700767, 186.09070095367434, 186.20736762034102, 186.3240342870077, 186.44070095367437, 186.55736762034104, 186.67403428700771, 186.7907009536744, 186.90736762034106, 187.02403428700774, 187.1407009536744, 187.25736762034109, 187.37403428700776, 187.60736762034108]	2021_Feb_02_1709	59.930100905030386	1	1
21	32	FALSE	NA	v	['H', 'P', 'G', 'T', 'B', 'V', 'N', 'K', 'R', 'S', 'W', 'U', 'X', 'Y', 'C', 'M']	[986, 1456, 944, 1888, 760, 2245, 1335, 1122, 1587, 1731, 2448, 2059, 4000, 2670, 829, 1224]	13	Present	NA	NA	PRESENT	0.2879819869995117	189.58478903770447	191.5927541255951	192.7598819732666	193.11011910438535	195.71123695373535	4.118482828140259	[189.6059250831604, 189.72283291816711, 190.70708298683167, 190.87402892112732, 191.62471103668213, 191.74168610572815, 191.8585090637207, 191.97519207000732, 192.09189200401306, 192.20880603790283, 192.32547998428345, 192.44240307807922, 192.55894303321838, 192.6758439540863, 192.79278302192688, 192.9095640182495, 193.02624607086182, 193.14337801933289, 193.25974011421204, 193.37660789489746, 193.49333691596985, 193.71123695373535]	[189.60736762034108, 189.72403428700775, 190.70703428700776, 190.87373428700775, 191.62373428700775, 191.74040095367442, 191.8570676203411, 191.97373428700777, 192.09040095367445, 192.20706762034112, 192.3237342870078, 192.44040095367447, 192.55706762034114, 192.67373428700782, 192.7904009536745, 192.90706762034117, 193.02373428700784, 193.14040095367451, 193.2570676203412, 193.37373428700786, 193.49040095367454, 193.72373428700786]	2021_Feb_02_1709	59.930100905030386	1	1
21	33	FALSE	NV	v	['T', 'M', 'Z', 'N', 'H', 'C', 'G', 'S', 'J', 'X', 'U', 'B', 'K', 'W', 'A', 'R']	[1888, 1224, 2911, 1335, 986, 829, 944, 1731, 1029, 4000, 2059, 760, 1122, 2448, 697, 1587]	10	Present	NA	NA	PRESENT	0.2776060104370117	195.7078731060028	197.70928502082825	198.52611112594604	198.8761191368103	201.82760310173035	4.1183180809021	[195.72900795936584, 195.84607601165771, 196.83032703399658, 196.99710702896118, 197.74787211418152, 197.86457705497742, 197.98141193389893, 198.09850096702576, 198.21520805358887, 198.33192801475525, 198.44864201545715, 198.56538605690002, 198.68222308158875, 198.7988669872284, 198.91590094566345, 199.03254199028015, 199.14951300621033, 199.26622009277344, 199.3830668926239, 199.49974608421326, 199.59977388381958, 199.82760405540466]	[195.72373428700786, 195.84040095367453, 196.82340095367454, 196.99010095367453, 197.74010095367453, 197.8567676203412, 197.97343428700788, 198.09010095367455, 198.20676762034122, 198.3234342870079, 198.44010095367457, 198.55676762034125, 198.67343428700792, 198.7901009536746, 198.90676762034127, 199.02343428700794, 199.14010095367462, 199.2567676203413, 199.37343428700797, 199.49010095367464, 199.60676762034132, 199.84010095367464]	2021_Feb_02_1709	59.930100905030386	1	1
21	34	FALSE	NN	v	['K', 'V', 'M', 'W', 'P', 'E', 'G', 'S', 'T', 'N', 'Z', 'A', 'C', 'R', 'U', 'H']	[1122, 2245, 1224, 2448, 1456, 904, 944, 1731, 1888, 1335, 2911, 697, 829, 1587, 2059, 986]	11	Absent	NA	NA	ABSENT	0.24994301795959473	201.8145670890808	203.82573294639587	204.75915503501892	205.10975909233093	207.94396996498108	4.118237018585205	[201.83570194244385, 201.95229697227478, 202.93677711486816, 203.10457491874695, 203.85432600975037, 203.97112798690796, 204.08814191818237, 204.20477890968323, 204.32151699066162, 204.43841290473938, 204.55506992340088, 204.67202806472778, 204.78878688812256, 204.9055449962616, 205.0221450328827, 205.13908100128174, 205.25596404075623, 205.37278199195862, 205.48965311050415, 205.6062400341034, 205.72308492660522, 205.94396901130676]	[201.84010095367464, 201.9567676203413, 202.9397676203413, 203.1064676203413, 203.8564676203413, 203.97313428700798, 204.08980095367465, 204.20646762034133, 204.323134287008, 204.43980095367468, 204.55646762034135, 204.67313428700803, 204.7898009536747, 204.90646762034137, 205.02313428700805, 205.13980095367472, 205.2564676203414, 205.37313428700807, 205.48980095367475, 205.60646762034142, 205.7231342870081, 205.9564676203414]	2021_Feb_02_1709	59.930100905030386	1	1
21	35	FALSE	NA	v	['N', 'B', 'W', 'K', 'E', 'R', 'G', 'M', 'X', 'U', 'T', 'S', 'C', 'V', 'Y', 'H']	[1335, 760, 2448, 1122, 904, 1587, 944, 1224, 4000, 2059, 1888, 1731, 829, 2245, 2670, 986]	9	Present	NA	NA	PRESENT	0.07849693298339844	207.93777894973755	209.9420781135559	210.64247393608093	210.9923450946808	214.0603370666504	4.118258953094482	[207.95891404151917, 208.07546091079712, 209.0599479675293, 209.22668290138245, 209.97760200500488, 210.09431409835815, 210.2110869884491, 210.32804107666016, 210.4447410106659, 210.56163501739502, 210.67842602729797, 210.7950758934021, 210.9119520187378, 211.0287959575653, 211.14542603492737, 211.26236510276794, 211.37903690338135, 211.49572801589966, 211.61278700828552, 211.72957110404968, 211.84633588790894, 212.06033611297607]	[207.9564676203414, 208.0731342870081, 209.0561342870081, 209.22283428700808, 209.97283428700808, 210.08950095367476, 210.20616762034143, 210.3228342870081, 210.43950095367478, 210.55616762034145, 210.67283428700813, 210.7895009536748, 210.90616762034148, 211.02283428700815, 211.13950095367483, 211.2561676203415, 211.37283428700817, 211.48950095367485, 211.60616762034152, 211.7228342870082, 211.83950095367487, 212.0728342870082]	2021_Feb_02_1709	59.930100905030386	1	1
21	36	FALSE	VV	v	['N', 'H', 'W', 'P', 'S', 'A', 'C', 'Z', 'E', 'R', 'surprise', 'G', 'T', 'X', 'B', 'Y']	[1335, 986, 2448, 1456, 1731, 697, 829, 2911, 904, 1587, 'stimAuditory/all_stimAuditory/114.wav', 944, 1888, 4000, 760, 2670]	14	Present	NA	stimVisual/all_stimVisual/103.jpg	ABSENT	0.4678070545196533	214.06111097335815	216.0585150718689	217.34206199645996	217.6921219825745	220.1767029762268	4.11818790435791	[214.08224892616272, 214.1819920539856, 215.16626906394958, 215.33334589004517, 216.1008050441742, 216.21749210357666, 216.3176200389862, 216.43433904647827, 216.55109906196594, 216.66799306869507, 216.7847969532013, 216.90153193473816, 217.0183229446411, 217.135027885437, 217.2686469554901, 217.36868691444397, 217.4856081008911, 217.6022229194641, 217.7190101146698, 217.83593702316284, 217.95275211334229, 218.17670392990112]	[214.0728342870082, 214.18950095367487, 215.17250095367487, 215.33920095367486, 216.08920095367486, 216.20586762034154, 216.3225342870082, 216.43920095367488, 216.55586762034156, 216.67253428700823, 216.7892009536749, 216.90586762034158, 217.02253428700826, 217.13920095367493, 217.2558676203416, 217.37253428700828, 217.48920095367495, 217.60586762034163, 217.7225342870083, 217.83920095367498, 217.95586762034165, 218.18920095367497]	2021_Feb_02_1709	59.930100905030386	1	1
21	37	FALSE	NV	v	['K', 'P', 'C', 'E', 'J', 'Y', 'A', 'X', 'S', 'B', 'M', 'Z', 'W', 'R', 'G', 'N']	[1122, 1456, 829, 904, 1029, 2670, 697, 4000, 1731, 760, 1224, 2911, 2448, 1587, 944, 1335]	8	Present	NA	NA	PRESENT	0.12839102745056152	220.16741108894348	222.17473816871643	222.7583291530609	223.10869693756104	226.29307007789612	4.1183319091796875	[220.18854594230652, 220.30518698692322, 221.28954696655273, 221.45634007453918, 222.20713806152344, 222.32419610023499, 222.4407880306244, 222.55779600143433, 222.67431592941284, 222.79136395454407, 222.90794205665588, 223.02491092681885, 223.1416699886322, 223.2584409713745, 223.37508988380432, 223.4919068813324, 223.6088399887085, 223.72564005851746, 223.84228992462158, 223.95906496047974, 224.0762379169464, 224.29306888580322]	[220.18920095367497, 220.30586762034164, 221.28886762034165, 221.45556762034164, 222.20556762034164, 222.3222342870083, 222.438900953675, 222.55556762034166, 222.67223428700834, 222.788900953675, 222.90556762034169, 223.02223428700836, 223.13890095367503, 223.2555676203417, 223.37223428700838, 223.48890095367506, 223.60556762034173, 223.7222342870084, 223.83890095367508, 223.95556762034175, 224.07223428700843, 224.30556762034175]	2021_Feb_02_1709	59.930100905030386	1	1
21	38	FALSE	NV	v	['V', 'T', 'M', 'C', 'B', 'U', 'P', 'X', 'K', 'S', 'J', 'A', 'Z', 'R', 'H', 'E']	[2245, 1888, 1224, 829, 760, 2059, 1456, 4000, 1122, 1731, 1029, 697, 2911, 1587, 986, 904]	8	Present	NA	NA	PRESENT	0.14174699783325195	226.29057502746585	228.29124808311465	228.87458395957947	229.2247121334076	232.40943598747253	4.11818790435791	[226.31171011924744, 226.4284439086914, 227.41274189949036, 227.57957792282104, 228.33033990859985, 228.44709706306458, 228.5641839504242, 228.68092894554138, 228.79775309562683, 228.91445803642273, 229.0311849117279, 229.14809799194336, 229.26488089561462, 229.38164401054382, 229.49847197532654, 229.61525511741638, 229.73199605941772, 229.84862899780273, 229.96547198295593, 230.08226490020752, 230.18224596977234, 230.40943694114685]	[226.30556762034175, 226.42223428700842, 227.40523428700843, 227.57193428700842, 228.32193428700842, 228.4386009536751, 228.55526762034177, 228.67193428700844, 228.78860095367511, 228.9052676203418, 229.02193428700846, 229.13860095367514, 229.2552676203418, 229.3719342870085, 229.48860095367516, 229.60526762034183, 229.7219342870085, 229.83860095367518, 229.95526762034186, 230.07193428700853, 230.1886009536752, 230.42193428700853]	2021_Feb_02_1709	59.930100905030386	1	1
21	39	FALSE	NN	v	['A', 'Y', 'S', 'T', 'U', 'G', 'M', 'N', 'R', 'V', 'P', 'K', 'Z', 'B', 'J', 'E']	[697, 2670, 1731, 1888, 2059, 944, 1224, 1335, 1587, 2245, 1456, 1122, 2911, 760, 1029, 904]	8	Absent	NA	NA	ABSENT	0.18627691268920896	232.3968570232391	234.40750002861023	234.99114513397217	235.34105896949768	238.52580404281616	4.118304014205933	[232.41799306869507, 232.53492903709412, 233.51929807662964, 233.68592500686646, 234.43705797195435, 234.55380606651306, 234.67054295539856, 234.7873558998108, 234.9041600227356, 235.02102899551392, 235.1375069618225, 235.2546329498291, 235.37123608589172, 235.48818111419678, 235.60521411895752, 235.72154593467712, 235.8385190963745, 235.95528197288513, 236.07187604904175, 236.1888599395752, 236.3056080341339, 236.52580404281616]	[232.42193428700853, 232.5386009536752, 233.5216009536752, 233.6883009536752, 234.4383009536752, 234.55496762034187, 234.67163428700854, 234.78830095367522, 234.9049676203419, 235.02163428700857, 235.13830095367524, 235.25496762034192, 235.3716342870086, 235.48830095367526, 235.60496762034194, 235.7216342870086, 235.8383009536753, 235.95496762034196, 236.07163428700864, 236.1883009536753, 236.30496762034198, 236.5383009536753]	2021_Feb_02_1709	59.930100905030386	1	1
21	40	FALSE	NN	v	['T', 'P', 'B', 'S', 'N', 'W', 'V', 'M', 'J', 'Z', 'H', 'Y', 'G', 'A', 'R', 'K']	[1888, 1456, 760, 1731, 1335, 2448, 2245, 1224, 1029, 2911, 986, 2670, 944, 697, 1587, 1122]	14	Absent	NA	NA	PRESENT	0.2950320243835449	238.52023005485535	240.5240659713745	241.80748105049133	242.15763807296753	244.64216995239255	4.118103981018066	[238.54136490821838, 238.65816807746887, 239.64265894889832, 239.8093490600586, 240.56003594398499, 240.67695689201355, 240.79369497299194, 240.9105679988861, 241.02719688415527, 241.14403700828552, 241.2609100341797, 241.37785696983337, 241.49436688423157, 241.6114239692688, 241.72795009613037, 241.84465909004211, 241.96166110038757, 242.07833790779114, 242.19514799118042, 242.31200790405273, 242.42889308929443, 242.6421709060669]	[238.5383009536753, 238.65496762034198, 239.63796762034198, 239.80466762034197, 240.55466762034197, 240.67133428700865, 240.78800095367532, 240.904667620342, 241.02133428700867, 241.13800095367534, 241.25466762034202, 241.3713342870087, 241.48800095367537, 241.60466762034204, 241.72133428700872, 241.8380009536754, 241.95466762034206, 242.07133428700874, 242.1880009536754, 242.3046676203421, 242.42133428700876, 242.65466762034208]	2021_Feb_02_1709	59.930100905030386	1	1
21	41	FALSE	NA	v	['U', 'W', 'M', 'G', 'A', 'B', 'J', 'Z', 'H', 'E', 'T', 'V', 'K', 'X', 'S', 'P']	[2059, 2448, 1224, 944, 697, 760, 1029, 2911, 986, 904, 1888, 2245, 1122, 4000, 1731, 1456]	14	Present	NA	NA	PRESENT	0.23598194122314453	244.6267261505127	246.64042615890503	247.9237530231476	248.27368307113647	250.7585370540619	4.11811089515686	[244.64786195755005, 244.76440596580505, 245.74903988838196, 245.91592502593994, 246.68335390090942, 246.7832190990448, 246.90004801750183, 247.01684403419495, 247.13362789154053, 247.2504289150238, 247.36721396446228, 247.48409390449524, 247.60080003738403, 247.71768593788147, 247.8343849182129, 247.9512529373169, 248.06814908981323, 248.18490505218506, 248.3015010356903, 248.41848993301392, 248.5352120399475, 248.7585380077362]	[244.65466762034208, 244.77133428700876, 245.75433428700876, 245.92103428700875, 246.67103428700875, 246.78770095367543, 246.9043676203421, 247.02103428700877, 247.13770095367545, 247.25436762034212, 247.3710342870088, 247.48770095367547, 247.60436762034215, 247.72103428700882, 247.8377009536755, 247.95436762034217, 248.07103428700884, 248.18770095367552, 248.3043676203422, 248.42103428700887, 248.53770095367554, 248.77103428700886]	2021_Feb_02_1709	59.930100905030386	1	1
21	42	FALSE	VA	v	['U', 'W', 'V', 'G', 'J', 'N', 'R', 'Y', 'M', 'surprise', 'C', 'E', 'X', 'T', 'S', 'Z']	[2059, 2448, 2245, 944, 1029, 1335, 1587, 2670, 1224, 'stimAuditory/all_stimAuditory/217.wav', 829, 904, 4000, 1888, 1731, 2911]	13	Present	NA	stimVisual/all_stimVisual/120.jpg	PRESENT	0.23264503479003903	250.7498199939728	252.75637793540955	253.92362999916077	254.27340507507324	256.8749029636383	4.11852502822876	[250.7709560394287, 250.88768196105957, 251.87228798866272, 252.03879308700562, 252.78966903686523, 252.90660405158997, 253.02329301834106, 253.1400249004364, 253.25682497024536, 253.37373089790344, 253.49045300483704, 253.60728192329407, 253.72420191764832, 253.84082698822021, 253.95780992507935, 254.0747730731964, 254.191251039505, 254.30814003944397, 254.4248960018158, 254.54155707359314, 254.6585350036621, 254.874902009964]	[250.77103428700886, 250.88770095367553, 251.87070095367554, 252.03740095367553, 252.78740095367553, 252.9040676203422, 253.02073428700888, 253.13740095367555, 253.25406762034223, 253.3707342870089, 253.48740095367558, 253.60406762034225, 253.72073428700892, 253.8374009536756, 253.95406762034227, 254.07073428700895, 254.18740095367562, 254.3040676203423, 254.42073428700897, 254.53740095367564, 254.65406762034232, 254.88740095367564]	2021_Feb_02_1709	59.930100905030386	1	1
21	43	FALSE	NA	v	['B', 'Z', 'G', 'R', 'V', 'M', 'H', 'X', 'J', 'S', 'C', 'P', 'U', 'T', 'N', 'Y']	[760, 2911, 944, 1587, 2245, 1224, 986, 4000, 1029, 1731, 829, 1456, 2059, 1888, 1335, 2670]	8	Present	NA	NA	PRESENT	0.31793808937072754	256.8731119632721	258.8729889392853	259.45660400390625	259.80672097206116	262.9912691116333	4.1182801723480225	[256.894248008728, 257.01105403900146, 257.9952299594879, 258.1621859073639, 258.9129180908203, 259.0295739173889, 259.1465198993683, 259.26326990127563, 259.380234003067, 259.49677205085754, 259.61392307281494, 259.7304539680481, 259.8473858833313, 259.9641740322113, 260.0808959007263, 260.19770407676697, 260.31442499160767, 260.43108797073364, 260.5480799674988, 260.66477704048157, 260.7648239135742, 260.9912700653076]	[256.88740095367564, 257.0040676203423, 257.9870676203423, 258.1537676203423, 258.9037676203423, 259.020434287009, 259.13710095367566, 259.25376762034233, 259.370434287009, 259.4871009536757, 259.60376762034235, 259.720434287009, 259.8371009536757, 259.9537676203424, 260.07043428700905, 260.1871009536757, 260.3037676203424, 260.4204342870091, 260.53710095367575, 260.6537676203424, 260.7704342870091, 261.00376762034244]	2021_Feb_02_1709	59.930100905030386	1	1
21	44	FALSE	NA	v	['W', 'C', 'K', 'Z', 'H', 'B', 'R', 'Y', 'U', 'N', 'X', 'A', 'P', 'E', 'S', 'T']	[2448, 829, 1122, 2911, 986, 760, 1587, 2670, 2059, 1335, 4000, 697, 1456, 904, 1731, 1888]	11	Present	NA	NA	PRESENT	0.3625061511993408	262.9795820713043	264.9892101287842	265.92306208610535	266.27315616607666	269.10763692855835	4.11842679977417	[263.00071597099304, 263.117399930954, 264.102313041687, 264.26864099502563, 265.01925706863403, 265.1361780166626, 265.2528510093689, 265.3698799610138, 265.48649311065674, 265.6034710407257, 265.72018003463745, 265.8369789123535, 265.9537470340729, 266.07071590423584, 266.18732595443726, 266.30425000190735, 266.4208650588989, 266.53767490386963, 266.65454602241516, 266.7713670730591, 266.8879520893097, 267.10763788223267]	[263.00376762034244, 263.1204342870091, 264.1034342870091, 264.2701342870091, 265.0201342870091, 265.1368009536758, 265.25346762034246, 265.37013428700914, 265.4868009536758, 265.6034676203425, 265.72013428700916, 265.83680095367583, 265.9534676203425, 266.0701342870092, 266.18680095367586, 266.30346762034253, 266.4201342870092, 266.5368009536759, 266.65346762034255, 266.7701342870092, 266.8868009536759, 267.12013428700925]	2021_Feb_02_1709	59.930100905030386	1	1
21	45	FALSE	NN	v	['Y', 'A', 'T', 'H', 'N', 'E', 'M', 'C', 'G', 'K', 'W', 'P', 'Z', 'R', 'V', 'B']	[2670, 697, 1888, 986, 1335, 904, 1224, 829, 944, 1122, 2448, 1456, 2911, 1587, 2245, 760]	12	Absent	NA	NA	ABSENT	0.2551689147949219	269.1025619506836	271.1057720184326	272.1559250354767	272.50594115257263	275.22400403022766	4.118232011795044	[269.12369990348816, 269.2407100200653, 270.2250189781189, 270.3918979167938, 271.1425280570984, 271.25954008102417, 271.3761160373688, 271.4928469657898, 271.6097049713135, 271.72649693489075, 271.8435308933258, 271.96021604537964, 272.0769760608673, 272.1936149597168, 272.31061005592346, 272.4272038936615, 272.54427695274353, 272.6607780456543, 272.7777590751648, 272.89442896842957, 273.01143288612366, 273.22400403022766]	[269.12013428700925, 269.2368009536759, 270.21980095367593, 270.3865009536759, 271.1365009536759, 271.2531676203426, 271.36983428700927, 271.48650095367594, 271.6031676203426, 271.7198342870093, 271.83650095367597, 271.95316762034264, 272.0698342870093, 272.186500953676, 272.30316762034266, 272.41983428700934, 272.536500953676, 272.6531676203427, 272.76983428700936, 272.88650095367603, 273.0031676203427, 273.23650095367606]	2021_Feb_02_1709	59.930100905030386	1	1
21	46	FALSE	AN	v	['N', 'E', 'S', 'T', 'surprise', 'C', 'G', 'K', 'U', 'P', 'R', 'H', 'A', 'J', 'M', 'V']	[1335, 904, 1731, 1888, 'stimAuditory/all_stimAuditory/213.wav', 829, 944, 1122, 2059, 1456, 1587, 986, 697, 1029, 1224, 2245]	8	Absent	stimAuditory/all_stimAuditory/114.wav	stimVisual/all_stimVisual/108.jpg	ABSENT	0.34027981758117676	275.2093210220337	277.22231817245483	277.80575013160706	278.15576910972595	281.3403699398041	4.118051767349243	[275.2304561138153, 275.34699511528015, 276.33151507377625, 276.49831891059875, 277.26574897766113, 277.36580204963684, 277.4825909137726, 277.59928798675537, 277.73310899734497, 277.8329379558563, 277.94971108436584, 278.06667399406433, 278.18330693244934, 278.3003120422363, 278.41686511039734, 278.5336899757385, 278.6506929397583, 278.7674551010132, 278.88409399986267, 279.0009000301361, 279.1177990436554, 279.34036898612976]	[275.23650095367606, 275.35316762034273, 276.33616762034274, 276.5028676203427, 277.2528676203427, 277.3695342870094, 277.4862009536761, 277.60286762034275, 277.7195342870094, 277.8362009536761, 277.9528676203428, 278.06953428700945, 278.1862009536761, 278.3028676203428, 278.41953428700947, 278.53620095367614, 278.6528676203428, 278.7695342870095, 278.88620095367617, 279.00286762034284, 279.1195342870095, 279.35286762034286]	2021_Feb_02_1709	59.930100905030386	1	1
21	47	FALSE	NN	v	['K', 'S', 'A', 'J', 'E', 'G', 'V', 'U', 'R', 'C', 'T', 'H', 'W', 'N', 'M', 'B']	[1122, 1731, 697, 1029, 904, 944, 2245, 2059, 1587, 829, 1888, 986, 2448, 1335, 1224, 760]	9	Absent	NA	NA	ABSENT	0.2169528007507324	281.3322069644928	283.33848905563354	284.03873205184937	284.38853216171265	287.4567370414734	4.118247985839844	[281.35334300994873, 281.4702889919281, 282.4546420574188, 282.6215879917145, 283.3720951080322, 283.4890921115875, 283.6058909893036, 283.7224860191345, 283.83948493003845, 283.95638608932495, 284.0730690956116, 284.1899778842926, 284.30662989616394, 284.42351603507996, 284.54028701782227, 284.6569519042969, 284.7738358974457, 284.89041209220886, 285.00733494758606, 285.12428998947144, 285.2408618927002, 285.4567370414734]	[281.35286762034286, 281.46953428700954, 282.45253428700954, 282.61923428700953, 283.36923428700953, 283.4859009536762, 283.6025676203429, 283.71923428700956, 283.83590095367623, 283.9525676203429, 284.0692342870096, 284.18590095367625, 284.3025676203429, 284.4192342870096, 284.5359009536763, 284.65256762034295, 284.7692342870096, 284.8859009536763, 285.002567620343, 285.11923428700965, 285.2359009536763, 285.46923428700967]	2021_Feb_02_1709	59.930100905030386	1	1
21	48	FALSE	NN	v	['Y', 'M', 'B', 'T', 'V', 'C', 'S', 'P', 'J', 'Z', 'U', 'R', 'K', 'E', 'G', 'N']	[2670, 1224, 760, 1888, 2245, 829, 1731, 1456, 1029, 2911, 2059, 1587, 1122, 904, 944, 1335]	11	Absent	NA	NA	ABSENT	0.2460811138153076	287.45556712150574	289.4546911716461	290.38832116127014	290.7382471561432	293.5731029510498	4.1184117794036865	[287.47672295570374, 287.5935459136963, 288.5609219074249, 288.7279210090637, 289.4954390525818, 289.61252903938293, 289.7290918827057, 289.84576392173767, 289.9627048969269, 290.0792570114136, 290.1961851119995, 290.31284499168396, 290.4297320842743, 290.5466709136963, 290.6633810997009, 290.78001594543457, 290.89704298973083, 291.01366901397705, 291.1302959918976, 291.24727511405945, 291.34746408462524, 291.5731019973755]	[287.46923428700967, 287.58590095367634, 288.56890095367635, 288.73560095367634, 289.48560095367634, 289.602267620343, 289.7189342870097, 289.83560095367636, 289.95226762034304, 290.0689342870097, 290.1856009536764, 290.30226762034306, 290.41893428700973, 290.5356009536764, 290.6522676203431, 290.76893428700976, 290.88560095367643, 291.0022676203431, 291.1189342870098, 291.23560095367645, 291.3522676203431, 291.5856009536765]	2021_Feb_02_1709	59.930100905030386	1	1
21	49	FALSE	NN	v	['R', 'W', 'M', 'C', 'N', 'T', 'S', 'H', 'P', 'G', 'E', 'A', 'Z', 'U', 'B', 'Y']	[1587, 2448, 1224, 829, 1335, 1888, 1731, 986, 1456, 944, 904, 697, 2911, 2059, 760, 2670]	11	Absent	NA	NA	ABSENT	0.21869397163391113	293.5619080066681	295.5712060928345	296.5052421092987	296.8547451496124	299.6894700527191	4.1182639598846436	[293.5830430984497, 293.69993805885315, 294.6843469142914, 294.85106897354126, 295.60208106040955, 295.7188310623169, 295.8354420661926, 295.95246291160583, 296.0690429210663, 296.18583607673645, 296.3025999069214, 296.4193480014801, 296.5361740589142, 296.6530649662018, 296.7698268890381, 296.8867139816284, 297.0034439563751, 297.1202929019928, 297.2370719909668, 297.3537120819092, 297.47052693367004, 297.6894700527191]	[293.5856009536765, 293.70226762034315, 294.68526762034315, 294.85196762034315, 295.60196762034315, 295.7186342870098, 295.8353009536765, 295.95196762034317, 296.06863428700984, 296.1853009536765, 296.3019676203432, 296.41863428700987, 296.53530095367654, 296.6519676203432, 296.7686342870099, 296.88530095367656, 297.00196762034324, 297.1186342870099, 297.2353009536766, 297.35196762034326, 297.46863428700993, 297.7019676203433]	2021_Feb_02_1709	59.930100905030386	1	1
21	50	FALSE	NN	v	['Z', 'N', 'G', 'M', 'S', 'P', 'J', 'C', 'B', 'K', 'Y', 'E', 'R', 'T', 'H', 'W']	[2911, 1335, 944, 1224, 1731, 1456, 1029, 829, 760, 1122, 2670, 904, 1587, 1888, 986, 2448]	14	Absent	NA	NA	ABSENT	0.18408608436584473	299.6852250099182	301.6877110004425	302.9712369441986	303.3209969997406	305.80583691596985	4.118125915527344	[299.70636105537415, 299.8231179714203, 300.8073310852051, 300.9743490219116, 301.72501611709595, 301.84169006347656, 301.9587779045105, 302.07535696029663, 302.19234800338745, 302.3091309070587, 302.42587304115295, 302.5425169467926, 302.6592969894409, 302.7761929035187, 302.8931620121002, 303.00978994369507, 303.1266930103302, 303.24345207214355, 303.36039209365845, 303.47697496414185, 303.5769019126892, 303.80583691596985]	[299.7019676203433, 299.81863428700996, 300.80163428700996, 300.96833428700995, 301.71833428700995, 301.8350009536766, 301.9516676203433, 302.06833428701, 302.18500095367665, 302.3016676203433, 302.41833428701, 302.5350009536767, 302.65166762034335, 302.76833428701, 302.8850009536767, 303.00166762034337, 303.11833428701004, 303.2350009536767, 303.3516676203434, 303.46833428701007, 303.58500095367674, 303.8183342870101]	2021_Feb_02_1709	59.930100905030386	1	1
21	51	FALSE	VV	v	['V', 'G', 'U', 'W', 'P', 'Z', 'R', 'H', 'surprise', 'A', 'C', 'X', 'M', 'T', 'N', 'B']	[2245, 944, 2059, 2448, 1456, 2911, 1587, 986, 'stimAuditory/all_stimAuditory/102.wav', 697, 829, 4000, 1224, 1888, 1335, 760]	12	Present	NA	stimVisual/all_stimVisual/111.jpg	ABSENT	0.3886611461639404	305.7917311191559	307.8039360046387	308.8541009426117	309.20428800582886	311.92220401763916	4.118268013000488	[305.81286692619324, 305.92949390411377, 306.9141299724579, 307.0809190273285, 307.84837102890015, 307.94820499420166, 308.0650420188904, 308.18183398246765, 308.29867005348206, 308.4156939983368, 308.53236389160156, 308.64921593666077, 308.7826020717621, 308.8826570510864, 308.99941301345825, 309.1163020133972, 309.23324489593506, 309.34982109069824, 309.4667899608612, 309.58357310295105, 309.70023703575134, 309.92220401763916]	[305.8183342870101, 305.93500095367676, 306.91800095367677, 307.08470095367676, 307.83470095367676, 307.95136762034343, 308.0680342870101, 308.1847009536768, 308.30136762034346, 308.41803428701013, 308.5347009536768, 308.6513676203435, 308.76803428701015, 308.8847009536768, 309.0013676203435, 309.1180342870102, 309.23470095367685, 309.3513676203435, 309.4680342870102, 309.5847009536769, 309.70136762034355, 309.9347009536769]	2021_Feb_02_1709	59.930100905030386	1	1
21	52	FALSE	NN	v	['N', 'W', 'G', 'V', 'B', 'Z', 'R', 'T', 'C', 'E', 'S', 'U', 'Y', 'J', 'A', 'P']	[1335, 2448, 944, 2245, 760, 2911, 1587, 1888, 829, 904, 1731, 2059, 2670, 1029, 697, 1456]	8	Absent	NA	NA	ABSENT	0.5370869636535645	311.91491413116455	313.9201741218567	314.50391817092896	314.8539409637451	318.0385699272156	4.118395805358887	[311.9360489845276, 312.0528039932251, 313.0372669696808, 313.20412588119507, 313.9547019004822, 314.0714650154114, 314.18840503692627, 314.30498695373535, 314.42207407951355, 314.53859996795654, 314.65561509132385, 314.7722270488739, 314.88927602767944, 315.00578594207764, 315.1229259967804, 315.2394189834595, 315.35631799697876, 315.47299790382385, 315.58990693092346, 315.70649003982544, 315.8234701156616, 316.0385699272156]	[311.9347009536769, 312.05136762034357, 313.0343676203436, 313.20106762034357, 313.95106762034357, 314.06773428701024, 314.1844009536769, 314.3010676203436, 314.41773428701026, 314.53440095367694, 314.6510676203436, 314.7677342870103, 314.88440095367696, 315.00106762034363, 315.1177342870103, 315.234400953677, 315.35106762034366, 315.46773428701033, 315.584400953677, 315.7010676203437, 315.81773428701035, 316.0510676203437]	2021_Feb_02_1709	59.930100905030386	1	1
21	53	FALSE	NN	v	['V', 'E', 'W', 'N', 'A', 'B', 'M', 'S', 'Y', 'T', 'P', 'U', 'Z', 'J', 'H', 'R']	[2245, 904, 2448, 1335, 697, 760, 1224, 1731, 2670, 1888, 1456, 2059, 2911, 1029, 986, 1587]	9	Absent	NA	NA	ABSENT	0.19059491157531736	318.03790616989136	320.0367670059204	320.73677110671997	321.08697605133057	324.1549370288849	4.1181700229644775	[318.059042930603, 318.17593598365784, 319.1435110569, 319.3104090690613, 320.07795310020447, 320.19483399391174, 320.3114709854126, 320.4283881187439, 320.5449800491333, 320.66178607940674, 320.77857208251953, 320.8953700065613, 321.0123269557953, 321.1292300224304, 321.22907400131226, 321.3457860946655, 321.4626910686493, 321.57943296432495, 321.6962049007416, 321.813029050827, 321.9298770427704, 322.1549370288849]	[318.0510676203437, 318.1677342870104, 319.1507342870104, 319.31743428701037, 320.06743428701037, 320.18410095367705, 320.3007676203437, 320.4174342870104, 320.53410095367707, 320.65076762034374, 320.7674342870104, 320.8841009536771, 321.00076762034377, 321.11743428701044, 321.2341009536771, 321.3507676203438, 321.46743428701046, 321.58410095367714, 321.7007676203438, 321.8174342870105, 321.93410095367716, 322.1674342870105]	2021_Feb_02_1709	59.930100905030386	1	1
21	54	FALSE	NV	v	['A', 'Z', 'U', 'E', 'K', 'C', 'S', 'J', 'V', 'X', 'W', 'H', 'M', 'T', 'Y', 'G']	[697, 2911, 2059, 904, 1122, 829, 1731, 1029, 2245, 4000, 2448, 986, 1224, 1888, 2670, 944]	10	Present	NA	NA	PRESENT	0.16307997703552246	324.1443829536438	326.1529710292816	326.96986293792725	327.3204469680786	330.2713029384613	4.1183319091796875	[324.1655180454254, 324.2824170589447, 325.2672998905182, 325.43359899520874, 326.18436098098755, 326.3015251159668, 326.4179620742798, 326.5347740650177, 326.65154695510864, 326.76841592788696, 326.88521099090576, 327.0020260810852, 327.1187119483948, 327.2354700565338, 327.35251903533936, 327.46902990341187, 327.58607506752014, 327.7028510570526, 327.8194229602814, 327.93629908561707, 328.05315494537354, 328.2713038921356]	[324.1674342870105, 324.2841009536772, 325.2671009536772, 325.4338009536772, 326.1838009536772, 326.30046762034385, 326.4171342870105, 326.5338009536772, 326.6504676203439, 326.76713428701055, 326.8838009536772, 327.0004676203439, 327.1171342870106, 327.23380095367725, 327.3504676203439, 327.4671342870106, 327.58380095367727, 327.70046762034394, 327.8171342870106, 327.9338009536773, 328.05046762034397, 328.2838009536773]	2021_Feb_02_1709	59.930100905030386	1	1
21	55	FALSE	VV	v	['B', 'K', 'G', 'N', 'surprise', 'V', 'H', 'X', 'E', 'P', 'Y', 'S', 'T', 'J', 'M', 'C']	[760, 1122, 944, 1335, 'stimAuditory/all_stimAuditory/111.wav', 2245, 986, 4000, 904, 1456, 2670, 1731, 1888, 1029, 1224, 829]	8	Present	NA	stimVisual/all_stimVisual/121.jpg	ABSENT	0.2724180221557617	330.26751804351807	332.2694339752197	332.8532600402832	333.20305609703064	336.3876700401306	4.118236064910889	[330.288654088974, 330.4056749343872, 331.38992500305176, 331.5569500923157, 332.30750608444214, 332.4242479801178, 332.5411310195923, 332.65805411338806, 332.7747120857239, 332.8915379047394, 333.0082941055298, 333.12520599365234, 333.24201798439026, 333.3586390018463, 333.4755959510803, 333.59229707717896, 333.7090470790863, 333.8261420726776, 333.9426190853119, 334.05966210365295, 334.1595530509949, 334.3876700401306]	[330.2838009536773, 330.400467620344, 331.383467620344, 331.550167620344, 332.300167620344, 332.41683428701066, 332.53350095367733, 332.650167620344, 332.7668342870107, 332.88350095367736, 333.00016762034403, 333.1168342870107, 333.2335009536774, 333.35016762034405, 333.4668342870107, 333.5835009536774, 333.7001676203441, 333.81683428701075, 333.9335009536774, 334.0501676203441, 334.1668342870108, 334.4001676203441]	2021_Feb_02_1709	59.930100905030386	1	1
21	56	FALSE	NV	v	['R', 'H', 'Z', 'T', 'W', 'K', 'A', 'G', 'S', 'P', 'X', 'B', 'M', 'E', 'V', 'J']	[1587, 986, 2911, 1888, 2448, 1122, 697, 944, 1731, 1456, 4000, 760, 1224, 904, 2245, 1029]	11	Present	NA	NA	PRESENT	0.19682908058166504	336.3744921684265	338.3856770992279	339.31955194473267	339.66953897476196	342.50403690338135	4.118359804153442	[336.3956289291382, 336.511892080307, 337.49657106399536, 337.6634318828583, 338.43071389198303, 338.5309319496155, 338.6477060317993, 338.76442790031433, 338.88118505477905, 338.99812388420105, 339.11468505859375, 339.2316610813141, 339.34836602211, 339.46513509750366, 339.5819730758667, 339.69869589805603, 339.81572794914246, 339.9323310852051, 340.0492329597473, 340.1658549308777, 340.28280305862427, 340.50403690338135]	[336.4001676203441, 336.5168342870108, 337.4998342870108, 337.6665342870108, 338.4165342870108, 338.53320095367746, 338.64986762034414, 338.7665342870108, 338.8832009536775, 338.99986762034416, 339.11653428701084, 339.2332009536775, 339.3498676203442, 339.46653428701086, 339.58320095367753, 339.6998676203442, 339.8165342870109, 339.93320095367756, 340.04986762034423, 340.1665342870109, 340.2832009536776, 340.5165342870109]	2021_Feb_02_1709	59.930100905030386	1	1
21	57	FALSE	NA	v	['B', 'C', 'T', 'J', 'Y', 'S', 'G', 'X', 'E', 'H', 'K', 'M', 'Z', 'U', 'V', 'W']	[760, 829, 1888, 1029, 2670, 1731, 944, 4000, 904, 986, 1122, 1224, 2911, 2059, 2245, 2448]	8	Present	NA	NA	PRESENT	0.29733920097351074	342.4972620010376	344.50211811065674	345.085813999176	345.4362881183624	348.62040305137634	4.1182849407196045	[342.51839900016785, 342.6353919506073, 343.6196620464325, 343.7864329814911, 344.5371069908142, 344.6541850566864, 344.7709629535675, 344.8878390789032, 345.004390001297, 345.12115597724915, 345.23804211616516, 345.3548541069031, 345.4716498851776, 345.5882890224457, 345.7052729129791, 345.8219349384308, 345.9388599395752, 346.05582094192505, 346.1725130081177, 346.28929710388184, 346.40604996681213, 346.62040400505066]	[342.5165342870109, 342.6332009536776, 343.6162009536776, 343.7829009536776, 344.5329009536776, 344.64956762034427, 344.76623428701095, 344.8829009536776, 344.9995676203443, 345.11623428701097, 345.23290095367764, 345.3495676203443, 345.466234287011, 345.58290095367767, 345.69956762034434, 345.816234287011, 345.9329009536777, 346.04956762034436, 346.16623428701104, 346.2829009536777, 346.3995676203444, 346.63290095367773]	2021_Feb_02_1709	59.930100905030386	1	1
21	58	FALSE	NA	v	['N', 'C', 'E', 'K', 'H', 'Y', 'G', 'R', 'W', 'J', 'X', 'Z', 'P', 'V', 'B', 'U']	[1335, 829, 904, 1122, 986, 2670, 944, 1587, 2448, 1029, 4000, 2911, 1456, 2245, 760, 2059]	11	Present	NA	NA	PRESENT	0.22275090217590332	348.62053298950195	350.61842799186707	351.5521831512451	351.90213894844055	354.7367699146271	4.11834192276001	[348.641676902771, 348.7415421009064, 349.72600197792053, 349.8931109905243, 350.66055488586426, 350.7772979736328, 350.8942279815674, 351.01089310646057, 351.1276469230652, 351.22752690315247, 351.34437108039856, 351.4611248970032, 351.5779139995575, 351.6947820186615, 351.8115200996399, 351.9283618927002, 352.0451440811157, 352.1619510650635, 352.27874088287354, 352.3955280780792, 352.5125958919525, 352.73676896095276]	[348.63290095367773, 348.7495676203444, 349.7325676203444, 349.8992676203444, 350.6492676203444, 350.7659342870111, 350.88260095367775, 350.9992676203444, 351.1159342870111, 351.2326009536778, 351.34926762034445, 351.4659342870111, 351.5826009536778, 351.6992676203445, 351.81593428701115, 351.9326009536778, 352.0492676203445, 352.16593428701117, 352.28260095367784, 352.3992676203445, 352.5159342870112, 352.74926762034454]	2021_Feb_02_1709	59.930100905030386	1	1
21	59	FALSE	NN	v	['U', 'W', 'T', 'H', 'C', 'Y', 'J', 'S', 'N', 'M', 'P', 'A', 'E', 'B', 'Z', 'G']	[2059, 2448, 1888, 986, 829, 2670, 1029, 1731, 1335, 1224, 1456, 697, 904, 760, 2911, 944]	10	Absent	NA	NA	ABSENT	0.3711979389190674	354.7270221710205	356.73492097854614	357.5518159866333	357.9017231464386	360.8531370162964	4.118216037750244	[354.74815797805786, 354.8649399280548, 355.8492739200592, 356.01625394821167, 356.76730704307556, 356.8838300704956, 357.0004789829254, 357.11717104911804, 357.2341001033783, 357.35079193115234, 357.4677529335022, 357.5845971107483, 357.70138001441956, 357.8180100917816, 357.93499302864075, 358.05169701576233, 358.1685869693756, 358.28519010543823, 358.40206599235535, 358.51899695396423, 358.6355700492859, 358.8531370162964]	[354.74926762034454, 354.8659342870112, 355.8489342870112, 356.0156342870112, 356.7656342870112, 356.8823009536779, 356.99896762034456, 357.11563428701123, 357.2323009536779, 357.3489676203446, 357.46563428701126, 357.58230095367793, 357.6989676203446, 357.8156342870113, 357.93230095367795, 358.0489676203446, 358.1656342870113, 358.282300953678, 358.39896762034465, 358.5156342870113, 358.632300953678, 358.86563428701135]	2021_Feb_02_1709	59.930100905030386	1	1
21	60	FALSE	NV	v	['B', 'Y', 'S', 'P', 'K', 'T', 'W', 'N', 'J', 'H', 'X', 'R', 'G', 'Z', 'E', 'M']	[760, 2670, 1731, 1456, 1122, 1888, 2448, 1335, 1029, 986, 4000, 1587, 944, 2911, 904, 1224]	11	Present	NA	NA	PRESENT	0.09656190872192384	360.8503370285034	362.85130405426025	363.7848391532898	364.1347379684448	366.9695029258728	4.118198871612549	[360.87147307395935, 360.9879779815674, 361.97243189811707, 362.1393449306488, 362.8901529312134, 363.0068280696869, 363.1235489845276, 363.2405409812927, 363.3574230670929, 363.4740319252014, 363.59101390838623, 363.70759296417236, 363.82452607154846, 363.9410800933838, 364.05804800987244, 364.1749761104584, 364.2916979789734, 364.4085500240326, 364.5251169204712, 364.64198899269104, 364.7419879436493, 364.9695029258728]	[360.86563428701135, 360.982300953678, 361.965300953678, 362.132000953678, 362.882000953678, 362.9986676203447, 363.11533428701136, 363.23200095367804, 363.3486676203447, 363.4653342870114, 363.58200095367806, 363.69866762034474, 363.8153342870114, 363.9320009536781, 364.04866762034476, 364.16533428701143, 364.2820009536781, 364.3986676203448, 364.51533428701146, 364.63200095367813, 364.7486676203448, 364.98200095367815]	2021_Feb_02_1709	59.930100905030386	1	1
21	61	FALSE	NA	v	['W', 'V', 'Y', 'B', 'N', 'P', 'H', 'X', 'T', 'R', 'E', 'C', 'A', 'Z', 'S', 'M']	[2448, 2245, 2670, 760, 1335, 1456, 986, 4000, 1888, 1587, 904, 829, 697, 2911, 1731, 1224]	8	Present	NA	NA	PRESENT	0.1569230556488037	366.9570860862732	368.96760296821594	369.5511591434479	369.9011030197144	373.0858700275421	4.118267059326172	[366.97822189331055, 367.0946021080017, 368.07906103134155, 368.24577593803406, 368.9964780807495, 369.1132929325104, 369.2301309108734, 369.34707498550415, 369.4636940956116, 369.58048391342163, 369.6973280906677, 369.814071893692, 369.9309868812561, 370.0475900173187, 370.16456294059753, 370.2813210487366, 370.3982820510864, 370.5148079395294, 370.6317629814148, 370.7483460903168, 370.8654079437256, 371.0858700275421]	[366.98200095367815, 367.0986676203448, 368.08166762034483, 368.2483676203448, 368.9983676203448, 369.1150342870115, 369.23170095367817, 369.34836762034485, 369.4650342870115, 369.5817009536782, 369.69836762034487, 369.81503428701154, 369.9317009536782, 370.0483676203449, 370.16503428701157, 370.28170095367824, 370.3983676203449, 370.5150342870116, 370.63170095367826, 370.74836762034494, 370.8650342870116, 371.09836762034496]	2021_Feb_02_1709	59.930100905030386	1	1
21	62	FALSE	NV	v	['J', 'E', 'C', 'G', 'P', 'Y', 'U', 'R', 'Z', 'M', 'N', 'A', 'S', 'X', 'H', 'K']	[1029, 904, 829, 944, 1456, 2670, 2059, 1587, 2911, 1224, 1335, 697, 1731, 4000, 986, 1122]	14	Present	NA	NA	PRESENT	0.24963021278381348	373.0803949832916	375.0838990211487	376.3674409389496	376.717561006546	379.2022368907929	4.118337869644165	[373.10153102874756, 373.21772503852844, 374.2023069858551, 374.36884808540344, 375.11973690986633, 375.236545085907, 375.3533310890198, 375.4699800014496, 375.5870370864868, 375.70358204841614, 375.82041907310486, 375.9373219013214, 376.05454993247986, 376.1709818840027, 376.28782510757446, 376.40458607673645, 376.5214378833771, 376.63819789886475, 376.7550439834595, 376.87171697616577, 376.9886848926544, 377.20223593711853]	[373.09836762034496, 373.21503428701163, 374.19803428701164, 374.36473428701163, 375.11473428701163, 375.2314009536783, 375.348067620345, 375.46473428701165, 375.5814009536783, 375.698067620345, 375.8147342870117, 375.93140095367835, 376.048067620345, 376.1647342870117, 376.28140095367837, 376.39806762034505, 376.5147342870117, 376.6314009536784, 376.74806762034507, 376.86473428701174, 376.9814009536784, 377.21473428701177]	2021_Feb_02_1709	59.930100905030386	1	1
21	63	FALSE	NV	v	['E', 'K', 'J', 'U', 'H', 'B', 'Z', 'R', 'X', 'A', 'S', 'M', 'V', 'N', 'C', 'W']	[904, 1122, 1029, 2059, 986, 760, 2911, 1587, 4000, 697, 1731, 1224, 2245, 1335, 829, 2448]	9	Present	NA	NA	ABSENT	0.2147731781005859	379.20315194129944	381.2003400325775	381.9005949497223	382.25083899497986	385.31860303878784	4.118263006210327	[379.22428798675537, 379.3241229057312, 380.30875396728516, 380.4755220413208, 381.2429521083832, 381.34299206733704, 381.4765350818634, 381.57646799087524, 381.69323801994324, 381.8101260662079, 381.92684602737427, 382.0436511039734, 382.16045093536377, 382.2772550582886, 382.3940460681915, 382.5108299255371, 382.6276249885559, 382.7444579601288, 382.86145091056824, 382.9780650138855, 383.0949831008911, 383.31860303878784]	[379.21473428701177, 379.33140095367844, 380.31440095367844, 380.48110095367844, 381.23110095367844, 381.3477676203451, 381.4644342870118, 381.58110095367846, 381.69776762034513, 381.8144342870118, 381.9311009536785, 382.04776762034516, 382.16443428701183, 382.2811009536785, 382.3977676203452, 382.51443428701185, 382.6311009536785, 382.7477676203452, 382.8644342870119, 382.98110095367855, 383.0977676203452, 383.3311009536786]	2021_Feb_02_1709	59.930100905030386	1	1
21	64	FALSE	VA	v	['S', 'R', 'N', 'C', 'E', 'G', 'W', 'B', 'H', 'U', 'surprise', 'V', 'Y', 'X', 'J', 'Z']	[1731, 1587, 1335, 829, 904, 944, 2448, 760, 986, 2059, 'stimAuditory/all_stimAuditory/210.wav', 2245, 2670, 4000, 1029, 2911]	14	Present	NA	stimVisual/all_stimVisual/114.jpg	ABSENT	0.8434038162231445	385.30952501297	387.31658911705017	388.6004819869995	388.9507350921631	391.43496894836426	4.118379831314087	[385.3306610584259, 385.44759011268616, 386.4320480823517, 386.59861993789673, 387.34939193725586, 387.4663019180298, 387.5831530094147, 387.69972109794617, 387.816654920578, 387.9335060119629, 388.0501940250397, 388.16691398620605, 388.28386306762695, 388.4005129337311, 388.51757407188416, 388.6340420246124, 388.7508120536804, 388.8676300048828, 388.9845640659332, 389.1014521121979, 389.2179729938507, 389.43496894836426]	[385.3311009536786, 385.44776762034525, 386.43076762034525, 386.59746762034524, 387.34746762034524, 387.4641342870119, 387.5808009536786, 387.69746762034526, 387.81413428701194, 387.9308009536786, 388.0474676203453, 388.16413428701196, 388.28080095367864, 388.3974676203453, 388.514134287012, 388.63080095367866, 388.74746762034533, 388.864134287012, 388.9808009536787, 389.09746762034536, 389.21413428701203, 389.4474676203454]	2021_Feb_02_1709	59.930100905030386	1	1
21	65	FALSE	NA	v	['A', 'Y', 'G', 'T', 'H', 'W', 'Z', 'J', 'V', 'X', 'C', 'N', 'P', 'E', 'K', 'B']	[697, 2670, 944, 1888, 986, 2448, 2911, 1029, 2245, 4000, 829, 1335, 1456, 904, 1122, 760]	10	Present	NA	NA	PRESENT	0.5128929615020752	391.43278408050537	393.4330649375915	394.250372171402	394.6001181602478	397.5513370037079	4.118272066116333	[391.4539210796356, 391.5705099105835, 392.5549418926239, 392.7218749523163, 393.4726710319519, 393.5894250869751, 393.70610189437866, 393.8232181072235, 393.93963289260864, 394.0566780567169, 394.1734631061554, 394.29001808166504, 394.40690994262695, 394.5237259864807, 394.6406219005585, 394.7574350833893, 394.8741788864136, 394.9910509586334, 395.1080150604248, 395.2246038913727, 395.3246018886566, 395.55133605003357]	[391.4474676203454, 391.56413428701205, 392.54713428701206, 392.71383428701205, 393.46383428701205, 393.5805009536787, 393.6971676203454, 393.81383428701207, 393.93050095367875, 394.0471676203454, 394.1638342870121, 394.28050095367877, 394.39716762034544, 394.5138342870121, 394.6305009536788, 394.74716762034546, 394.86383428701214, 394.9805009536788, 395.0971676203455, 395.21383428701216, 395.33050095367884, 395.5638342870122]	2021_Feb_02_1709	59.930100905030386	1	1
21	66	FALSE	NN	v	['P', 'S', 'E', 'C', 'N', 'Y', 'J', 'A', 'G', 'H', 'W', 'B', 'U', 'V', 'R', 'M']	[1456, 1731, 904, 829, 1335, 2670, 1029, 697, 944, 986, 2448, 760, 2059, 2245, 1587, 1224]	11	Absent	NA	NA	ABSENT	0.22130489349365232	397.53928399086	399.5495300292969	400.4830131530762	400.83311796188354	403.6677029132843	4.118172883987427	[397.5604190826416, 397.67725110054016, 398.66156005859375, 398.82832503318787, 399.5789020061493, 399.6960439682007, 399.81287693977356, 399.9295530319214, 400.0462169647217, 400.1630299091339, 400.27978897094727, 400.39674401283264, 400.51337909698486, 400.6301190853119, 400.74710392951965, 400.8638470172882, 400.9807438850403, 401.09746289253235, 401.2143280506134, 401.33113288879395, 401.44786190986633, 401.6677029132843]	[397.5638342870122, 397.68050095367886, 398.66350095367886, 398.83020095367885, 399.58020095367885, 399.69686762034553, 399.8135342870122, 399.9302009536789, 400.04686762034555, 400.1635342870122, 400.2802009536789, 400.3968676203456, 400.51353428701225, 400.6302009536789, 400.7468676203456, 400.86353428701227, 400.98020095367895, 401.0968676203456, 401.2135342870123, 401.33020095367897, 401.44686762034564, 401.680200953679]	2021_Feb_02_1709	59.930100905030386	1	1
21	67	FALSE	AA	v	['H', 'T', 'E', 'R', 'W', 'C', 'Z', 'Y', 'surprise', 'U', 'N', 'X', 'M', 'P', 'J', 'K']	[986, 1888, 904, 1587, 2448, 829, 2911, 2670, 'stimAuditory/all_stimAuditory/203.wav', 2059, 1335, 4000, 1224, 1456, 1029, 1122]	12	Present	stimAuditory/all_stimAuditory/217.wav	stimVisual/all_stimVisual/216.jpg	PRESENT	0.40978002548217773	403.66245007514954	405.6658799648285	406.71610713005066	407.0662450790405	409.7840690612793	4.118189096450806	[403.6835858821869, 403.80026602745056, 404.7845380306244, 404.9514949321747, 405.7023289203644, 405.819139957428, 405.9359550476074, 406.05302810668945, 406.16944789886475, 406.28617691993713, 406.4031000137329, 406.5199029445648, 406.6533958911896, 406.75334095954895, 406.8702390193939, 406.9870750904083, 407.1041579246521, 407.22072196006775, 407.3372309207916, 407.4543299674988, 407.5709800720215, 407.7840700149536]	[403.680200953679, 403.79686762034567, 404.77986762034567, 404.94656762034566, 405.69656762034566, 405.81323428701234, 405.929900953679, 406.0465676203457, 406.16323428701236, 406.27990095367903, 406.3965676203457, 406.5132342870124, 406.62990095367905, 406.74656762034573, 406.8632342870124, 406.9799009536791, 407.09656762034575, 407.2132342870124, 407.3299009536791, 407.4465676203458, 407.56323428701245, 407.7965676203458]	2021_Feb_02_1709	59.930100905030386	1	1
21	68	FALSE	NV	v	['K', 'S', 'Z', 'Y', 'C', 'V', 'U', 'W', 'J', 'E', 'R', 'H', 'X', 'T', 'M', 'A']	[1122, 1731, 2911, 2670, 829, 2245, 2059, 2448, 1029, 904, 1587, 986, 4000, 1888, 1224, 697]	13	Present	NA	NA	ABSENT	0.10304880142211914	409.7687020301819	411.78209400177	412.9491500854492	413.29908204078674	415.9004371166229	4.118343114852905	[409.7898368835449, 409.90666007995605, 410.89117789268494, 411.0579330921173, 411.82543992996216, 411.9254860877991, 412.04235100746155, 412.1591100692749, 412.27582001686096, 412.3926260471344, 412.5093629360199, 412.6261749267578, 412.7430980205536, 412.85993909835815, 412.97670102119446, 413.09351992607117, 413.2103259563446, 413.3269639015198, 413.4439170360565, 413.5606920719147, 413.677521944046, 413.9004371166229]	[409.7965676203458, 409.9132342870125, 410.8962342870125, 411.06293428701247, 411.81293428701247, 411.92960095367914, 412.0462676203458, 412.1629342870125, 412.27960095367916, 412.39626762034584, 412.5129342870125, 412.6296009536792, 412.74626762034586, 412.86293428701254, 412.9796009536792, 413.0962676203459, 413.21293428701256, 413.32960095367923, 413.4462676203459, 413.5629342870126, 413.67960095367926, 413.9129342870126]	2021_Feb_02_1709	59.930100905030386	1	1
21	69	FALSE	NN	v	['G', 'Z', 'M', 'T', 'A', 'S', 'E', 'B', 'H', 'V', 'P', 'Y', 'U', 'C', 'K', 'J']	[944, 2911, 1224, 1888, 697, 1731, 904, 760, 986, 2245, 1456, 2670, 2059, 829, 1122, 1029]	13	Absent	NA	NA	ABSENT	0.3719539642333984	415.8919949531555	417.89847111701965	419.06568598747253	419.4152801036835	422.01680302619934	4.1183319091796875	[415.91313099861145, 416.0300099849701, 417.0145950317383, 417.18108892440796, 417.93197798728943, 418.04887890815735, 418.16568994522095, 418.2824900150299, 418.3992569446564, 418.51577401161194, 418.63277888298035, 418.7493829727173, 418.866406917572, 418.98296999931335, 419.1002719402313, 419.2167100906372, 419.33344411849976, 419.4502329826355, 419.5669529438019, 419.68383502960205, 419.8005061149597, 420.01680302619934]	[415.9129342870126, 416.0296009536793, 417.0126009536793, 417.1793009536793, 417.9293009536793, 418.04596762034595, 418.1626342870126, 418.2793009536793, 418.39596762034597, 418.51263428701265, 418.6293009536793, 418.745967620346, 418.86263428701267, 418.97930095367934, 419.095967620346, 419.2126342870127, 419.32930095367936, 419.44596762034604, 419.5626342870127, 419.6793009536794, 419.79596762034606, 420.0293009536794]	2021_Feb_02_1709	59.930100905030386	1	1
21	70	FALSE	NN	v	['N', 'K', 'M', 'Y', 'Z', 'E', 'A', 'T', 'B', 'U', 'H', 'C', 'P', 'S', 'V', 'G']	[1335, 1122, 1224, 2670, 2911, 904, 697, 1888, 760, 2059, 986, 829, 1456, 1731, 2245, 944]	12	Absent	NA	NA	ABSENT	0.7685911655426025	422.0153160095215	424.0147659778595	425.0657980442047	425.4153690338135	428.1331698894501	4.118403911590576	[422.0364511013031, 422.1531798839569, 423.13757395744324, 423.30439710617065, 424.05507802963257, 424.17211508750916, 424.28872299194336, 424.40559101104736, 424.5224280357361, 424.6391980648041, 424.75595808029175, 424.872661113739, 424.98936104774475, 425.1063220500946, 425.2228829860687, 425.3399178981781, 425.45658111572266, 425.5734210014343, 425.69017910957336, 425.8070390224457, 425.90717601776123, 426.1331698894501]	[422.0293009536794, 422.1459676203461, 423.1289676203461, 423.2956676203461, 424.0456676203461, 424.16233428701275, 424.27900095367943, 424.3956676203461, 424.5123342870128, 424.62900095367945, 424.7456676203461, 424.8623342870128, 424.9790009536795, 425.09566762034615, 425.2123342870128, 425.3290009536795, 425.44566762034617, 425.56233428701285, 425.6790009536795, 425.7956676203462, 425.91233428701287, 426.1456676203462]	2021_Feb_02_1709	59.930100905030386	1	1
21	71	FALSE	NV	v	['W', 'E', 'U', 'K', 'V', 'N', 'T', 'Z', 'X', 'S', 'C', 'H', 'G', 'P', 'B', 'A']	[2448, 904, 2059, 1122, 2245, 1335, 1888, 2911, 4000, 1731, 829, 986, 944, 1456, 760, 697]	9	Present	NA	NA	PRESENT	0.15777993202209473	428.12158393859863	430.1313290596008	430.8316180706024	431.18153500556946	434.2495369911194	4.118207931518555	[428.14271998405457, 428.2596490383148, 429.2439959049225, 429.41077995300293, 430.1615960597992, 430.2782850265503, 430.39530992507935, 430.5121040344238, 430.62873911857605, 430.7456429004669, 430.86235308647156, 430.9790709018707, 431.09595799446106, 431.21266198158264, 431.32940196990967, 431.4462859630585, 431.56316900253296, 431.68000197410583, 431.79676508903503, 431.9135730266571, 432.0301640033722, 432.2495369911194]	[428.1456676203462, 428.2623342870129, 429.2453342870129, 429.4120342870129, 430.1620342870129, 430.27870095367956, 430.39536762034624, 430.5120342870129, 430.6287009536796, 430.74536762034626, 430.86203428701293, 430.9787009536796, 431.0953676203463, 431.21203428701295, 431.32870095367963, 431.4453676203463, 431.562034287013, 431.67870095367965, 431.7953676203463, 431.912034287013, 432.0287009536797, 432.262034287013]	2021_Feb_02_1709	59.930100905030386	1	1
21	72	FALSE	NN	v	['G', 'M', 'U', 'S', 'W', 'N', 'Z', 'V', 'H', 'Y', 'K', 'A', 'B', 'E', 'P', 'R']	[944, 1224, 2059, 1731, 2448, 1335, 2911, 2245, 986, 2670, 1122, 697, 760, 904, 1456, 1587]	13	Absent	NA	NA	ABSENT	0.1541922092437744	434.2450361251831	436.24771904945374	437.4146680831909	437.76473808288574	440.3659029006958	4.118183851242065	[434.26617193222046, 434.3827359676361, 435.3670880794525, 435.53412199020386, 436.28519201278687, 436.4015910625458, 436.51835894584656, 436.63518810272217, 436.75206995010376, 436.86887407302856, 436.98557710647583, 437.1026289463043, 437.218945980072, 437.3358509540558, 437.452574968338, 437.5696361064911, 437.6863350868225, 437.8031060695648, 437.9200119972229, 438.0368070602417, 438.1536240577698, 438.3659019470215]	[434.262034287013, 434.3787009536797, 435.3617009536797, 435.5284009536797, 436.2784009536797, 436.39506762034637, 436.51173428701304, 436.6284009536797, 436.7450676203464, 436.86173428701306, 436.97840095367974, 437.0950676203464, 437.2117342870131, 437.32840095367976, 437.44506762034644, 437.5617342870131, 437.6784009536798, 437.79506762034646, 437.91173428701313, 438.0284009536798, 438.1450676203465, 438.37840095367983]	2021_Feb_02_1709	59.930100905030386	1	1
21	73	FALSE	NV	v	['M', 'N', 'G', 'B', 'E', 'R', 'U', 'J', 'Z', 'X', 'W', 'V', 'K', 'S', 'P', 'H']	[1224, 1335, 944, 760, 904, 1587, 2059, 1029, 2911, 4000, 2448, 2245, 1122, 1731, 1456, 986]	10	Present	NA	NA	PRESENT	0.1834261417388916	440.3512029647827	442.3640670776367	443.180871963501	443.5309171676636	446.4822690486908	4.118201971054077	[440.37233710289, 440.48931789398193, 441.4736590385437, 441.6403260231018, 442.4079530239105, 442.5080919265747, 442.62479305267334, 442.7415599822998, 442.8583300113678, 442.97535705566406, 443.0920069217682, 443.20884108543396, 443.3256769180298, 443.4422309398651, 443.5589609146118, 443.67582607269287, 443.7927689552307, 443.90943002700806, 444.02641010284424, 444.1430780887604, 444.26003408432007, 444.4822700023651]	[440.37840095367983, 440.4950676203465, 441.4780676203465, 441.6447676203465, 442.3947676203465, 442.5114342870132, 442.62810095367985, 442.7447676203465, 442.8614342870132, 442.97810095367987, 443.09476762034654, 443.2114342870132, 443.3281009536799, 443.44476762034657, 443.56143428701324, 443.6781009536799, 443.7947676203466, 443.91143428701326, 444.02810095367994, 444.1447676203466, 444.2614342870133, 444.49476762034664]	2021_Feb_02_1709	59.930100905030386	1	1
21	74	FALSE	NV	v	['S', 'T', 'N', 'C', 'E', 'H', 'Y', 'W', 'X', 'A', 'B', 'G', 'Z', 'V', 'M', 'P']	[1731, 1888, 1335, 829, 904, 986, 2670, 2448, 4000, 697, 760, 944, 2911, 2245, 1224, 1456]	9	Present	NA	NA	PRESENT	0.10002899169921876	446.4749381542206	448.48018312454224	449.1808280944824	449.530650138855	452.5986371040344	4.1184539794921875	[446.49607396125793, 446.61228799819946, 447.5969500541687, 447.7637619972229, 448.5145239830017, 448.63126707077026, 448.7481589317322, 448.8648359775543, 448.9816861152649, 449.0987780094147, 449.2153151035309, 449.3318889141083, 449.44859504699707, 449.5655291080475, 449.68241810798645, 449.7992401123047, 449.91604804992676, 450.0326979160309, 450.1494700908661, 450.2664749622345, 450.38313603401184, 450.5986371040344]	[446.49476762034664, 446.6114342870133, 447.5944342870133, 447.7611342870133, 448.5111342870133, 448.62780095368, 448.74446762034665, 448.86113428701333, 448.97780095368, 449.0944676203467, 449.21113428701335, 449.32780095368, 449.4444676203467, 449.5611342870134, 449.67780095368005, 449.7944676203467, 449.9111342870134, 450.02780095368007, 450.14446762034675, 450.2611342870134, 450.3778009536801, 450.61113428701344]	2021_Feb_02_1709	59.930100905030386	1	1
21	75	FALSE	NA	v	['U', 'C', 'N', 'A', 'Z', 'M', 'B', 'G', 'P', 'E', 'T', 'V', 'X', 'K', 'W', 'J']	[2059, 829, 1335, 697, 2911, 1224, 760, 944, 1456, 904, 1888, 2245, 4000, 1122, 2448, 1029]	13	Present	NA	NA	PRESENT	0.52919602394104	452.59762597084045	454.59657096862793	455.7641861438751	456.1137280464173	458.7150030136109	4.11843204498291	[452.6187620162964, 452.7357211112976, 453.70317101478577, 453.8699688911438, 454.63751196861267, 454.7545280456543, 454.8714339733124, 454.98819303512573, 455.10496711730957, 455.221657037735, 455.3385519981384, 455.45522594451904, 455.5720319747925, 455.68882989883423, 455.80553007125854, 455.92218494415283, 456.0394968986511, 456.15576791763306, 456.25584602355957, 456.37264490127563, 456.4897150993347, 456.71500301361084]	[452.61113428701344, 452.7278009536801, 453.7108009536801, 453.8775009536801, 454.6275009536801, 454.7441676203468, 454.86083428701346, 454.97750095368013, 455.0941676203468, 455.2108342870135, 455.32750095368016, 455.44416762034683, 455.5608342870135, 455.6775009536802, 455.79416762034685, 455.91083428701353, 456.0275009536802, 456.1441676203469, 456.26083428701355, 456.3775009536802, 456.4941676203469, 456.72750095368025]	2021_Feb_02_1709	59.930100905030386	1	1
21	76	FALSE	NV	v	['V', 'U', 'R', 'Z', 'B', 'S', 'H', 'M', 'E', 'J', 'X', 'N', 'C', 'T', 'Y', 'K']	[2245, 2059, 1587, 2911, 760, 1731, 986, 1224, 904, 1029, 4000, 1335, 829, 1888, 2670, 1122]	11	Present	NA	NA	PRESENT	0.24623394012451172	458.7041180133819	460.7130110263825	461.6467170715332	461.99660897254944	464.83137011528015	4.118359088897705	[458.7252519130707, 458.8420350551605, 459.8264830112457, 459.9933969974518, 460.7441120147705, 460.86082792282104, 460.977823972702, 461.09510707855225, 461.21148800849915, 461.3280999660492, 461.4449601173401, 461.5617880821228, 461.67852091789246, 461.79529905319214, 461.91212010383606, 462.0287730693817, 462.14549589157104, 462.26233291625977, 462.37900710105896, 462.49602699279785, 462.6128330230713, 462.83137011528015]	[458.72750095368025, 458.8441676203469, 459.8271676203469, 459.9938676203469, 460.7438676203469, 460.8605342870136, 460.97720095368027, 461.09386762034694, 461.2105342870136, 461.3272009536803, 461.44386762034696, 461.56053428701364, 461.6772009536803, 461.793867620347, 461.91053428701366, 462.02720095368034, 462.143867620347, 462.2605342870137, 462.37720095368036, 462.49386762034703, 462.6105342870137, 462.84386762034705]	2021_Feb_02_1709	59.930100905030386	1	1
21	77	FALSE	NA	v	['H', 'W', 'Z', 'P', 'B', 'E', 'V', 'R', 'U', 'X', 'K', 'J', 'T', 'N', 'C', 'G']	[986, 2448, 2911, 1456, 760, 904, 2245, 1587, 2059, 4000, 1122, 1029, 1888, 1335, 829, 944]	10	Present	NA	NA	PRESENT	0.23518610000610352	464.82721304893494	466.8291499614715	467.6463310718536	467.9962210655213	470.9477369785309	4.118587017059326	[464.84834909439087, 464.96530294418335, 465.94963788986206, 466.1168920993805, 466.8673439025879, 466.9841339588165, 467.10115790367126, 467.2176480293274, 467.33438992500305, 467.4514799118042, 467.56806206703186, 467.68495988845825, 467.80166006088257, 467.91844296455383, 468.03505301475525, 468.1520240306854, 468.2686710357666, 468.385703086853, 468.5023069381714, 468.61922693252563, 468.71917390823364, 468.9477369785309]	[464.84386762034705, 464.96053428701373, 465.94353428701373, 466.1102342870137, 466.8602342870137, 466.9769009536804, 467.0935676203471, 467.21023428701375, 467.3269009536804, 467.4435676203471, 467.56023428701377, 467.67690095368044, 467.7935676203471, 467.9102342870138, 468.02690095368047, 468.14356762034714, 468.2602342870138, 468.3769009536805, 468.49356762034716, 468.61023428701384, 468.7269009536805, 468.96023428701386]	2021_Feb_02_1709	59.930100905030386	1	1
21	78	FALSE	VA	v	['C', 'M', 'G', 'P', 'H', 'R', 'V', 'A', 'T', 'surprise', 'K', 'J', 'X', 'U', 'W', 'E']	[829, 1224, 944, 1456, 986, 1587, 2245, 697, 1888, 'stimAuditory/all_stimAuditory/216.wav', 1122, 1029, 4000, 2059, 2448, 904]	13	Present	NA	stimVisual/all_stimVisual/215.jpg	PRESENT	0.4799070358276367	470.93381810188293	472.9457800388336	474.11275005340576	474.46261405944824	477.064101934433	4.118321895599365	[470.9549539089203, 471.0719060897827, 472.0560529232025, 472.2229769229889, 472.99045395851135, 473.0905239582062, 473.20748591423035, 473.3241219520569, 473.4410951137543, 473.5576739311218, 473.67457389831543, 473.7912600040436, 473.9081230163574, 474.04166293144226, 474.14168095588684, 474.25837802886963, 474.3753008842468, 474.49201107025146, 474.60885095596313, 474.72571301460266, 474.8423399925232, 475.0641028881073]	[470.96023428701386, 471.07690095368054, 472.05990095368054, 472.22660095368053, 472.97660095368053, 473.0932676203472, 473.2099342870139, 473.32660095368055, 473.4432676203472, 473.5599342870139, 473.6766009536806, 473.79326762034725, 473.9099342870139, 474.0266009536806, 474.1432676203473, 474.25993428701395, 474.3766009536806, 474.4932676203473, 474.60993428701397, 474.72660095368065, 474.8432676203473, 475.07660095368067]	2021_Feb_02_1709	59.930100905030386	1	1
21	79	FALSE	NV	v	['V', 'A', 'H', 'Y', 'U', 'T', 'R', 'Z', 'X', 'J', 'G', 'S', 'N', 'M', 'K', 'E']	[2245, 697, 986, 2670, 2059, 1888, 1587, 2911, 4000, 1029, 944, 1731, 1335, 1224, 1122, 904]	9	Present	NA	NA	PRESENT	0.03619694709777832	477.0572791099548	479.06193494796753	479.76234102249146	480.11243414878845	483.1804690361023	4.118534088134766	[477.0784149169922, 477.1949551105499, 478.1793169975281, 478.3462018966675, 479.0974090099335, 479.2137289047241, 479.33042311668396, 479.44729495048523, 479.56402707099915, 479.68089604377747, 479.7977440357208, 479.91459488868713, 480.03127908706665, 480.14816188812256, 480.2647531032562, 480.38169503211975, 480.49837708473206, 480.6152799129486, 480.73207688331604, 480.8490180969238, 480.965637922287, 481.1804699897766]	[477.07660095368067, 477.19326762034734, 478.17626762034735, 478.34296762034734, 479.09296762034734, 479.209634287014, 479.3263009536807, 479.44296762034736, 479.55963428701403, 479.6763009536807, 479.7929676203474, 479.90963428701406, 480.02630095368073, 480.1429676203474, 480.2596342870141, 480.37630095368075, 480.49296762034743, 480.6096342870141, 480.7263009536808, 480.84296762034745, 480.9596342870141, 481.1929676203475]	2021_Feb_02_1709	59.930100905030386	1	1
