participant	trial_num	practice	task	condition	RSVP	RAP	probePos	probe_presence	surprise_sound	surprise_img	probe_response	probe_resp_time	first_fixation_time	trial_start_time	surprise_start_time	probe_start_time	trial_end_time	trial_duration	actualEventTimes	plannedEventTimes	date	framerate	marker_vol	RAP_vol
21	1	FALSE	NA	a	['Y', 'R', 'A', 'Z', 'N', 'G', 'W', 'X', 'C', 'S', 'U', 'J', 'M', 'V', 'P', 'K']	[2670, 1587, 697, 2911, 1335, 944, 2448, 4000, 829, 1731, 2059, 1029, 1224, 2245, 1456, 1122]	8	Present	NA	NA	PRESENT	0.4992568492889404	1.9073486328125e-6	1.9903340339660645	2.573677380846387	2.92367928817502	6.103870153427124	4.11353611946106	[0.01924419403076172, 0.1193389892578125, 1.0871930122375488, 1.2704441547393799, 2.0211970806121826, 2.138089179992676, 2.254837989807129, 2.371540069580078, 2.4882051944732666, 2.605116128921509, 2.721989154815674, 2.8388969898223877, 2.955639123916626, 3.072373151779175, 3.1890640258789062, 3.305891990661621, 3.4226720333099365, 3.5395021438598633, 3.6562860012054443, 3.7730581760406494, 3.8898911476135254, 4.103869199752808]	[1.1920928955078125e-06, 0.11666785875289551, 1.0996678587528954, 1.2663678587528955, 2.0163678587528953, 2.1330345254128953, 2.2497011920728953, 2.3663678587328953, 2.4830345253928954, 2.5997011920528954, 2.7163678587128954, 2.8330345253728955, 2.9497011920328955, 3.0663678586928955, 3.1830345253528955, 3.2997011920128956, 3.4163678586728956, 3.5330345253328956, 3.6497011919928957, 3.7663678586528957, 3.8830345253128957, 4.116367858646229]	2021_Feb_02_1732	59.93258430177313	1	0.375
21	2	FALSE	NV	a	['W', 'G', 'Y', 'Z', 'M', 'R', 'S', 'A', 'X', 'B', 'T', 'K', 'J', 'E', 'U', 'C']	[2448, 944, 2670, 2911, 1224, 1587, 1731, 697, 4000, 760, 1888, 1122, 1029, 904, 2059, 829]	9	Present	NA	NA	PRESENT	0.288362979888916	6.106013059616089	8.103685855865479	8.803693962057167	9.1536958693858	12.22023606300354	4.1165502071380615	[6.1252570152282715, 6.225506067276001, 7.203561067581177, 7.376604080200195, 8.127437114715576, 8.244409084320068, 8.361209154129028, 8.478089094161987, 8.594693183898926, 8.711610078811646, 8.828261137008667, 8.945214033126831, 9.061930179595947, 9.178755044937134, 9.295724153518677, 9.41208004951477, 9.52916407585144, 9.64577603340149, 9.762701988220215, 9.87938117980957, 9.996116161346436, 10.220237016677856]	[6.116367858646229, 6.233034525306229, 7.216034525306228, 7.382734525306228, 8.132734525306228, 8.249401191966228, 8.366067858626229, 8.48273452528623, 8.59940119194623, 8.71606785860623, 8.83273452526623, 8.949401191926231, 9.066067858586232, 9.182734525246232, 9.299401191906233, 9.416067858566233, 9.532734525226234, 9.649401191886234, 9.766067858546235, 9.882734525206235, 9.999401191866236, 10.232734525199568]	2021_Feb_02_1732	59.93258430177313	1	0.375
21	3	FALSE	NN	a	['U', 'P', 'J', 'E', 'V', 'Z', 'Y', 'K', 'S', 'T', 'M', 'H', 'W', 'R', 'G', 'C']	[2059, 1456, 1029, 904, 2245, 2911, 2670, 1122, 1731, 1888, 1224, 986, 2448, 1587, 944, 829]	12	Absent	NA	NA	ABSENT	0.34110307693481445	12.212615966796877	14.220103979110718	15.270110893189512	15.620113038936724	18.33660316467285	4.116499185562134	[12.231858015060425, 12.348706007003784, 13.319930076599121, 13.499927043914795, 14.25061297416687, 14.36731219291687, 14.48427700996399, 14.60111403465271, 14.717851161956787, 14.834668159484863, 14.95145297050476, 15.068165063858032, 15.185096979141235, 15.302046060562134, 15.418665170669556, 15.535372018814087, 15.651970148086548, 15.768841981887817, 15.885740041732788, 16.002634048461914, 16.11936616897583, 16.336604118347168]	[12.232734525199568, 12.349401191859569, 13.332401191859569, 13.49910119185957, 14.24910119185957, 14.36576785851957, 14.48243452517957, 14.599101191839571, 14.715767858499571, 14.832434525159572, 14.949101191819572, 15.065767858479573, 15.182434525139573, 15.299101191799574, 15.415767858459574, 15.532434525119575, 15.649101191779575, 15.765767858439576, 15.882434525099576, 15.999101191759577, 16.115767858419577, 16.34910119175291]	2021_Feb_02_1732	59.93258430177313	1	0.375
21	4	FALSE	AA	a	['E', 'K', 'N', 'Y', 'T', 'H', 'U', 'J', 'M', 'surprise', 'Z', 'S', 'X', 'A', 'W', 'C']	[904, 1122, 1335, 2670, 1888, 986, 2059, 1029, 1224, 'stimAuditory/all_stimAuditory/212.wav', 2911, 1731, 4000, 697, 2448, 829]	13	Present	stimAuditory/all_stimAuditory/212.wav	NA	ABSENT	1.130185842514038	18.335788011550903	20.336668968200684	21.50334469470669	21.853346602035323	24.452970027923584	4.1163010597229	[18.355053186416626, 18.47182297706604, 19.436294078826904, 19.623107194900513, 20.373759984970093, 20.490631103515625, 20.607149124145508, 20.7241690158844, 20.840818166732788, 20.940783977508545, 21.05773115158081, 21.174435138702393, 21.291215181350708, 21.408128023147583, 21.524818181991577, 21.641602039337158, 21.75841999053955, 21.875226974487305, 21.9919650554657, 22.108740091323853, 22.22554302215576, 22.452970027923584]	[18.34910119175291, 18.46576785841291, 19.44876785841291, 19.61546785841291, 20.36546785841291, 20.482134525072908, 20.598801191732907, 20.715467858392905, 20.832134525052904, 20.948801191712903, 21.0654678583729, 21.1821345250329, 21.2988011916929, 21.415467858352898, 21.532134525012896, 21.648801191672895, 21.765467858332894, 21.882134524992892, 21.99880119165289, 22.11546785831289, 22.23213452497289, 22.465467858306223]	2021_Feb_02_1732	59.93258430177313	1	0.375
21	5	FALSE	NV	a	['H', 'C', 'N', 'U', 'S', 'Y', 'J', 'W', 'T', 'M', 'A', 'X', 'R', 'K', 'P', 'B']	[986, 829, 1335, 2059, 1731, 2670, 1029, 2448, 1888, 1224, 697, 4000, 1587, 1122, 1456, 760]	12	Present	NA	NA	PRESENT	0.38289713859558105	24.44201183319092	26.45270204544067	27.502709913193783	27.85271301261531	30.56933617591858	4.116634130477905	[24.461254119873047, 24.578261137008667, 25.552661180496216, 25.729310035705566, 26.480064153671265, 26.596853971481323, 26.71376919746399, 26.830446004867554, 26.94733715057373, 27.064002990722656, 27.180915117263794, 27.297548055648804, 27.414565086364746, 27.53129506111145, 27.648195028305054, 27.764679193496704, 27.88139820098877, 27.998308181762695, 28.115174055099487, 28.232057094573975, 28.348793983459473, 28.56933617591858]	[24.465467858306223, 24.58213452496622, 25.565134524966222, 25.73183452496622, 26.48183452496622, 26.59850119162622, 26.715167858286218, 26.831834524946217, 26.948501191606216, 27.065167858266214, 27.181834524926213, 27.29850119158621, 27.41516785824621, 27.53183452490621, 27.648501191566208, 27.765167858226206, 27.881834524886205, 27.998501191546204, 28.115167858206203, 28.2318345248662, 28.3485011915262, 28.581834524859534]	2021_Feb_02_1732	59.93258430177313	1	0.375
21	6	FALSE	NV	a	['M', 'G', 'B', 'A', 'P', 'U', 'V', 'T', 'X', 'H', 'Y', 'E', 'R', 'Z', 'W', 'S']	[1224, 944, 760, 697, 1456, 2059, 2245, 1888, 4000, 986, 2670, 904, 1587, 2911, 2448, 1731]	9	Present	NA	NA	PRESENT	0.2434539794921875	30.565460920333862	32.56908082962036	33.26908893581205	33.61909084314068	36.68570303916931	4.11662220954895	[30.584705114364624, 30.70131206512451, 31.669028997421265, 31.852423191070557, 32.603092193603516, 32.72005915641785, 32.8370041847229, 32.95364713668823, 33.07031297683716, 33.18724608421326, 33.304049015045166, 33.42082118988037, 33.53768301010132, 33.65440917015076, 33.77111101150513, 33.887869119644165, 34.004576206207275, 34.121504068374634, 34.23810601234436, 34.35496401786804, 34.4717230796814, 34.68570303916931]	[30.581834524859534, 30.698501191519533, 31.681501191519533, 31.848201191519532, 32.598201191519536, 32.71486785817954, 32.83153452483954, 32.94820119149954, 33.064867858159545, 33.18153452481955, 33.29820119147955, 33.41486785813955, 33.531534524799554, 33.648201191459556, 33.76486785811956, 33.88153452477956, 33.99820119143956, 34.114867858099565, 34.23153452475957, 34.34820119141957, 34.46486785807957, 34.698201191412906]	2021_Feb_02_1732	59.93258430177313	1	0.375
21	7	FALSE	AV	a	['Z', 'G', 'P', 'T', 'R', 'surprise', 'K', 'J', 'X', 'H', 'Y', 'E', 'S', 'A', 'U', 'W']	[2911, 944, 1456, 1888, 1587, 'stimAuditory/all_stimAuditory/103.wav', 1122, 1029, 4000, 986, 2670, 904, 1731, 697, 2059, 2448]	9	Present	stimAuditory/all_stimAuditory/103.wav	NA	ABSENT	1.0248210430145264	36.68840193748474	38.68543887138367	39.38544697757536	39.735449838578305	42.80206918716431	4.11663031578064	[36.70766615867615, 36.8074791431427, 37.78539419174194, 37.95872116088867, 38.7094361782074, 38.82626914978027, 38.943260192871094, 39.05985713005066, 39.176849126815796, 39.29361009597778, 39.41044998168945, 39.527058124542236, 39.644044160842896, 39.76070809364319, 39.87771916389465, 39.99420213699341, 40.11118006706238, 40.22783017158508, 40.344813108444214, 40.46144509315491, 40.57839608192444, 40.80207014083862]	[36.698201191412906, 36.81486785807291, 37.797867858072905, 37.964567858072904, 38.714567858072904, 38.831234524732906, 38.94790119139291, 39.06456785805291, 39.18123452471291, 39.297901191372915, 39.41456785803292, 39.53123452469292, 39.64790119135292, 39.764567858012924, 39.88123452467293, 39.99790119133293, 40.11456785799293, 40.23123452465293, 40.347901191312936, 40.46456785797294, 40.58123452463294, 40.814567857966274]	2021_Feb_02_1732	59.93258430177313	1	0.375
21	8	FALSE	NA	a	['W', 'K', 'V', 'A', 'R', 'B', 'U', 'Y', 'N', 'P', 'C', 'G', 'X', 'T', 'H', 'M']	[2448, 1122, 2245, 697, 1587, 760, 2059, 2670, 1335, 1456, 829, 944, 4000, 1888, 986, 1224]	13	Present	NA	NA	PRESENT	0.2691779136657715	42.79472589492798	44.8020339012146	45.96870867404629	46.31871058137492	48.91843605041504	4.1164021492004395	[42.813969135284424, 42.93084216117859, 43.901761054992676, 44.082104206085205, 44.83266520500183, 44.94942116737366, 45.06637215614319, 45.183194160461426, 45.30008816719055, 45.416561126708984, 45.53331398963928, 45.65026807785034, 45.767115116119385, 45.883800983428955, 46.00061917304993, 46.11741399765015, 46.233997106552124, 46.35097312927246, 46.46777701377869, 46.5845901966095, 46.70122504234314, 46.918437004089355]	[42.814567857966274, 42.93123452462628, 43.91423452462627, 44.08093452462627, 44.83093452462627, 44.947601191286275, 45.06426785794628, 45.18093452460628, 45.29760119126628, 45.41426785792628, 45.530934524586286, 45.64760119124629, 45.76426785790629, 45.88093452456629, 45.997601191226295, 46.1142678578863, 46.2309345245463, 46.3476011912063, 46.464267857866304, 46.580934524526306, 46.69760119118631, 46.93093452451964]	2021_Feb_02_1732	59.93258430177313	1	0.375
21	9	FALSE	NV	a	['E', 'J', 'Y', 'H', 'U', 'K', 'V', 'B', 'N', 'Z', 'T', 'X', 'S', 'R', 'P', 'C']	[904, 1029, 2670, 986, 2059, 1122, 2245, 760, 1335, 2911, 1888, 4000, 1731, 1587, 1456, 829]	12	Present	NA	NA	PRESENT	0.6586129665374756	48.91780304908752	50.91822004318237	51.96822791093548	52.318230056682694	55.03480315208435	4.1165831089019775	[48.93704605102539, 49.05368399620056, 50.01812720298767, 50.205069065093994, 50.95623302459717, 51.072511196136475, 51.189412117004395, 51.289329051971436, 51.40606617927551, 51.52297902107239, 51.63978600502014, 51.7564640045166, 51.87335705757141, 51.99008917808533, 52.10691714286804, 52.223756074905396, 52.34050011634827, 52.457152128219604, 52.57397198677063, 52.690901041030884, 52.80758619308472, 53.03480410575867]	[48.93093452451964, 49.047601191179645, 50.03060119117964, 50.19730119117964, 50.94730119117964, 51.06396785783964, 51.180634524499645, 51.29730119115965, 51.41396785781965, 51.53063452447965, 51.647301191139654, 51.763967857799656, 51.88063452445966, 51.99730119111966, 52.11396785777966, 52.230634524439665, 52.34730119109967, 52.46396785775967, 52.58063452441967, 52.697301191079674, 52.81396785773968, 53.04730119107301]	2021_Feb_02_1732	59.93258430177313	1	0.375
21	10	FALSE	NN	a	['A', 'M', 'G', 'U', 'W', 'J', 'T', 'N', 'E', 'P', 'V', 'R', 'K', 'S', 'B', 'H']	[697, 1224, 944, 2059, 2448, 1029, 1888, 1335, 904, 1456, 2245, 1587, 1122, 1731, 760, 986]	12	Absent	NA	NA	ABSENT	0.33516407012939453	55.02405786514282	57.034817934036255	58.08482484811505	58.43482699386226	61.15117001533508	4.116352081298828	[55.04330110549927, 55.16008520126343, 56.13450503349304, 56.31137418746948, 57.06217002868652, 57.17886018753052, 57.29583501815796, 57.41246008872986, 57.52929997444153, 57.64620900154114, 57.7629930973053, 57.879661083221436, 57.99640202522278, 58.11329913139343, 58.230276107788086, 58.34689712524414, 58.46383309364319, 58.58024501800537, 58.69730019569397, 58.814040184020996, 58.93092608451843, 59.15116906166077]	[55.04730119107301, 55.16396785773301, 56.14696785773301, 56.31366785773301, 57.06366785773301, 57.18033452439301, 57.29700119105301, 57.413667857713016, 57.53033452437302, 57.64700119103302, 57.76366785769302, 57.880334524353025, 57.99700119101303, 58.11366785767303, 58.23033452433303, 58.34700119099303, 58.463667857653036, 58.58033452431304, 58.69700119097304, 58.81366785763304, 58.930334524293045, 59.16366785762638]	2021_Feb_02_1732	59.93258430177313	1	0.375
21	11	FALSE	NV	a	['P', 'G', 'M', 'Y', 'E', 'S', 'W', 'V', 'H', 'R', 'K', 'C', 'Z', 'X', 'T', 'U']	[1456, 944, 1224, 2670, 904, 1731, 2448, 2245, 986, 1587, 1122, 829, 2911, 4000, 1888, 2059]	14	Present	NA	NA	ABSENT	0.8037090301513672	61.14757990837097	63.15109086036682	64.43443325353283	64.78443539928004	67.2675371170044	4.116446256637573	[61.1668221950531, 61.283167123794556, 62.25086307525635, 62.43468618392944, 63.18529200553894, 63.302103996276855, 63.41872715950012, 63.535646200180054, 63.65249514579773, 63.769280195236206, 63.886205196380615, 64.00287103652954, 64.11950612068176, 64.23653507232666, 64.3531801700592, 64.47007918357849, 64.58673810958862, 64.70347619056702, 64.82033014297485, 64.93713712692261, 65.05381798744202, 65.26753616333008]	[61.16366785762638, 61.28033452428638, 62.26333452428638, 62.43003452428638, 63.18003452428638, 63.29670119094638, 63.41336785760638, 63.530034524266384, 63.646701190926386, 63.76336785758639, 63.88003452424639, 63.99670119090639, 64.11336785756639, 64.23003452422638, 64.34670119088638, 64.46336785754637, 64.58003452420637, 64.69670119086636, 64.81336785752636, 64.93003452418635, 65.04670119084635, 65.28003452417968]	2021_Feb_02_1732	59.93258430177313	1	0.375
21	12	FALSE	NV	a	['Y', 'K', 'N', 'B', 'G', 'A', 'E', 'X', 'H', 'M', 'C', 'U', 'V', 'P', 'R', 'S']	[2670, 1122, 1335, 760, 944, 697, 904, 4000, 986, 1224, 829, 2059, 2245, 1456, 1587, 1731]	8	Present	NA	NA	PRESENT	0.20894908905029297	67.27045202255249	69.26739883422852	69.85074027376021	70.20074218108884	73.38390302658081	4.116504192352295	[67.28971099853516, 67.38953304290771, 68.36722803115845, 68.5408890247345, 69.29153299331665, 69.40834999084473, 69.52532720565796, 69.64192199707031, 69.75888919830322, 69.87550020217896, 69.99248814582825, 70.1091160774231, 70.2259202003479, 70.34304809570312, 70.45970106124878, 70.576425075531, 70.69310212135315, 70.80998706817627, 70.92668008804321, 71.0434889793396, 71.16029810905457, 71.38390398025513]	[67.28003452417968, 67.39670119083968, 68.37970119083968, 68.54640119083969, 69.29640119083969, 69.41306785749968, 69.52973452415968, 69.64640119081967, 69.76306785747967, 69.87973452413966, 69.99640119079966, 70.11306785745965, 70.22973452411965, 70.34640119077964, 70.46306785743964, 70.57973452409963, 70.69640119075963, 70.81306785741963, 70.92973452407962, 71.04640119073962, 71.16306785739961, 71.39640119073294]	2021_Feb_02_1732	59.93258430177313	1	0.375
21	13	FALSE	VV	a	['R', 'U', 'Z', 'T', 'C', 'G', 'surprise', 'J', 'A', 'X', 'P', 'Y', 'B', 'E', 'K', 'S']	[1587, 2059, 2911, 1888, 829, 944, 'stimAuditory/all_stimAuditory/204.wav', 1029, 697, 4000, 1456, 2670, 760, 904, 1122, 1731]	10	Present	NA	NA	PRESENT	0.36560893058776855	73.3767569065094	75.38359594345093	76.20027071630261	76.55027357730556	79.5002691745758	4.116673231124878	[73.39600014686584, 73.51268601417542, 74.48359513282776, 74.66399312019348, 75.41479110717773, 75.53142714500427, 75.6484260559082, 75.76507520675659, 75.88209104537964, 75.99869108200073, 76.11566305160522, 76.23219418525696, 76.34921312332153, 76.46596312522888, 76.58273720741272, 76.69952607154846, 76.81615114212036, 76.93316316604614, 77.0498571395874, 77.16665315628052, 77.283203125, 77.5002691745758]	[73.39640119073294, 73.51306785739294, 74.49606785739294, 74.66276785739295, 75.41276785739295, 75.52943452405295, 75.64610119071294, 75.76276785737294, 75.87943452403293, 75.99610119069293, 76.11276785735292, 76.22943452401292, 76.34610119067291, 76.4627678573329, 76.5794345239929, 76.6961011906529, 76.81276785731289, 76.92943452397289, 77.04610119063288, 77.16276785729288, 77.27943452395287, 77.5127678572862]	2021_Feb_02_1732	59.93258430177313	1	0.375
21	14	FALSE	NA	a	['J', 'U', 'P', 'W', 'R', 'E', 'M', 'V', 'N', 'Y', 'C', 'X', 'B', 'A', 'K', 'G']	[1029, 2059, 1456, 2448, 1587, 904, 1224, 2245, 1335, 2670, 829, 4000, 760, 697, 1122, 944]	12	Present	NA	NA	PRESENT	0.1308000087738037	79.49992203712463	81.50001192092896	82.55002002710064	82.90002193442928	85.61663699150085	4.116625070571899	[79.51916408538818, 79.6359760761261, 80.59996104240417, 80.78757905960083, 81.53796410560608, 81.63784313201904, 81.75461220741272, 81.87132620811462, 81.98818302154541, 82.10499000549316, 82.22178506851196, 82.33846998214722, 82.45538115501404, 82.57215309143066, 82.6889340877533, 82.80577611923218, 82.92257714271545, 83.03946805000305, 83.15606808662415, 83.27296113967896, 83.38966107368469, 83.61663699150085]	[79.5127678572862, 79.6294345239462, 80.6124345239462, 80.77913452394621, 81.52913452394621, 81.6458011906062, 81.7624678572662, 81.8791345239262, 81.99580119058619, 82.11246785724619, 82.22913452390618, 82.34580119056618, 82.46246785722617, 82.57913452388617, 82.69580119054616, 82.81246785720616, 82.92913452386615, 83.04580119052615, 83.16246785718614, 83.27913452384614, 83.39580119050613, 83.62913452383947]	2021_Feb_02_1732	59.93258430177313	1	0.375
21	15	FALSE	NV	a	['T', 'W', 'H', 'Z', 'U', 'C', 'A', 'X', 'Y', 'J', 'M', 'N', 'E', 'P', 'G', 'S']	[1888, 2448, 986, 2911, 2059, 829, 697, 4000, 2670, 1029, 1224, 1335, 904, 1456, 944, 1731]	8	Present	NA	NA	PRESENT	0.1835930347442627	85.6062388420105	87.61651587486267	88.19985826806868	88.549859221723	91.73300313949584	4.116487264633179	[85.62548208236694, 85.74225497245789, 86.71632814407349, 86.89354205131531, 87.64417004585266, 87.76094698905945, 87.87791705131531, 87.99443817138672, 88.11147618293762, 88.22830200195312, 88.34500002861023, 88.46188402175903, 88.57851600646973, 88.69542598724365, 88.81205201148987, 88.92907309532166, 89.04586815834045, 89.16268301010132, 89.27930307388306, 89.39599609375, 89.51275420188904, 89.73300409317017]	[85.62913452383947, 85.74580119049946, 86.72880119049947, 86.89550119049947, 87.64550119049947, 87.76216785715947, 87.87883452381946, 87.99550119047946, 88.11216785713945, 88.22883452379945, 88.34550119045944, 88.46216785711944, 88.57883452377943, 88.69550119043943, 88.81216785709942, 88.92883452375942, 89.04550119041942, 89.16216785707941, 89.2788345237394, 89.3955011903994, 89.5121678570594, 89.74550119039273]	2021_Feb_02_1732	59.93258430177313	1	0.375
21	16	FALSE	NN	a	['C', 'R', 'J', 'E', 'P', 'Y', 'A', 'M', 'G', 'T', 'Z', 'B', 'S', 'K', 'H', 'W']	[829, 1587, 1029, 904, 1456, 2670, 697, 1224, 944, 1888, 2911, 760, 1731, 1122, 986, 2448]	13	Absent	NA	NA	ABSENT	0.3799469470977783	91.72950792312622	93.7328040599823	94.89947764072107	95.24947954804972	97.84936904907228	4.116564989089966	[91.74874997138977, 91.86532998085022, 92.83269619941711, 93.0167441368103, 93.7673590183258, 93.8839681148529, 94.00105810165405, 94.1177191734314, 94.23442912101746, 94.351389169693, 94.4681830406189, 94.58494210243225, 94.70172119140625, 94.81858015060425, 94.93515706062317, 95.0519380569458, 95.16895604133606, 95.28570008277893, 95.4025731086731, 95.51919412612915, 95.63594317436218, 95.84937000274658]	[91.74550119039273, 91.86216785705273, 92.84516785705273, 93.01186785705274, 93.76186785705274, 93.87853452371273, 93.99520119037273, 94.11186785703272, 94.22853452369272, 94.34520119035271, 94.4618678570127, 94.5785345236727, 94.6952011903327, 94.81186785699269, 94.92853452365269, 95.04520119031268, 95.16186785697268, 95.27853452363267, 95.39520119029267, 95.51186785695266, 95.62853452361266, 95.86186785694599]	2021_Feb_02_1732	59.93258430177313	1	0.375
21	17	FALSE	NV	a	['B', 'A', 'S', 'H', 'R', 'Y', 'T', 'J', 'W', 'U', 'X', 'G', 'Z', 'K', 'N', 'V']	[760, 697, 1731, 986, 1587, 2670, 1888, 1029, 2448, 2059, 4000, 944, 2911, 1122, 1335, 2245]	11	Present	NA	NA	PRESENT	0.13718914985656738	97.83552598953248	99.84941291809082	100.78275316550962	101.13275531125684	103.9657371044159	4.116324186325073	[97.85476803779602, 97.97165513038635, 98.94906210899353, 99.12310910224915, 99.87354612350464, 99.99040699005127, 100.10741305351257, 100.22395920753479, 100.34077405929565, 100.45759320259094, 100.57458901405334, 100.69136500358582, 100.80792617797852, 100.92474818229675, 101.04171204566956, 101.1584780216217, 101.27513313293457, 101.39239716529846, 101.50873804092407, 101.62563800811768, 101.74242305755615, 101.9657371044159]	[97.86186785694599, 97.97853452360599, 98.96153452360599, 99.128234523606, 99.878234523606, 99.99490119026599, 100.11156785692599, 100.22823452358598, 100.34490119024598, 100.46156785690597, 100.57823452356597, 100.69490119022596, 100.81156785688596, 100.92823452354595, 101.04490119020595, 101.16156785686594, 101.27823452352594, 101.39490119018593, 101.51156785684593, 101.62823452350592, 101.74490119016592, 101.97823452349925]	2021_Feb_02_1732	59.93258430177313	1	0.375
21	18	FALSE	NV	a	['W', 'J', 'P', 'T', 'K', 'Z', 'S', 'B', 'V', 'H', 'M', 'X', 'R', 'Y', 'G', 'A']	[2448, 1029, 1456, 1888, 1122, 2911, 1731, 760, 2245, 986, 1224, 4000, 1587, 2670, 944, 697]	12	Present	NA	NA	PRESENT	0.04602193832397461	103.95883202552795	105.96558594703674	107.01559405320845	107.36559596053706	110.0821042060852	4.116518259048462	[103.97807502746582, 104.09482908248901, 105.065425157547, 105.24614715576172, 105.99673700332642, 106.11352515220642, 106.23026204109192, 106.34719705581665, 106.46405005455017, 106.5808219909668, 106.69741415977478, 106.81435704231262, 106.93109202384949, 107.04783201217651, 107.16479802131653, 107.28168511390686, 107.39845204353333, 107.51496601104736, 107.63189816474915, 107.74871301651001, 107.86551213264465, 108.0821042060852]	[103.97823452349925, 104.09490119015925, 105.07790119015925, 105.24460119015926, 105.99460119015926, 106.11126785681925, 106.22793452347925, 106.34460119013924, 106.46126785679924, 106.57793452345923, 106.69460119011923, 106.81126785677922, 106.92793452343922, 107.04460119009921, 107.16126785675921, 107.2779345234192, 107.3946011900792, 107.5112678567392, 107.62793452339919, 107.74460119005919, 107.86126785671918, 108.09460119005251]	2021_Feb_02_1732	59.93258430177313	1	0.375
21	19	FALSE	NA	a	['S', 'N', 'A', 'B', 'P', 'V', 'C', 'J', 'H', 'U', 'X', 'M', 'T', 'Z', 'G', 'K']	[1731, 1335, 697, 760, 1456, 2245, 829, 1029, 986, 2059, 4000, 1224, 1888, 2911, 944, 1122]	11	Present	NA	NA	PRESENT	0.3792428970336914	110.08169388771056	112.08194589614868	113.01528638198606	113.36528828931468	116.1984691619873	4.116523265838623	[110.1009361743927, 110.2179160118103, 111.18179512023926, 111.36941313743591, 112.11987900733948, 112.21987414360046, 112.33661317825317, 112.45341110229492, 112.57023215293884, 112.68700003623962, 112.80387997627258, 112.9206280708313, 113.03742504119873, 113.15425109863281, 113.27101111412048, 113.38781714439392, 113.5048291683197, 113.62155318260193, 113.73835515975952, 113.85517716407776, 113.97183012962341, 114.1984691619873]	[110.09460119005251, 110.21126785671251, 111.19426785671251, 111.36096785671252, 112.11096785671252, 112.22763452337252, 112.34430119003251, 112.4609678566925, 112.5776345233525, 112.6943011900125, 112.81096785667249, 112.92763452333249, 113.04430118999248, 113.16096785665248, 113.27763452331247, 113.39430118997247, 113.51096785663246, 113.62763452329246, 113.74430118995245, 113.86096785661245, 113.97763452327244, 114.21096785660578]	2021_Feb_02_1732	59.93258430177313	1	0.375
21	20	FALSE	NV	a	['Y', 'W', 'G', 'Z', 'N', 'K', 'E', 'T', 'X', 'P', 'J', 'R', 'U', 'M', 'S', 'V']	[2670, 2448, 944, 2911, 1335, 1122, 904, 1888, 4000, 1456, 1029, 1587, 2059, 1224, 1731, 2245]	9	Present	NA	NA	PRESENT	0.12774205207824707	116.18824791908264	118.198303937912	118.89831085201078	119.248312997758	122.31483697891235	4.116533041000366	[116.20749020576477, 116.32426404953003, 117.29816317558289, 117.4756669998169, 118.22623109817505, 118.34301710128784, 118.45995497703552, 118.57665014266968, 118.69354915618896, 118.81018018722534, 118.92697405815125, 119.04382014274597, 119.16050815582275, 119.277517080307, 119.3943121433258, 119.5110490322113, 119.62765312194824, 119.74471116065979, 119.8615071773529, 119.97820711135864, 120.09500217437744, 120.31483602523804]	[116.21096785660578, 116.32763452326577, 117.31063452326578, 117.47733452326578, 118.22733452326578, 118.34400118992578, 118.46066785658577, 118.57733452324577, 118.69400118990576, 118.81066785656576, 118.92733452322575, 119.04400118988575, 119.16066785654574, 119.27733452320574, 119.39400118986573, 119.51066785652573, 119.62733452318572, 119.74400118984572, 119.86066785650571, 119.97733452316571, 120.0940011898257, 120.32733452315904]	2021_Feb_02_1732	59.93258430177313	1	0.375
21	21	FALSE	VA	a	['K', 'W', 'N', 'V', 'surprise', 'R', 'Z', 'X', 'G', 'S', 'P', 'A', 'H', 'B', 'U', 'M']	[1122, 2448, 1335, 2245, 'stimAuditory/all_stimAuditory/208.wav', 1587, 2911, 4000, 944, 1731, 1456, 697, 986, 760, 2059, 1224]	8	Present	NA	NA	PRESENT	0.1962411403656006	122.31153106689452	124.31472206115724	124.89806326227034	125.24806516959896	128.4312040805817	4.1164820194244385	[122.3307740688324, 122.44739603996277, 123.41452813148499, 123.59859418869019, 124.34928607940674, 124.46614003181458, 124.58300805091858, 124.69972109794617, 124.81640100479126, 124.93348407745361, 125.05012798309326, 125.16694712638855, 125.28381204605103, 125.40037417411804, 125.51738405227661, 125.63416004180908, 125.75095915794373, 125.86763715744019, 125.98452401161194, 126.10132217407227, 126.21817398071289, 126.43120408058167]	[122.32733452315904, 122.44400118981903, 123.42700118981904, 123.59370118981904, 124.34370118981904, 124.46036785647904, 124.57703452313903, 124.69370118979903, 124.81036785645902, 124.92703452311902, 125.04370118977901, 125.16036785643901, 125.277034523099, 125.393701189759, 125.510367856419, 125.62703452307899, 125.74370118973899, 125.86036785639898, 125.97703452305898, 126.09370118971897, 126.21036785637897, 126.4437011897123]	2021_Feb_02_1732	59.93258430177313	1	0.375
21	22	FALSE	NV	a	['C', 'N', 'A', 'U', 'R', 'E', 'H', 'G', 'X', 'S', 'T', 'Z', 'Y', 'W', 'M', 'P']	[829, 1335, 697, 2059, 1587, 904, 986, 944, 4000, 1731, 1888, 2911, 2670, 2448, 1224, 1456]	9	Present	NA	NA	PRESENT	0.15346479415893555	128.4343180656433	130.43105483055115	131.13106198306852	131.48106389039717	134.54756999015808	4.116515159606934	[128.45356106758118, 128.5538251399994, 129.53089308738708, 129.7050700187683, 130.45565605163574, 130.57249307632446, 130.68942403793335, 130.80623602867126, 130.92295908927917, 131.03959107398987, 131.1564061641693, 131.27322602272034, 131.38998198509216, 131.5070481300354, 131.62359404563904, 131.7406051158905, 131.85746097564697, 131.97425413131714, 132.0908191204071, 132.20779418945312, 132.3247480392456, 132.54756903648376]	[128.4437011897123, 128.5603678563723, 129.5433678563723, 129.7100678563723, 130.4600678563723, 130.5767345230323, 130.69340118969228, 130.81006785635228, 130.92673452301227, 131.04340118967227, 131.16006785633226, 131.27673452299226, 131.39340118965225, 131.51006785631225, 131.62673452297224, 131.74340118963224, 131.86006785629223, 131.97673452295223, 132.09340118961222, 132.21006785627222, 132.3267345229322, 132.56006785626553]	2021_Feb_02_1732	59.93258430177313	1	0.375
21	23	FALSE	NN	a	['T', 'H', 'B', 'N', 'C', 'V', 'S', 'J', 'K', 'U', 'G', 'M', 'Z', 'A', 'P', 'Y']	[1888, 986, 760, 1335, 829, 2245, 1731, 1029, 1122, 2059, 944, 1224, 2911, 697, 1456, 2670]	9	Absent	NA	NA	ABSENT	1.206054925918579	134.54085493087769	136.5474820137024	137.24748892780119	137.59749202722273	140.6639370918274	4.116455078125	[134.56009697914124, 134.67679810523987, 135.64726305007935, 135.8281910419464, 136.57878518104553, 136.69568705558777, 136.8124601840973, 136.92921900749207, 137.04596304893494, 137.1628291606903, 137.27954411506653, 137.39652013778687, 137.51306104660034, 137.62992906570435, 137.74679398536682, 137.86347913742065, 137.98054218292236, 138.09703302383423, 138.21408700942993, 138.33068013191223, 138.44758820533752, 138.6639370918274]	[134.56006785626553, 134.67673452292553, 135.65973452292553, 135.82643452292552, 136.57643452292552, 136.69310118958552, 136.80976785624551, 136.9264345229055, 137.0431011895655, 137.1597678562255, 137.2764345228855, 137.3931011895455, 137.50976785620549, 137.62643452286548, 137.74310118952548, 137.85976785618547, 137.97643452284547, 138.09310118950546, 138.20976785616546, 138.32643452282545, 138.44310118948545, 138.67643452281877]	2021_Feb_02_1732	59.93258430177313	1	0.375
21	24	FALSE	NA	a	['B', 'T', 'R', 'Z', 'N', 'W', 'P', 'K', 'M', 'S', 'X', 'J', 'C', 'E', 'H', 'G']	[760, 1888, 1587, 2911, 1335, 2448, 1456, 1122, 1224, 1731, 4000, 1029, 829, 904, 986, 944]	11	Present	NA	NA	PRESENT	0.7793450355529785	140.66412997245789	142.6639769077301	143.5973193009161	143.94732120824474	146.7803041934967	4.116327285766602	[140.68337297439575, 140.80020713806152, 141.76362705230713, 141.95127415657043, 142.70239114761353, 142.80194115638733, 142.9187080860138, 143.03553819656372, 143.15231704711914, 143.26915311813354, 143.38592314720154, 143.5027711391449, 143.61951804161072, 143.7364730834961, 143.85303497314453, 143.9699821472168, 144.08685898780823, 144.2035870552063, 144.320219039917, 144.43723607063293, 144.55392813682556, 144.7803030014038]	[140.67643452281877, 140.79310118947876, 141.77610118947877, 141.94280118947876, 142.69280118947876, 142.80946785613875, 142.92613452279875, 143.04280118945874, 143.15946785611874, 143.27613452277873, 143.39280118943873, 143.50946785609872, 143.62613452275872, 143.7428011894187, 143.8594678560787, 143.9761345227387, 144.0928011893987, 144.2094678560587, 144.3261345227187, 144.44280118937868, 144.55946785603868, 144.792801189372]	2021_Feb_02_1732	59.93258430177313	1	0.375
21	25	FALSE	NA	a	['T', 'M', 'C', 'W', 'E', 'V', 'G', 'B', 'J', 'U', 'N', 'A', 'S', 'X', 'Y', 'Z']	[1888, 1224, 829, 2448, 904, 2245, 944, 760, 1029, 2059, 1335, 697, 1731, 4000, 2670, 2911]	14	Present	NA	NA	PRESENT	0.4321010112762451	146.77038383483887	148.78014993667605	150.06349137616772	150.41349328349634	152.89667010307312	4.116520166397095	[146.7896270751953, 146.9062991142273, 147.87999415397644, 148.05763602256775, 148.80841708183289, 148.92514300346375, 149.0419521331787, 149.15874218940735, 149.27544713020325, 149.39236402511597, 149.50899004936218, 149.62599110603333, 149.74272418022156, 149.85956597328186, 149.97614216804504, 150.0931041240692, 150.2098240852356, 150.3267481327057, 150.4433720111847, 150.5603141784668, 150.67707419395447, 150.89667010307312]	[146.792801189372, 146.909467856032, 147.892467856032, 148.059167856032, 148.809167856032, 148.92583452269199, 149.04250118935198, 149.15916785601198, 149.27583452267197, 149.39250118933197, 149.50916785599196, 149.62583452265196, 149.74250118931195, 149.85916785597195, 149.97583452263194, 150.09250118929194, 150.20916785595193, 150.32583452261193, 150.44250118927192, 150.55916785593192, 150.6758345225919, 150.90916785592523]	2021_Feb_02_1732	59.93258430177313	1	0.375
21	26	FALSE	NN	a	['B', 'K', 'Y', 'A', 'T', 'R', 'E', 'M', 'V', 'P', 'S', 'U', 'G', 'W', 'H', 'N']	[760, 1122, 2670, 697, 1888, 1587, 904, 1224, 2245, 1456, 1731, 2059, 944, 2448, 986, 1335]	9	Absent	NA	NA	ABSENT	0.48416996002197266	152.89367198944092	154.89650797843933	155.59651584621244	155.94651799195967	159.01303720474243	4.116529226303101	[152.91291618347168, 153.02948307991028, 153.99636101722717, 154.1805591583252, 154.9314830303192, 155.04842901229858, 155.1650640964508, 155.28172206878662, 155.39873003959656, 155.51546502113342, 155.63211297988892, 155.74890398979187, 155.86587119102478, 155.98241901397705, 156.09930205345154, 156.2162320613861, 156.33302998542786, 156.44959497451782, 156.5665910243988, 156.683363199234, 156.80062699317932, 157.01303720474243]	[152.90916785592523, 153.02583452258523, 154.00883452258523, 154.17553452258522, 154.92553452258522, 155.04220118924522, 155.1588678559052, 155.2755345225652, 155.3922011892252, 155.5088678558852, 155.6255345225452, 155.7422011892052, 155.85886785586518, 155.97553452252518, 156.09220118918518, 156.20886785584517, 156.32553452250517, 156.44220118916516, 156.55886785582516, 156.67553452248515, 156.79220118914515, 157.02553452247847]	2021_Feb_02_1732	59.93258430177313	1	0.375
21	27	FALSE	NV	a	['R', 'T', 'B', 'S', 'A', 'H', 'W', 'V', 'K', 'Y', 'X', 'G', 'J', 'U', 'E', 'C']	[1587, 1888, 760, 1731, 697, 986, 2448, 2245, 1122, 2670, 4000, 944, 1029, 2059, 904, 829]	11	Present	NA	NA	PRESENT	0.12180495262145996	158.9997260570526	161.0127730369568	161.94611328437557	162.29611519170422	165.12940216064453	4.116629123687744	[159.01896905899048, 159.13610100746155, 160.1127290725708, 160.28705310821533, 161.0378110408783, 161.15459609031677, 161.27128219604492, 161.38829016685486, 161.50487613677979, 161.62169218063354, 161.7384979724884, 161.85536313056946, 161.9723401069641, 162.08885598182678, 162.20578813552856, 162.32283520698547, 162.439306974411, 162.55629205703735, 162.67290902137756, 162.7897961139679, 162.90649104118347, 163.12940216064453]	[159.02553452247847, 159.14220118913846, 160.12520118913847, 160.29190118913846, 161.04190118913846, 161.15856785579845, 161.27523452245845, 161.39190118911844, 161.50856785577844, 161.62523452243843, 161.74190118909843, 161.85856785575842, 161.97523452241842, 162.0919011890784, 162.2085678557384, 162.3252345223984, 162.4419011890584, 162.5585678557184, 162.6752345223784, 162.79190118903838, 162.90856785569838, 163.1419011890317]	2021_Feb_02_1732	59.93258430177313	1	0.375
21	28	FALSE	NV	a	['K', 'P', 'A', 'H', 'Z', 'E', 'R', 'G', 'Y', 'C', 'N', 'X', 'S', 'W', 'V', 'J']	[1122, 1456, 697, 986, 2911, 904, 1587, 944, 2670, 829, 1335, 4000, 1731, 2448, 2245, 1029]	12	Present	NA	NA	ABSENT	0.4382951259613037	165.1229009628296	167.1292278766632	168.1792359828349	168.52923789016353	171.24576902389526	4.116541147232056	[165.14214301109314, 165.25905013084412, 166.2290940284729, 166.41024804115295, 167.16087198257446, 167.2779061794281, 167.39448404312134, 167.51129508018494, 167.62802815437317, 167.74494814872742, 167.86178302764893, 167.97862815856934, 168.09528398513794, 168.2120110988617, 168.32906317710876, 168.44577503204346, 168.562331199646, 168.67916417121887, 168.79611611366272, 168.91284799575806, 169.02965712547302, 169.24576902389526]	[165.1419011890317, 165.2585678556917, 166.2415678556917, 166.4082678556917, 167.1582678556917, 167.27493452235169, 167.39160118901168, 167.50826785567168, 167.62493452233167, 167.74160118899167, 167.85826785565166, 167.97493452231166, 168.09160118897165, 168.20826785563165, 168.32493452229164, 168.44160118895164, 168.55826785561163, 168.67493452227163, 168.79160118893162, 168.90826785559162, 169.0249345222516, 169.25826785558493]	2021_Feb_02_1732	59.93258430177313	1	0.375
21	29	FALSE	NA	a	['U', 'Y', 'R', 'J', 'Z', 'W', 'E', 'C', 'B', 'K', 'A', 'X', 'H', 'S', 'V', 'N']	[2059, 2670, 1587, 1029, 2911, 2448, 904, 829, 760, 1122, 697, 4000, 986, 1731, 2245, 1335]	12	Present	NA	NA	PRESENT	0.31549906730651855	171.24597597122192	173.2457070350647	174.2957139491435	174.64571704856502	177.3621370792389	4.116430044174194	[171.2652189731598, 171.38198518753052, 172.34546208381653, 172.53372716903687, 173.28406715393066, 173.38412809371948, 173.50092220306396, 173.61761713027954, 173.73438906669617, 173.85119199752808, 173.96793007850647, 174.08482813835144, 174.20155906677246, 174.3184630870819, 174.43512415885925, 174.55188417434692, 174.66893601417542, 174.78573298454285, 174.90232110023499, 175.01929306983948, 175.1360640525818, 175.3621380329132]	[171.25826785558493, 171.37493452224493, 172.35793452224493, 172.52463452224492, 173.27463452224492, 173.39130118890492, 173.5079678555649, 173.6246345222249, 173.7413011888849, 173.8579678555449, 173.9746345222049, 174.0913011888649, 174.20796785552488, 174.32463452218488, 174.44130118884488, 174.55796785550487, 174.67463452216487, 174.79130118882486, 174.90796785548486, 175.02463452214485, 175.14130118880485, 175.37463452213817]	2021_Feb_02_1732	59.93258430177313	1	0.375
21	30	FALSE	VV	a	['H', 'G', 'R', 'E', 'A', 'U', 'surprise', 'V', 'B', 'X', 'J', 'S', 'K', 'W', 'C', 'P']	[986, 944, 1587, 904, 697, 2059, 'stimAuditory/all_stimAuditory/215.wav', 2245, 760, 4000, 1029, 1731, 1122, 2448, 829, 1456]	10	Present	NA	NA	PRESENT	0.18423104286193848	177.35252499580383	179.36213397979736	180.17880756055615	180.52880970630335	183.4785041809082	4.11637020111084	[177.3717679977417, 177.48850297927856, 178.46182703971863, 178.63974118232727, 179.39037704467773, 179.50729513168335, 179.62398505210876, 179.74071598052979, 179.85765504837036, 179.97434520721436, 180.0912389755249, 180.2079939842224, 180.32481598854065, 180.44160199165344, 180.55842804908752, 180.6750681400299, 180.79203915596008, 180.90886402130127, 181.02558708190918, 181.1423830986023, 181.25916504859924, 181.4785029888153]	[177.37463452213817, 177.49130118879816, 178.47430118879817, 178.64100118879816, 179.39100118879816, 179.50766785545815, 179.62433452211815, 179.74100118877814, 179.85766785543814, 179.97433452209813, 180.09100118875813, 180.20766785541812, 180.32433452207812, 180.4410011887381, 180.5576678553981, 180.6743345220581, 180.7910011887181, 180.9076678553781, 181.0243345220381, 181.14100118869808, 181.25766785535808, 181.4910011886914]	2021_Feb_02_1732	59.93258430177313	1	0.375
21	31	FALSE	NA	a	['Y', 'C', 'S', 'K', 'M', 'N', 'Z', 'G', 'X', 'V', 'P', 'B', 'U', 'W', 'R', 'T']	[2670, 829, 1731, 1122, 1224, 1335, 2911, 944, 4000, 2245, 1456, 760, 2059, 2448, 1587, 1888]	9	Present	NA	NA	ABSENT	0.7485849857330322	183.4759418964386	185.4784438610077	186.1784529208737	186.52845506662092	189.59487009048465	4.116426229476929	[183.49518418312073, 183.61162114143372, 184.57819509506226, 184.7626941204071, 185.51354312896729, 185.63024616241455, 185.7471480369568, 185.86389803886414, 185.98060011863708, 186.09749698638916, 186.21409916877747, 186.33097219467163, 186.44794917106628, 186.56470108032227, 186.68155312538147, 186.79841017723083, 186.915048122406, 187.03182816505432, 187.14871406555176, 187.26528310775757, 187.38227701187134, 187.5948691368103]	[183.4910011886914, 183.6076678553514, 184.5906678553514, 184.7573678553514, 185.5073678553514, 185.62403452201139, 185.74070118867138, 185.85736785533138, 185.97403452199137, 186.09070118865137, 186.20736785531136, 186.32403452197136, 186.44070118863135, 186.55736785529135, 186.67403452195134, 186.79070118861134, 186.90736785527133, 187.02403452193133, 187.14070118859132, 187.25736785525132, 187.3740345219113, 187.60736785524463]	2021_Feb_02_1732	59.93258430177313	1	0.375
21	32	FALSE	NV	a	['S', 'N', 'K', 'H', 'E', 'T', 'M', 'X', 'C', 'W', 'A', 'Y', 'P', 'Z', 'B', 'U']	[1731, 1335, 1122, 986, 904, 1888, 1224, 4000, 829, 2448, 697, 2670, 1456, 2911, 760, 2059]	8	Present	NA	NA	PRESENT	0.1539919376373291	189.5818350315094	191.5946319103241	192.17797239618147	192.5279743035101	195.71123600006104	4.1166040897369385	[189.60107707977295, 189.71783304214478, 190.69456005096436, 190.86926698684692, 191.6199300289154, 191.7367730140686, 191.8536159992218, 191.9704179763794, 192.0870020389557, 192.2038609981537, 192.32052612304688, 192.43752217292786, 192.55437707901, 192.6711390018463, 192.78766298294067, 192.9047122001648, 193.02136206626892, 193.13802218437195, 193.25508499145508, 193.37196016311646, 193.48866415023804, 193.71123600006104]	[189.60736785524463, 189.72403452190463, 190.70703452190463, 190.87373452190462, 191.62373452190462, 191.74040118856462, 191.8570678552246, 191.9737345218846, 192.0904011885446, 192.2070678552046, 192.3237345218646, 192.4404011885246, 192.55706785518458, 192.67373452184458, 192.79040118850457, 192.90706785516457, 193.02373452182457, 193.14040118848456, 193.25706785514456, 193.37373452180455, 193.49040118846455, 193.72373452179787]	2021_Feb_02_1732	59.93258430177313	1	0.375
21	33	FALSE	NA	a	['C', 'Z', 'Y', 'J', 'G', 'U', 'P', 'X', 'V', 'R', 'T', 'H', 'M', 'E', 'S', 'B']	[829, 2911, 2670, 1029, 944, 2059, 1456, 4000, 2245, 1587, 1888, 986, 1224, 904, 1731, 760]	8	Present	NA	NA	PRESENT	0.2625458240509033	195.70489501953125	197.71105003356936	198.29439123468245	198.64439338042965	201.82760310173035	4.116553068161011	[195.72413802146912, 195.84121298789978, 196.81093907356262, 196.99239802360535, 197.74309420585632, 197.85987401008606, 197.9766070842743, 198.09354305267334, 198.2101969718933, 198.32686018943787, 198.44358611106873, 198.5604531764984, 198.6773121356964, 198.7941541671753, 198.9110221862793, 199.02762699127197, 199.14463114738464, 199.26114702224731, 199.37816309928894, 199.49488711357117, 199.61169719696045, 199.82760310173035]	[195.72373452179787, 195.84040118845786, 196.82340118845786, 196.99010118845786, 197.74010118845786, 197.85676785511785, 197.97343452177785, 198.09010118843784, 198.20676785509784, 198.32343452175783, 198.44010118841783, 198.55676785507782, 198.67343452173782, 198.7901011883978, 198.9067678550578, 199.0234345217178, 199.1401011883778, 199.2567678550378, 199.3734345216978, 199.49010118835778, 199.60676785501778, 199.8401011883511]	2021_Feb_02_1732	59.93258430177313	1	0.375
21	34	FALSE	NN	a	['N', 'R', 'E', 'U', 'P', 'A', 'H', 'V', 'Y', 'M', 'W', 'G', 'B', 'S', 'K', 'T']	[1335, 1587, 904, 2059, 1456, 697, 986, 2245, 2670, 1224, 2448, 944, 760, 1731, 1122, 1888]	13	Absent	NA	NA	ABSENT	0.4118361473083496	201.82825994491577	203.82732486724856	204.99399868640592	205.3440005937345	207.9439702033997	4.116645336151123	[201.84750199317932, 201.96435618400574, 202.9272952079773, 203.11534905433655, 203.8663489818573, 203.9661180973053, 204.0829701423645, 204.19988298416138, 204.31649017333984, 204.43336701393127, 204.55004620552063, 204.66686701774597, 204.78360414505005, 204.9005310535431, 205.01738810539246, 205.13416004180908, 205.25078010559082, 205.36763405799866, 205.48448705673218, 205.60131812095642, 205.7180950641632, 205.94397020339966]	[201.8401011883511, 201.9567678550111, 202.9397678550111, 203.1064678550111, 203.8564678550111, 203.97313452167108, 204.08980118833108, 204.20646785499108, 204.32313452165107, 204.43980118831107, 204.55646785497106, 204.67313452163106, 204.78980118829105, 204.90646785495105, 205.02313452161104, 205.13980118827104, 205.25646785493103, 205.37313452159103, 205.48980118825102, 205.60646785491102, 205.723134521571, 205.95646785490433]	2021_Feb_02_1732	59.93258430177313	1	0.375
21	35	FALSE	NA	a	['Z', 'T', 'J', 'R', 'E', 'K', 'G', 'H', 'X', 'M', 'V', 'N', 'B', 'S', 'P', 'Y']	[2911, 1888, 1029, 1587, 904, 1122, 944, 986, 4000, 1224, 2245, 1335, 760, 1731, 1456, 2670]	9	Present	NA	NA	PRESENT	0.2724168300628662	207.93445706367493	209.9438209533691	210.64382786746793	210.99383001321516	214.06033611297607	4.116515159606934	[207.95369911193848, 208.07058906555176, 209.0436611175537, 209.22156810760498, 209.97244811058044, 210.08938717842102, 210.20605516433716, 210.32291913032532, 210.4397361278534, 210.55637216567993, 210.67318105697632, 210.79006505012512, 210.90674805641174, 211.02352619171143, 211.14047813415527, 211.25710606575012, 211.37407612800598, 211.49086213111877, 211.60768103599548, 211.72425317764282, 211.84122014045715, 212.06033611297607]	[207.95646785490433, 208.07313452156433, 209.05613452156433, 209.22283452156432, 209.97283452156432, 210.08950118822432, 210.2061678548843, 210.3228345215443, 210.4395011882043, 210.5561678548643, 210.6728345215243, 210.7895011881843, 210.90616785484428, 211.02283452150428, 211.13950118816427, 211.25616785482427, 211.37283452148426, 211.48950118814426, 211.60616785480426, 211.72283452146425, 211.83950118812425, 212.07283452145757]	2021_Feb_02_1732	59.93258430177313	1	0.375
21	36	FALSE	NV	a	['H', 'B', 'J', 'K', 'P', 'C', 'W', 'U', 'X', 'V', 'A', 'S', 'Z', 'E', 'M', 'N']	[986, 760, 1029, 1122, 1456, 829, 2448, 2059, 4000, 2245, 697, 1731, 2911, 904, 1224, 1335]	9	Present	NA	NA	PRESENT	0.12496304512023926	214.0578939914703	216.06028199195865	216.76028985973173	217.11029105180464	220.1767029762268	4.1164209842681885	[214.0771381855011, 214.1937210559845, 215.16003012657166, 215.34477615356445, 216.0957419872284, 216.2124581336975, 216.32917404174805, 216.44617319107056, 216.5629119873047, 216.67947816848755, 216.79639601707458, 216.91295504570007, 217.03000617027283, 217.14654111862183, 217.26352214813232, 217.3804051876068, 217.49695205688477, 217.6138939857483, 217.73068618774414, 217.84756207466125, 217.96428513526917, 218.1767029762268]	[214.07283452145757, 214.18950118811756, 215.17250118811756, 215.33920118811756, 216.08920118811756, 216.20586785477755, 216.32253452143755, 216.43920118809754, 216.55586785475754, 216.67253452141753, 216.78920118807753, 216.90586785473752, 217.02253452139752, 217.1392011880575, 217.2558678547175, 217.3725345213775, 217.4892011880375, 217.6058678546975, 217.7225345213575, 217.83920118801748, 217.95586785467748, 218.1892011880108]	2021_Feb_02_1732	59.93258430177313	1	0.375
21	37	FALSE	NN	a	['Z', 'T', 'R', 'S', 'C', 'G', 'V', 'U', 'E', 'W', 'Y', 'B', 'H', 'K', 'J', 'N']	[2911, 1888, 1587, 1731, 829, 944, 2245, 2059, 904, 2448, 2670, 760, 986, 1122, 1029, 1335]	13	Absent	NA	NA	ABSENT	0.6501350402832031	220.16392302513125	222.17670798301697	223.34338156375577	223.69338370950297	226.29307007789612	4.11636209487915	[220.18318605422974, 220.30007410049438, 221.27639317512512, 221.4511411190033, 222.20190906524658, 222.31889414787292, 222.43556714057922, 222.55253410339355, 222.66911101341248, 222.7860701084137, 222.9026620388031, 223.01951909065247, 223.13619208335876, 223.2529091835022, 223.3701150417328, 223.4865210056305, 223.60352516174316, 223.72010612487793, 223.83716106414795, 223.95391511917114, 224.07066416740417, 224.29307007789612]	[220.1892011880108, 220.3058678546708, 221.2888678546708, 221.4555678546708, 222.2055678546708, 222.32223452133078, 222.43890118799078, 222.55556785465077, 222.67223452131077, 222.78890118797077, 222.90556785463076, 223.02223452129076, 223.13890118795075, 223.25556785461075, 223.37223452127074, 223.48890118793074, 223.60556785459073, 223.72223452125073, 223.83890118791072, 223.95556785457072, 224.0722345212307, 224.30556785456403]	2021_Feb_02_1732	59.93258430177313	1	0.375
21	38	FALSE	AN	a	['C', 'B', 'S', 'Y', 'Z', 'A', 'G', 'surprise', 'E', 'H', 'K', 'T', 'W', 'R', 'U', 'N']	[829, 760, 1731, 2670, 2911, 697, 944, 'stimAuditory/all_stimAuditory/224.wav', 904, 986, 1122, 1888, 2448, 1587, 2059, 1335]	11	Absent	stimAuditory/all_stimAuditory/204.wav	NA	ABSENT	0.4308960437774658	226.28693795204163	228.29294085502625	229.22628229453792	229.57628420186657	232.40943598747253	4.116495132446289	[226.30618119239807, 226.42320799827576, 227.39276099205017, 227.57424020767212, 228.3250651359558, 228.44182419776917, 228.55878114700317, 228.67554807662964, 228.79238510131836, 228.90922117233276, 229.02594900131226, 229.1424491405487, 229.25943613052368, 229.37627410888672, 229.4930989742279, 229.6098530292511, 229.7265989780426, 229.8433780670166, 229.96024918556213, 230.07691097259521, 230.19370198249817, 230.40943598747253]	[226.30556785456403, 226.42223452122403, 227.40523452122403, 227.57193452122402, 228.32193452122402, 228.43860118788402, 228.555267854544, 228.671934521204, 228.788601187864, 228.905267854524, 229.021934521184, 229.138601187844, 229.25526785450398, 229.37193452116398, 229.48860118782397, 229.60526785448397, 229.72193452114396, 229.83860118780396, 229.95526785446395, 230.07193452112395, 230.18860118778395, 230.42193452111727]	2021_Feb_02_1732	59.93258430177313	1	0.375
21	39	FALSE	NA	a	['P', 'J', 'N', 'A', 'E', 'H', 'G', 'T', 'X', 'Y', 'W', 'S', 'R', 'C', 'M', 'K']	[1456, 1029, 1335, 697, 904, 986, 944, 1888, 4000, 2670, 2448, 1731, 1587, 829, 1224, 1122]	9	Present	NA	NA	PRESENT	0.32428407669067383	232.41023588180545	234.4091749191284	235.1091830253201	235.45918493264875	238.52580404281616	4.116629123687744	[232.42947912216187, 232.54625010490417, 233.5091290473938, 233.68088006973267, 234.44810104370117, 234.54819011688232, 234.66492199897766, 234.781720161438, 234.89851117134094, 235.01548600196838, 235.13241720199585, 235.24879908561707, 235.36573314666748, 235.48268818855286, 235.59942197799683, 235.71630120277405, 235.83288407325745, 235.9498450756073, 236.06653714179993, 236.18339610099792, 236.3002212047577, 236.52580308914185]	[232.42193452111727, 232.53860118777726, 233.52160118777726, 233.68830118777726, 234.43830118777726, 234.55496785443725, 234.67163452109725, 234.78830118775724, 234.90496785441724, 235.02163452107723, 235.13830118773723, 235.25496785439722, 235.37163452105722, 235.4883011877172, 235.6049678543772, 235.7216345210372, 235.8383011876972, 235.9549678543572, 236.0716345210172, 236.18830118767718, 236.30496785433718, 236.5383011876705]	2021_Feb_02_1732	59.93258430177313	1	0.375
21	40	FALSE	NA	a	['J', 'E', 'T', 'R', 'U', 'W', 'Y', 'C', 'X', 'V', 'B', 'G', 'S', 'M', 'Z', 'A']	[1029, 904, 1888, 1587, 2059, 2448, 2670, 829, 4000, 2245, 760, 944, 1731, 1224, 2911, 697]	9	Present	NA	NA	ABSENT	0.4088139533996582	238.5165388584137	240.52564692497253	241.22565503116425	241.57565598481855	244.64216899871823	4.1165220737457275	[238.53578114509583, 238.65271306037903, 239.6254940032959, 239.80398297309875, 240.55445218086243, 240.67131805419922, 240.78834009170532, 240.90502405166626, 241.02175998687744, 241.13873505592346, 241.25535202026367, 241.37228417396545, 241.48897004127502, 241.6057071685791, 241.72249507904053, 241.839191198349, 241.95611214637756, 242.07285118103027, 242.18954300880432, 242.3065710067749, 242.42332005500793, 242.64216899871826]	[238.5383011876705, 238.6549678543305, 239.6379678543305, 239.8046678543305, 240.5546678543305, 240.67133452099048, 240.78800118765048, 240.90466785431047, 241.02133452097047, 241.13800118763046, 241.25466785429046, 241.37133452095046, 241.48800118761045, 241.60466785427045, 241.72133452093044, 241.83800118759044, 241.95466785425043, 242.07133452091043, 242.18800118757042, 242.30466785423042, 242.4213345208904, 242.65466785422373]	2021_Feb_02_1732	59.93258430177313	1	0.375
21	41	FALSE	NV	a	['S', 'B', 'J', 'H', 'A', 'E', 'V', 'X', 'G', 'W', 'M', 'C', 'P', 'K', 'N', 'U']	[1731, 760, 1029, 986, 697, 904, 2245, 4000, 944, 2448, 1224, 829, 1456, 1122, 1335, 2059]	8	Present	NA	NA	PRESENT	0.1181340217590332	244.63997292518616	246.6417970657349	247.225138266848	247.5751401741766	250.75853610038757	4.11673903465271	[244.6592149734497, 244.77573108673096, 245.74186205863953, 245.92706513404846, 246.67773699760437, 246.79461812973022, 246.9112241268158, 247.02821516990662, 247.1448471546173, 247.2617211341858, 247.37849116325378, 247.4951310157776, 247.61202907562256, 247.72887110710144, 247.84548211097717, 247.9624400138855, 248.07922315597534, 248.19605708122253, 248.3125569820404, 248.42956113815308, 248.54642009735107, 248.75853610038757]	[244.65466785422373, 244.77133452088373, 245.75433452088373, 245.92103452088372, 246.67103452088372, 246.78770118754372, 246.9043678542037, 247.0210345208637, 247.1377011875237, 247.2543678541837, 247.3710345208437, 247.4877011875037, 247.60436785416368, 247.72103452082368, 247.83770118748367, 247.95436785414367, 248.07103452080366, 248.18770118746366, 248.30436785412365, 248.42103452078365, 248.53770118744364, 248.77103452077696]	2021_Feb_02_1732	59.93258430177313	1	0.375
21	42	FALSE	NA	a	['G', 'R', 'E', 'H', 'T', 'C', 'K', 'J', 'Z', 'S', 'Y', 'X', 'N', 'V', 'B', 'U']	[944, 1587, 904, 986, 1888, 829, 1122, 1029, 2911, 1731, 2670, 4000, 1335, 2245, 760, 2059]	12	Present	NA	NA	ABSENT	0.4904360771179199	250.74594593048096	252.75833988189697	253.80834703439436	254.1583498953973	256.8749041557312	4.1165642738342285	[250.7651879787445, 250.8821370601654, 251.85823011398315, 252.0331301689148, 252.7840690612793, 252.90104007720947, 253.01757907867432, 253.13446807861328, 253.25120210647583, 253.3679211139679, 253.48489499092102, 253.60174107551575, 253.71826720237732, 253.83524918556213, 253.95200109481812, 254.06860518455505, 254.18562507629395, 254.3025200366974, 254.4191792011261, 254.53600120544434, 254.652822971344, 254.8749041557312]	[250.77103452077696, 250.88770118743696, 251.87070118743696, 252.03740118743696, 252.78740118743696, 252.90406785409695, 253.02073452075695, 253.13740118741694, 253.25406785407694, 253.37073452073693, 253.48740118739693, 253.60406785405692, 253.72073452071692, 253.8374011873769, 253.9540678540369, 254.0707345206969, 254.1874011873569, 254.3040678540169, 254.4207345206769, 254.53740118733688, 254.65406785399688, 254.8874011873302]	2021_Feb_02_1732	59.93258430177313	1	0.375
21	43	FALSE	NA	a	['S', 'U', 'K', 'W', 'G', 'R', 'Y', 'T', 'B', 'X', 'J', 'V', 'Z', 'A', 'M', 'H']	[1731, 2059, 1122, 2448, 944, 1587, 2670, 1888, 760, 4000, 1029, 2245, 2911, 697, 1224, 986]	10	Present	NA	NA	ABSENT	0.575268030166626	256.86925888061523	258.874883890152	259.69155770932935	260.041559616658	262.9912691116333	4.116385221481323	[256.88850116729736, 257.00503516197205, 257.97459506988525, 258.15637016296387, 258.90713715553284, 259.0238711833954, 259.14070320129395, 259.25764298439026, 259.37441897392273, 259.4912610054016, 259.60801219940186, 259.72484707832336, 259.8415870666504, 259.958300113678, 260.0751721858978, 260.19195008277893, 260.30871510505676, 260.4255051612854, 260.5422639846802, 260.6589369773865, 260.7758741378784, 260.9912700653076]	[256.88740118733017, 257.0040678539902, 257.9870678539902, 258.1537678539902, 258.9037678539902, 259.0204345206502, 259.13710118731024, 259.25376785397026, 259.3704345206303, 259.4871011872903, 259.60376785395033, 259.72043452061035, 259.8371011872704, 259.9537678539304, 260.0704345205904, 260.18710118725045, 260.3037678539105, 260.4204345205705, 260.5371011872305, 260.65376785389054, 260.77043452055057, 261.0037678538839]	2021_Feb_02_1732	59.93258430177313	1	0.375
21	44	FALSE	NA	a	['P', 'H', 'A', 'R', 'Z', 'C', 'W', 'V', 'N', 'K', 'J', 'E', 'T', 'X', 'S', 'Y']	[1456, 986, 697, 1587, 2911, 829, 2448, 2245, 1335, 1122, 1029, 904, 1888, 4000, 1731, 2670]	14	Present	NA	NA	PRESENT	0.46048521995544434	262.9923310279846	264.9911298751831	266.2744722683491	266.62447417567773	269.10763597488403	4.116506099700928	[263.01157212257385, 263.12839102745056, 264.0909631252289, 264.2626860141754, 265.03067207336426, 265.13022017478943, 265.24701499938965, 265.3640971183777, 265.48066115379333, 265.5975902080536, 265.7142460346222, 265.8312191963196, 265.94782304763794, 266.0647041797638, 266.18133997917175, 266.2983260154724, 266.41510009765625, 266.53170108795166, 266.64861702919006, 266.7654311656952, 266.8823070526123, 267.10763716697693]	[263.0037678538839, 263.12043452054394, 264.10343452054394, 264.27013452054393, 265.02013452054393, 265.13680118720396, 265.253467853864, 265.370134520524, 265.486801187184, 265.60346785384405, 265.7201345205041, 265.8368011871641, 265.9534678538241, 266.07013452048415, 266.18680118714417, 266.3034678538042, 266.4201345204642, 266.53680118712424, 266.65346785378426, 266.7701345204443, 266.8868011871043, 267.12013452043766]	2021_Feb_02_1732	59.93258430177313	1	0.375
21	45	FALSE	NA	a	['M', 'B', 'J', 'R', 'U', 'A', 'E', 'T', 'V', 'X', 'K', 'Z', 'S', 'P', 'C', 'N']	[1224, 760, 1029, 1587, 2059, 697, 904, 1888, 2245, 4000, 1122, 2911, 1731, 1456, 829, 1335]	10	Present	NA	NA	PRESENT	0.11302590370178224	269.0985839366913	271.1074638366699	271.9241376558473	272.27413956317594	275.22400307655334	4.116539239883423	[269.1178390979767, 269.23481011390686, 270.20732617378235, 270.3860490322113, 271.1366400718689, 271.2533760070801, 271.37034797668457, 271.486967086792, 271.60375714302063, 271.7204689979553, 271.83747816085815, 271.95411014556885, 272.0709161758423, 272.1875891685486, 272.304603099823, 272.42116713523865, 272.5381860733032, 272.65488505363464, 272.77160716056824, 272.8885660171509, 273.0053870677948, 273.22400307655334]	[269.12013452043766, 269.2368011870977, 270.2198011870977, 270.3865011870977, 271.1365011870977, 271.2531678537577, 271.3698345204177, 271.48650118707775, 271.6031678537378, 271.7198345203978, 271.8365011870578, 271.95316785371784, 272.06983452037787, 272.1865011870379, 272.3031678536979, 272.41983452035794, 272.53650118701796, 272.653167853678, 272.769834520338, 272.88650118699803, 273.00316785365806, 273.2365011869914]	2021_Feb_02_1732	59.93258430177313	1	0.375
21	46	FALSE	NA	a	['U', 'Y', 'S', 'Z', 'M', 'E', 'G', 'K', 'T', 'V', 'X', 'P', 'R', 'A', 'J', 'B']	[2059, 2670, 1731, 2911, 1224, 904, 944, 1122, 1888, 2245, 4000, 1456, 1587, 697, 1029, 760]	11	Present	NA	NA	PRESENT	0.11052918434143066	275.22200083732605	277.223669052124	278.15701025321715	278.5070123989643	281.34036898612976	4.116699934005737	[275.2412440776825, 275.3576581478119, 276.3236951828003, 276.5090250968933, 277.25982999801636, 277.37638998031616, 277.4932961463928, 277.61000418663025, 277.7270669937134, 277.8438181877136, 277.9606521129608, 278.0774881839752, 278.19401502609253, 278.3108620643616, 278.42772817611694, 278.5444130897522, 278.6611089706421, 278.7780930995941, 278.8949580192566, 279.0115900039673, 279.11155104637146, 279.34036898612976]	[275.2365011869914, 275.3531678536514, 276.33616785365143, 276.5028678536514, 277.2528678536514, 277.36953452031145, 277.48620118697147, 277.6028678536315, 277.7195345202915, 277.83620118695154, 277.95286785361156, 278.0695345202716, 278.1862011869316, 278.30286785359164, 278.41953452025166, 278.5362011869117, 278.6528678535717, 278.76953452023173, 278.88620118689175, 279.0028678535518, 279.1195345202118, 279.35286785354515]	2021_Feb_02_1732	59.93258430177313	1	0.375
21	47	FALSE	NA	a	['E', 'R', 'N', 'P', 'J', 'W', 'K', 'Z', 'G', 'X', 'B', 'C', 'H', 'M', 'T', 'S']	[904, 1587, 1335, 1456, 1029, 2448, 1122, 2911, 944, 4000, 760, 829, 986, 1224, 1888, 1731]	10	Present	NA	NA	ABSENT	0.3308429718017578	281.3280358314514	283.34000992774963	284.1566847006013	284.50668660792996	287.4567370414734	4.116727113723755	[281.34727811813354, 281.46428203582764, 282.4400591850281, 282.6152181625366, 283.3660361766815, 283.4829771518707, 283.59960412979126, 283.716628074646, 283.83348202705383, 283.9500091075897, 284.0669159889221, 284.18371200561523, 284.3007969856262, 284.41726207733154, 284.5341041088104, 284.65081310272217, 284.76775598526, 284.8843410015106, 285.00126910209656, 285.1178951263428, 285.2348442077637, 285.4567370414734]	[281.35286785354515, 281.4695345202052, 282.4525345202052, 282.61923452020517, 283.36923452020517, 283.4859011868652, 283.6025678535252, 283.71923452018524, 283.83590118684526, 283.9525678535053, 284.0692345201653, 284.18590118682533, 284.30256785348536, 284.4192345201454, 284.5359011868054, 284.6525678534654, 284.76923452012545, 284.8859011867855, 285.0025678534455, 285.1192345201055, 285.23590118676555, 285.4692345200989]	2021_Feb_02_1732	59.93258430177313	1	0.375
21	48	FALSE	NV	a	['E', 'K', 'W', 'Y', 'M', 'A', 'V', 'U', 'S', 'X', 'T', 'H', 'P', 'R', 'B', 'G']	[904, 1122, 2448, 2670, 1224, 697, 2245, 2059, 1731, 4000, 1888, 986, 1456, 1587, 760, 944]	10	Present	NA	NA	PRESENT	0.04745793342590332	287.4510979652405	289.45648193359375	290.27315670644543	290.6231586137741	293.5731031894684	4.116621255874634	[287.470340013504, 287.58719515800476, 288.55642914772034, 288.7385640144348, 289.48921608924866, 289.6059811115265, 289.72270011901855, 289.8396291732788, 289.9565200805664, 290.07330417633057, 290.19003200531006, 290.30667901039124, 290.4237310886383, 290.5404829978943, 290.65723299980164, 290.77376914024353, 290.8907811641693, 291.0074541568756, 291.12433910369873, 291.2410750389099, 291.35781598091125, 291.5731041431427]	[287.4692345200989, 287.5859011867589, 288.5689011867589, 288.7356011867589, 289.4856011867589, 289.60226785341894, 289.71893452007896, 289.835601186739, 289.952267853399, 290.06893452005903, 290.18560118671905, 290.3022678533791, 290.4189345200391, 290.5356011866991, 290.65226785335915, 290.7689345200192, 290.8856011866792, 291.0022678533392, 291.11893451999924, 291.23560118665927, 291.3522678533193, 291.58560118665264]	2021_Feb_02_1732	59.93258430177313	1	0.375
21	49	FALSE	NV	a	['R', 'H', 'M', 'S', 'Z', 'W', 'U', 'Y', 'X', 'T', 'V', 'N', 'B', 'C', 'P', 'G']	[1587, 986, 1224, 1731, 2911, 2448, 2059, 2670, 4000, 1888, 2245, 1335, 760, 829, 1456, 944]	9	Present	NA	NA	ABSENT	0.15653109550476074	293.5743749141693	295.5730040073395	296.2730109214383	296.62301306718547	299.6894700527191	4.116466045379639	[293.59361720085144, 293.71046209335327, 294.67279410362244, 294.84498500823975, 295.6122031211853, 295.7124981880188, 295.8291130065918, 295.9459969997406, 296.0629241466522, 296.1796669960022, 296.2963650226593, 296.41332507133484, 296.52994418144226, 296.6467339992523, 296.76357316970825, 296.8802320957184, 296.9971160888672, 297.1139361858368, 297.2308042049408, 297.34736609458923, 297.4642810821533, 297.6894690990448]	[293.58560118665264, 293.70226785331266, 294.68526785331267, 294.85196785331266, 295.60196785331266, 295.7186345199727, 295.8353011866327, 295.95196785329273, 296.06863451995275, 296.1853011866128, 296.3019678532728, 296.4186345199328, 296.53530118659285, 296.65196785325287, 296.7686345199129, 296.8853011865729, 297.00196785323294, 297.11863451989296, 297.235301186553, 297.351967853213, 297.46863451987304, 297.7019678532064]	2021_Feb_02_1732	59.93258430177313	1	0.375
21	50	FALSE	AV	a	['P', 'C', 'A', 'E', 'V', 'Z', 'surprise', 'W', 'N', 'X', 'H', 'K', 'B', 'Y', 'M', 'J']	[1456, 829, 697, 904, 2245, 2911, 'stimAuditory/all_stimAuditory/223.wav', 2448, 1335, 4000, 986, 1122, 760, 2670, 1224, 1029]	10	Present	stimAuditory/all_stimAuditory/208.wav	NA	PRESENT	0.17720508575439453	299.6806209087372	301.6894829273224	302.50615770017407	302.8561596075027	305.8058371543884	4.11635422706604	[299.6998631954193, 299.81660413742065, 300.7891640663147, 300.9678041934967, 301.71865797042847, 301.83538699150085, 301.9522371292114, 302.0691521167755, 302.18595004081726, 302.3025441169739, 302.41958713531494, 302.53618717193604, 302.6532599925995, 302.76997208595276, 302.8868160247803, 303.00338411331177, 303.12029218673706, 303.23694610595703, 303.35390400886536, 303.47069811820984, 303.5872881412506, 303.80583810806274]	[299.7019678532064, 299.8186345198664, 300.8016345198664, 300.9683345198664, 301.7183345198664, 301.8350011865264, 301.95166785318645, 302.0683345198465, 302.1850011865065, 302.3016678531665, 302.41833451982654, 302.53500118648657, 302.6516678531466, 302.7683345198066, 302.88500118646664, 303.00166785312666, 303.1183345197867, 303.2350011864467, 303.35166785310673, 303.46833451976676, 303.5850011864268, 303.8183345197601]	2021_Feb_02_1732	59.93258430177313	1	0.375
21	51	FALSE	NA	a	['J', 'K', 'C', 'R', 'G', 'E', 'B', 'X', 'W', 'Y', 'T', 'N', 'U', 'Z', 'P', 'S']	[1029, 1122, 829, 1587, 944, 904, 760, 4000, 2448, 2670, 1888, 1335, 2059, 2911, 1456, 1731]	8	Present	NA	NA	PRESENT	0.19867181777954104	305.80414295196533	307.8054909706116	308.38883121805037	308.7388333637976	311.92220306396484	4.1167120933532715	[305.8233850002289, 305.93979120254517, 306.90552520751953, 307.09113597869873, 307.8417820930481, 307.95866203308105, 308.07558608055115, 308.1921811103821, 308.30882000923157, 308.4257390499115, 308.5425000190735, 308.65945315361023, 308.7762930393219, 308.89311718940735, 309.00966811180115, 309.1265070438385, 309.2433559894562, 309.35995411872864, 309.46002101898193, 309.576847076416, 309.693598985672, 309.92220306396484]	[305.8183345197601, 305.93500118642015, 306.91800118642016, 307.08470118642015, 307.83470118642015, 307.95136785308017, 308.0680345197402, 308.1847011864002, 308.30136785306024, 308.41803451972027, 308.5347011863803, 308.6513678530403, 308.76803451970034, 308.88470118636036, 309.0013678530204, 309.1180345196804, 309.23470118634043, 309.35136785300045, 309.4680345196605, 309.5847011863205, 309.7013678529805, 309.9347011863139]	2021_Feb_02_1732	59.93258430177313	1	0.375
21	52	FALSE	NA	a	['U', 'S', 'Y', 'P', 'R', 'C', 'H', 'K', 'V', 'W', 'T', 'B', 'N', 'X', 'J', 'M']	[2059, 1731, 2670, 1456, 1587, 829, 986, 1122, 2245, 2448, 1888, 760, 1335, 4000, 1029, 1224]	14	Present	NA	NA	PRESENT	0.35507798194885254	311.9100069999695	313.92208099365234	315.2054212410511	315.55542338679834	318.03856897354126	4.116487979888916	[311.92924904823303, 312.04619812965393, 313.0218939781189, 313.1974220275879, 313.94818115234375, 314.0649411678314, 314.1816871166229, 314.29858899116516, 314.41544914245605, 314.5323371887207, 314.64907002449036, 314.765732049942, 314.88272404670715, 314.9992949962616, 315.1162431240082, 315.2328929901123, 315.3500499725342, 315.4664771556854, 315.5833730697632, 315.6999590396881, 315.81677508354187, 316.03856897354126]	[311.9347011863139, 312.0513678529739, 313.0343678529739, 313.2010678529739, 313.9510678529739, 314.0677345196339, 314.18440118629394, 314.30106785295396, 314.417734519614, 314.534401186274, 314.65106785293403, 314.76773451959406, 314.8844011862541, 315.0010678529141, 315.1177345195741, 315.23440118623415, 315.3510678528942, 315.4677345195542, 315.5844011862142, 315.70106785287425, 315.81773451953427, 316.0510678528676]	2021_Feb_02_1732	59.93258430177313	1	0.375
21	53	FALSE	VA	a	['B', 'M', 'G', 'P', 'Y', 'R', 'J', 'surprise', 'Z', 'W', 'X', 'V', 'S', 'T', 'E', 'H']	[760, 1224, 944, 1456, 2670, 1587, 1029, 'stimAuditory/all_stimAuditory/112.wav', 2911, 2448, 4000, 2245, 1731, 1888, 904, 986]	11	Present	NA	NA	PRESENT	0.751723051071167	318.0333819389343	320.0383138656616	320.97165530517333	321.3216572125019	324.15493607521057	4.11662220954895	[318.0526239871979, 318.1694140434265, 319.1382610797882, 319.32059717178345, 320.07135915756226, 320.18804717063904, 320.30483508110046, 320.4216501712799, 320.5385880470276, 320.6552550792694, 320.77216601371765, 320.88882207870483, 321.00559520721436, 321.1225321292877, 321.23933005332947, 321.3561661243439, 321.47276306152344, 321.58958315849304, 321.70645213127136, 321.8232522010803, 321.93987798690796, 322.15493607521057]	[318.0510678528676, 318.16773451952764, 319.15073451952765, 319.31743451952764, 320.06743451952764, 320.18410118618766, 320.3007678528477, 320.4174345195077, 320.53410118616773, 320.65076785282776, 320.7674345194878, 320.8841011861478, 321.0007678528078, 321.11743451946785, 321.2341011861279, 321.3507678527879, 321.4674345194479, 321.58410118610794, 321.70076785276797, 321.817434519428, 321.934101186088, 322.16743451942136]	2021_Feb_02_1732	59.93258430177313	1	0.375
21	54	FALSE	NN	a	['P', 'K', 'Z', 'Y', 'T', 'V', 'U', 'B', 'N', 'E', 'W', 'G', 'R', 'S', 'H', 'M']	[1456, 1122, 2911, 2670, 1888, 2245, 2059, 760, 1335, 904, 2448, 944, 1587, 1731, 986, 1224]	10	Absent	NA	NA	ABSENT	0.15679597854614258	324.15645003318787	326.1547360420227	326.9714096227815	327.32141153011014	330.2713041305542	4.116568088531494	[324.1756920814514, 324.29240918159485, 325.2546269893646, 325.42710304260254, 326.19439697265625, 326.29451513290405, 326.41145515441895, 326.5280501842499, 326.6448640823364, 326.7617371082306, 326.8785650730133, 326.9951481819153, 327.11209416389465, 327.2287220954895, 327.34573197364807, 327.462345123291, 327.57933807373047, 327.6958541870117, 327.812863111496, 327.92968106269836, 328.04635405540466, 328.2713031768799]	[324.16743451942136, 324.2841011860814, 325.2671011860814, 325.4338011860814, 326.1838011860814, 326.3004678527414, 326.41713451940143, 326.53380118606145, 326.6504678527215, 326.7671345193815, 326.8838011860415, 327.00046785270155, 327.11713451936157, 327.2338011860216, 327.3504678526816, 327.46713451934164, 327.58380118600166, 327.7004678526617, 327.8171345193217, 327.93380118598174, 328.05046785264176, 328.2838011859751]	2021_Feb_02_1732	59.93258430177313	1	0.375
21	55	FALSE	NV	a	['S', 'J', 'G', 'T', 'N', 'R', 'Y', 'K', 'U', 'X', 'W', 'P', 'H', 'B', 'E', 'M']	[1731, 1029, 944, 1888, 1335, 1587, 2670, 1122, 2059, 4000, 2448, 1456, 986, 760, 904, 1224]	10	Present	NA	NA	ABSENT	0.6175689697265625	330.26280784606934	332.27104783058167	333.08772260343335	333.437724510762	336.3876690864563	4.116621255874634	[330.28205013275146, 330.3988621234894, 331.37099599838257, 331.55010509490967, 332.3007860183716, 332.4176700115204, 332.5344400405884, 332.6510419845581, 332.7679979801178, 332.8849050998688, 333.0017240047455, 333.1183240413666, 333.2350330352783, 333.35204100608826, 333.46887016296387, 333.5855801105499, 333.70239520072937, 333.81915307044983, 333.93567514419556, 334.0525321960449, 334.16944098472595, 334.38767099380493]	[330.2838011859751, 330.40046785263513, 331.38346785263514, 331.5501678526351, 332.3001678526351, 332.41683451929515, 332.5335011859552, 332.6501678526152, 332.7668345192752, 332.88350118593524, 333.00016785259527, 333.1168345192553, 333.2335011859153, 333.35016785257534, 333.46683451923536, 333.5835011858954, 333.7001678525554, 333.81683451921543, 333.93350118587546, 334.0501678525355, 334.1668345191955, 334.40016785252885]	2021_Feb_02_1732	59.93258430177313	1	0.375
21	56	FALSE	NA	a	['V', 'Y', 'C', 'P', 'N', 'G', 'U', 'X', 'R', 'H', 'W', 'K', 'T', 'M', 'A', 'B']	[2245, 2670, 829, 1456, 1335, 944, 2059, 4000, 1587, 986, 2448, 1122, 1888, 1224, 697, 760]	8	Present	NA	NA	PRESENT	0.19897794723510745	336.38626503944397	338.38755083084106	338.97089227037276	339.3208941777014	342.5040361881256	4.116485357284546	[336.40550804138184, 336.5218331813812, 337.4873631000519, 337.67319107055664, 338.4239320755005, 338.54064416885376, 338.6574261188507, 338.77429604530334, 338.89128017425537, 339.007936000824, 339.1247470378876, 339.2414240837097, 339.3583149909973, 339.4751660823822, 339.5749990940094, 339.6917941570282, 339.8086121082306, 339.9254050254822, 340.04210209846497, 340.158851146698, 340.2757661342621, 340.5040371417999]	[336.40016785252885, 336.5168345191889, 337.4998345191889, 337.6665345191889, 338.4165345191889, 338.5332011858489, 338.6498678525089, 338.76653451916894, 338.88320118582897, 338.999867852489, 339.116534519149, 339.23320118580904, 339.34986785246906, 339.4665345191291, 339.5832011857891, 339.69986785244913, 339.81653451910915, 339.9332011857692, 340.0498678524292, 340.1665345190892, 340.28320118574925, 340.5165345190826]	2021_Feb_02_1732	59.93258430177313	1	0.375
21	57	FALSE	NA	a	['H', 'S', 'C', 'M', 'T', 'A', 'B', 'X', 'Y', 'E', 'J', 'R', 'Z', 'G', 'W', 'P']	[986, 1731, 829, 1224, 1888, 697, 760, 4000, 2670, 904, 1029, 1587, 2911, 944, 2448, 1456]	8	Present	NA	NA	PRESENT	0.3392660617828369	342.49236488342285	344.504075050354	345.08741720514143	345.43741935088866	348.62040400505066	4.116328954696655	[342.5116081237793, 342.62828302383423, 343.6037290096283, 343.77948117256165, 344.53029203414917, 344.6472079753876, 344.76384019851685, 344.88080620765686, 344.99746108055115, 345.114196062088, 345.2310981750488, 345.3477690219879, 345.4647080898285, 345.58132219314575, 345.69833111763, 345.8149790763855, 345.9317240715027, 346.04875802993774, 346.1654200553894, 346.2821350097656, 346.39927911758423, 346.62040305137634]	[342.5165345190826, 342.6332011857426, 343.6162011857426, 343.7829011857426, 344.5329011857426, 344.64956785240264, 344.76623451906266, 344.8829011857227, 344.9995678523827, 345.11623451904273, 345.23290118570276, 345.3495678523628, 345.4662345190228, 345.58290118568283, 345.69956785234285, 345.8162345190029, 345.9329011856629, 346.0495678523229, 346.16623451898295, 346.28290118564297, 346.399567852303, 346.63290118563634]	2021_Feb_02_1732	59.93258430177313	1	0.375
21	58	FALSE	NV	a	['J', 'K', 'Y', 'B', 'Z', 'T', 'E', 'P', 'G', 'X', 'M', 'U', 'S', 'H', 'V', 'C']	[1029, 1122, 2670, 760, 2911, 1888, 904, 1456, 944, 4000, 1224, 2059, 1731, 986, 2245, 829]	10	Present	NA	NA	ABSENT	0.4239890575408935	348.61532497406006	350.62018299102783	351.43685752546094	351.78685967120816	354.73677015304565	4.116587162017822	[348.6345670223236, 348.7515070438385, 349.7200930118561, 349.9027330875397, 350.65338611602783, 350.77019715309143, 350.88702416419983, 351.003858089447, 351.1206979751587, 351.23732805252075, 351.35403418540955, 351.4709961414337, 351.587769985199, 351.7046241760254, 351.82121419906616, 351.9382390975952, 352.05505204200745, 352.1717870235443, 352.28848004341125, 352.40529704093933, 352.52208614349365, 352.73677015304565]	[348.63290118563634, 348.74956785229637, 349.73256785229637, 349.89926785229636, 350.64926785229636, 350.7659345189564, 350.8826011856164, 350.99926785227643, 351.11593451893646, 351.2326011855965, 351.3492678522565, 351.4659345189165, 351.58260118557655, 351.6992678522366, 351.8159345188966, 351.9326011855566, 352.04926785221664, 352.16593451887667, 352.2826011855367, 352.3992678521967, 352.51593451885674, 352.7492678521901]	2021_Feb_02_1732	59.93258430177313	1	0.375
21	59	FALSE	NV	a	['A', 'B', 'H', 'K', 'Z', 'J', 'C', 'G', 'T', 'Y', 'P', 'X', 'V', 'E', 'M', 'S']	[697, 760, 986, 1122, 2911, 1029, 829, 944, 1888, 2670, 1456, 4000, 2245, 904, 1224, 1731]	12	Present	NA	NA	ABSENT	0.2531750202178955	354.7386329174042	356.7365970611572	357.7866049289103	358.13660683623897	360.85313606262207	4.116539001464844	[354.7578752040863, 354.8744502067566, 355.8364610671997, 356.0089900493622, 356.7768301963806, 356.87638115882874, 356.99336218833923, 357.11010003089905, 357.22692799568176, 357.3438720703125, 357.46059799194336, 357.577290058136, 357.69422817230225, 357.81082797050476, 357.9278700351715, 358.04445719718933, 358.1614680290222, 358.2780680656433, 358.39502000808716, 358.5116469860077, 358.62842297554016, 358.8531370162964]	[354.7492678521901, 354.8659345188501, 355.8489345188501, 356.0156345188501, 356.7656345188501, 356.88230118551013, 356.99896785217015, 357.1156345188302, 357.2323011854902, 357.3489678521502, 357.46563451881025, 357.58230118547027, 357.6989678521303, 357.8156345187903, 357.93230118545034, 358.04896785211037, 358.1656345187704, 358.2823011854304, 358.39896785209044, 358.51563451875046, 358.6323011854105, 358.86563451874383]	2021_Feb_02_1732	59.93258430177313	1	0.375
21	60	FALSE	NV	a	['N', 'W', 'T', 'H', 'S', 'P', 'M', 'E', 'J', 'V', 'X', 'C', 'A', 'Y', 'G', 'Z']	[1335, 2448, 1888, 986, 1731, 1456, 1224, 904, 1029, 2245, 4000, 829, 697, 2670, 944, 2911]	11	Present	NA	NA	PRESENT	1.0657320022583008	360.84485602378845	362.8529269695282	363.7862681706213	364.1362703163685	366.9695031642914	4.116576194763184	[360.8640990257263, 360.9810199737549, 361.9528269767761, 362.13216614723206, 362.88291907310486, 362.9995970726013, 363.1165540218353, 363.23320508003235, 363.3501901626587, 363.46679401397705, 363.58377504348755, 363.70045709609985, 363.81733417510986, 363.9340760707855, 364.05072712898254, 364.16762614250183, 364.28458619117737, 364.4010410308838, 364.5180721282959, 364.6347191333771, 364.75135707855225, 364.9695041179657]	[360.86563451874383, 360.98230118540386, 361.96530118540386, 362.13200118540385, 362.88200118540385, 362.9986678520639, 363.1153345187239, 363.2320011853839, 363.34866785204395, 363.46533451870397, 363.582001185364, 363.698667852024, 363.81533451868404, 363.93200118534406, 364.0486678520041, 364.1653345186641, 364.28200118532413, 364.39866785198416, 364.5153345186442, 364.6320011853042, 364.7486678519642, 364.9820011852976]	2021_Feb_02_1732	59.93258430177313	1	0.375
21	61	FALSE	NA	a	['C', 'P', 'R', 'Z', 'M', 'K', 'W', 'X', 'T', 'U', 'A', 'V', 'E', 'S', 'N', 'B']	[829, 1456, 1587, 2911, 1224, 1122, 2448, 4000, 1888, 2059, 697, 2245, 904, 1731, 1335, 760]	8	Present	NA	NA	ABSENT	0.09518980979919434	366.9680850505829	368.9692299365998	369.5525713761314	369.90257232978576	373.0858690738678	4.116639137268066	[366.98732805252075, 367.1040589809418, 368.0691921710968, 368.25511503219604, 369.00603914260864, 369.1227810382843, 369.23953199386597, 369.3563611507416, 369.47299003601074, 369.5900421142578, 369.70661997795105, 369.8237190246582, 369.94021010398865, 370.05717515945435, 370.1570551395416, 370.2739281654358, 370.39065504074097, 370.50745010375977, 370.6242690086365, 370.7410650253296, 370.8578350543976, 371.0858690738678]	[366.9820011852976, 367.0986678519576, 368.0816678519576, 368.2483678519576, 368.9983678519576, 369.1150345186176, 369.23170118527764, 369.34836785193767, 369.4650345185977, 369.5817011852577, 369.69836785191774, 369.81503451857776, 369.9317011852378, 370.0483678518978, 370.16503451855783, 370.28170118521786, 370.3983678518779, 370.5150345185379, 370.6317011851979, 370.74836785185795, 370.865034518518, 371.0983678518513]	2021_Feb_02_1732	59.93258430177313	1	0.375
21	62	FALSE	NN	a	['P', 'N', 'W', 'H', 'G', 'M', 'U', 'B', 'R', 'V', 'J', 'E', 'C', 'A', 'Y', 'K']	[1456, 1335, 2448, 986, 944, 1224, 2059, 760, 1587, 2245, 1029, 904, 829, 697, 2670, 1122]	12	Absent	NA	NA	ABSENT	0.6916329860687256	373.0744109153747	375.08579897880554	376.13580684655864	376.48580899230586	379.2022371292114	4.116438150405884	[373.0936532020569, 373.21041107177734, 374.18555903434753, 374.36163115501404, 375.112398147583, 375.22929310798645, 375.3460371494293, 375.46266198158264, 375.5795521736145, 375.6962151527405, 375.8132071495056, 375.9298470020294, 376.046804189682, 376.16349506378174, 376.28035402297974, 376.3974142074585, 376.5138421058655, 376.6307921409607, 376.74736499786377, 376.8644230365753, 376.98092699050903, 377.2022371292114]	[373.0983678518513, 373.21503451851135, 374.19803451851135, 374.36473451851134, 375.11473451851134, 375.23140118517136, 375.3480678518314, 375.4647345184914, 375.58140118515144, 375.69806785181146, 375.8147345184715, 375.9314011851315, 376.04806785179153, 376.16473451845155, 376.2814011851116, 376.3980678517716, 376.5147345184316, 376.63140118509165, 376.74806785175167, 376.8647345184117, 376.9814011850717, 377.21473451840507]	2021_Feb_02_1732	59.93258430177313	1	0.375
21	63	FALSE	NA	a	['H', 'G', 'M', 'U', 'V', 'Z', 'C', 'X', 'E', 'Y', 'B', 'P', 'T', 'J', 'N', 'W']	[986, 944, 1224, 2059, 2245, 2911, 829, 4000, 904, 2670, 760, 1456, 1888, 1029, 1335, 2448]	8	Present	NA	NA	ABSENT	0.2881429195404053	379.19751596450806	381.2021849155426	381.7855251629814	382.1355273087286	385.31860399246216	4.116419076919556	[379.2167580127716, 379.3336100578308, 380.301931142807, 380.48485112190247, 381.23548316955566, 381.3523120880127, 381.4689211845398, 381.58580017089844, 381.7027151584625, 381.8193562030792, 381.9363491535187, 382.05290603637695, 382.16974997520447, 382.2865550518036, 382.40343403816223, 382.52029609680176, 382.6369152069092, 382.7537260055542, 382.87068819999695, 382.98742508888245, 383.1040852069855, 383.31860518455505]	[379.21473451840507, 379.3314011850651, 380.3144011850651, 380.4811011850651, 381.2311011850651, 381.3477678517251, 381.46443451838513, 381.58110118504516, 381.6977678517052, 381.8144345183652, 381.9311011850252, 382.04776785168525, 382.1644345183453, 382.2811011850053, 382.3977678516653, 382.51443451832534, 382.63110118498537, 382.7477678516454, 382.8644345183054, 382.98110118496544, 383.09776785162546, 383.3311011849588]	2021_Feb_02_1732	59.93258430177313	1	0.375
21	64	FALSE	AV	a	['K', 'B', 'P', 'R', 'C', 'W', 'H', 'surprise', 'S', 'N', 'X', 'M', 'Y', 'Z', 'T', 'G']	[1122, 760, 1456, 1587, 829, 2448, 986, 'stimAuditory/all_stimAuditory/111.wav', 1731, 1335, 4000, 1224, 2670, 2911, 1888, 944]	11	Present	stimAuditory/all_stimAuditory/215.wav	NA	PRESENT	0.40548110008239746	385.3207018375397	387.31857800483704	388.25191920593016	388.60192135167733	391.4349701404571	4.116392135620117	[385.33995604515076, 385.4566080570221, 386.4182941913605, 386.59135603904724, 387.35862016677856, 387.4587450027466, 387.5754590034485, 387.692262172699, 387.8090400695801, 387.9257152080536, 388.0427541732788, 388.15928411483765, 388.2763121128082, 388.39313197135925, 388.50996112823486, 388.6265699863434, 388.7434821128845, 388.8602411746979, 388.97703218460083, 389.093847990036, 389.21041917800903, 389.43497014045715]	[385.3311011849588, 385.44776785161883, 386.43076785161884, 386.59746785161883, 387.34746785161883, 387.46413451827885, 387.5808011849389, 387.6974678515989, 387.8141345182589, 387.93080118491895, 388.047467851579, 388.164134518239, 388.280801184899, 388.39746785155904, 388.51413451821907, 388.6308011848791, 388.7474678515391, 388.86413451819914, 388.98080118485916, 389.0974678515192, 389.2141345181792, 389.44746785151256]	2021_Feb_02_1732	59.93258430177313	1	0.375
21	65	FALSE	NV	a	['Y', 'S', 'H', 'C', 'P', 'B', 'Z', 'M', 'W', 'U', 'N', 'V', 'X', 'K', 'A', 'T']	[2670, 1731, 986, 829, 1456, 760, 2911, 1224, 2448, 2059, 1335, 2245, 4000, 1122, 697, 1888]	13	Present	NA	NA	ABSENT	0.3380889892578125	391.4270370006561	393.43474888801575	394.60142366084744	394.9514255681761	397.5513360500336	4.116587162017822	[391.4462790489197, 391.5631060600281, 392.53465819358826, 392.7142930030823, 393.4649829864502, 393.58173298835754, 393.6984632015228, 393.8152530193329, 393.9321451187134, 394.04889607429504, 394.1657991409302, 394.28263902664185, 394.3993730545044, 394.51612401008606, 394.63294219970703, 394.7497282028198, 394.86658906936646, 394.98340702056885, 395.10009813308716, 395.21671509742737, 395.33376812934875, 395.55133605003357]	[391.44746785151256, 391.5641345181726, 392.5471345181726, 392.7138345181726, 393.4638345181726, 393.5805011848326, 393.6971678514926, 393.81383451815265, 393.93050118481267, 394.0471678514727, 394.1638345181327, 394.28050118479274, 394.39716785145276, 394.5138345181128, 394.6305011847728, 394.74716785143283, 394.86383451809286, 394.9805011847529, 395.0971678514129, 395.21383451807293, 395.33050118473295, 395.5638345180663]	2021_Feb_02_1732	59.93258430177313	1	0.375
21	66	FALSE	NA	a	['C', 'N', 'U', 'B', 'A', 'K', 'M', 'X', 'H', 'E', 'W', 'S', 'P', 'V', 'Z', 'G']	[829, 1335, 2059, 760, 697, 1122, 1224, 4000, 986, 904, 2448, 1731, 1456, 2245, 2911, 944]	8	Present	NA	NA	PRESENT	0.11935997009277344	397.5501539707184	399.5511050224304	400.1344452698692	400.48444717719786	403.6677031517029	4.116598129272461	[397.56939601898193, 397.6861391067505, 398.6510281562805, 398.83716106414795, 399.58802318573, 399.7047162055969, 399.82151198387146, 399.9385151863098, 400.0552840232849, 400.1721680164337, 400.27190804481506, 400.4057791233063, 400.50555419921875, 400.62234020233154, 400.73912620544434, 400.85594606399536, 400.9728271961212, 401.0895071029663, 401.20641803741455, 401.32314109802246, 401.4399471282959, 401.6677031517029]	[397.5638345180663, 397.6805011847263, 398.66350118472633, 398.8302011847263, 399.5802011847263, 399.69686785138634, 399.81353451804637, 399.9302011847064, 400.0468678513664, 400.16353451802644, 400.28020118468646, 400.3968678513465, 400.5135345180065, 400.63020118466653, 400.74686785132656, 400.8635345179866, 400.9802011846466, 401.0968678513066, 401.21353451796665, 401.3302011846267, 401.4468678512867, 401.68020118462005]	2021_Feb_02_1732	59.93258430177313	1	0.375
21	67	FALSE	NA	a	['N', 'A', 'G', 'M', 'J', 'R', 'B', 'U', 'X', 'W', 'P', 'S', 'C', 'K', 'Z', 'H']	[1335, 697, 944, 1224, 1029, 1587, 760, 2059, 4000, 2448, 1456, 1731, 829, 1122, 2911, 986]	9	Present	NA	NA	PRESENT	0.291762113571167	403.6562759876251	405.6674509048462	406.3674590110379	406.7174609183665	409.7840700149536	4.116619110107422	[403.6755180358887, 403.7923171520233, 404.76739501953125, 404.9438030719757, 405.6944921016693, 405.8113040924072, 405.92807698249817, 406.0448341369629, 406.16168904304504, 406.2783451080322, 406.3953070640564, 406.512011051178, 406.62874007225037, 406.74555706977844, 406.86254501342773, 406.9792990684509, 407.09601616859436, 407.21288418769836, 407.3299369812012, 407.4464330673218, 407.56300711631775, 407.7840712070465]	[403.68020118462005, 403.79686785128007, 404.7798678512801, 404.94656785128007, 405.69656785128007, 405.8132345179401, 405.9299011846001, 406.04656785126014, 406.16323451792016, 406.2799011845802, 406.3965678512402, 406.51323451790023, 406.62990118456025, 406.7465678512203, 406.8632345178803, 406.9799011845403, 407.09656785120035, 407.21323451786037, 407.3299011845204, 407.4465678511804, 407.56323451784044, 407.7965678511738]	2021_Feb_02_1732	59.93258430177313	1	0.375
21	68	FALSE	VA	a	['P', 'H', 'R', 'K', 'E', 'W', 'Z', 'surprise', 'A', 'S', 'X', 'T', 'V', 'N', 'Y', 'U']	[1456, 986, 1587, 1122, 904, 2448, 2911, 'stimAuditory/all_stimAuditory/104.wav', 697, 1731, 4000, 1888, 2245, 1335, 2670, 2059]	11	Present	NA	NA	PRESENT	0.41644787788391113	409.7797050476074	411.78392791748047	412.7172681648993	413.0672703106465	415.9004371166229	4.116509199142456	[409.7989480495453, 409.915687084198, 410.8837630748749, 411.06665420532227, 411.81747603416443, 411.9342579841614, 412.0512590408325, 412.16792011260986, 412.2849531173706, 412.401593208313, 412.51822304725647, 412.63515615463257, 412.751748085022, 412.86873412132263, 412.98557209968567, 413.10228300094604, 413.2191550731659, 413.3359730243683, 413.4527180194855, 413.56948018074036, 413.6862461566925, 413.90043807029724]	[409.7965678511738, 409.9132345178338, 410.8962345178338, 411.0629345178338, 411.8129345178338, 411.92960118449383, 412.04626785115386, 412.1629345178139, 412.2796011844739, 412.3962678511339, 412.51293451779395, 412.629601184454, 412.746267851114, 412.862934517774, 412.97960118443405, 413.09626785109407, 413.2129345177541, 413.3296011844141, 413.44626785107414, 413.56293451773416, 413.6796011843942, 413.91293451772754]	2021_Feb_02_1732	59.93258430177313	1	0.375
21	69	FALSE	NV	a	['V', 'S', 'B', 'W', 'K', 'G', 'P', 'C', 'X', 'T', 'Y', 'A', 'R', 'U', 'Z', 'N']	[2245, 1731, 760, 2448, 1122, 944, 1456, 829, 4000, 1888, 2670, 697, 1587, 2059, 2911, 1335]	9	Present	NA	NA	ABSENT	0.25365591049194336	415.9026238918304	417.9004600048065	418.60046691890534	418.9504690646525	422.01680397987366	4.116343975067139	[415.9218661785126, 416.02176117897034, 417.0001311302185, 417.17312717437744, 417.9410309791565, 418.04071617126465, 418.15761613845825, 418.27428913116455, 418.3912420272827, 418.5078110694885, 418.62476897239685, 418.74143719673157, 418.8583960533142, 418.97493505477905, 419.091765165329, 419.2086820602417, 419.32541513442993, 419.4422821998596, 419.55890798568726, 419.6758840084076, 419.7926161289215, 420.01680302619934]	[415.91293451772754, 416.02960118438756, 417.01260118438756, 417.17930118438755, 417.92930118438755, 418.0459678510476, 418.1626345177076, 418.2793011843676, 418.39596785102765, 418.5126345176877, 418.6293011843477, 418.7459678510077, 418.86263451766774, 418.97930118432777, 419.0959678509878, 419.2126345176478, 419.32930118430784, 419.44596785096786, 419.5626345176279, 419.6793011842879, 419.79596785094793, 420.0293011842813]	2021_Feb_02_1732	59.93258430177313	1	0.375
21	70	FALSE	NV	a	['J', 'A', 'Z', 'S', 'C', 'R', 'T', 'U', 'X', 'P', 'Y', 'M', 'N', 'E', 'W', 'G']	[1029, 697, 2911, 1731, 829, 1587, 1888, 2059, 4000, 1456, 2670, 1224, 1335, 904, 2448, 944]	9	Present	NA	NA	PRESENT	0.4101970195770264	422.0091469287872	424.0167639255524	424.7167720317441	425.0667739390727	428.13316917419434	4.116405248641968	[422.0283889770508, 422.14496207237244, 423.1164951324463, 423.2961280345917, 424.04704213142395, 424.16393518447876, 424.28065299987793, 424.39749813079834, 424.5142910480499, 424.6310110092163, 424.7477660179138, 424.864629983902, 424.9812409877777, 425.0982949733734, 425.21492314338684, 425.3318979740143, 425.4485330581665, 425.5654389858246, 425.68227219581604, 425.7989971637726, 425.91572403907776, 426.13316917419434]	[422.0293011842813, 422.1459678509413, 423.1289678509413, 423.2956678509413, 424.0456678509413, 424.1623345176013, 424.27900118426135, 424.39566785092137, 424.5123345175814, 424.6290011842414, 424.74566785090144, 424.86233451756146, 424.9790011842215, 425.0956678508815, 425.21233451754154, 425.32900118420156, 425.4456678508616, 425.5623345175216, 425.67900118418163, 425.79566785084165, 425.9123345175017, 426.145667850835]	2021_Feb_02_1732	59.93258430177313	1	0.375
21	71	FALSE	VA	a	['H', 'C', 'S', 'Y', 'surprise', 'K', 'V', 'X', 'Z', 'A', 'E', 'J', 'N', 'G', 'W', 'R']	[986, 829, 1731, 2670, 'stimAuditory/all_stimAuditory/213.wav', 1122, 2245, 4000, 2911, 697, 904, 1029, 1335, 944, 2448, 1587]	8	Present	NA	NA	ABSENT	0.15964198112487793	428.13262486457825	430.1329610347748	430.7163012822136	431.0663031895422	434.24953603744507	4.116575002670288	[428.1518681049347, 428.2683050632477, 429.2328631877899, 429.4194540977478, 430.1702001094818, 430.2871479988098, 430.40385007858276, 430.52062916755676, 430.6373641490936, 430.754182100296, 430.8708550930023, 430.97091007232666, 431.08769607543945, 431.2044861316681, 431.3212580680847, 431.4380931854248, 431.55487298965454, 431.67166209220886, 431.7884771823883, 431.90531301498413, 432.0223560333252, 432.24953603744507]	[428.145667850835, 428.26233451749505, 429.24533451749505, 429.41203451749504, 430.16203451749504, 430.27870118415507, 430.3953678508151, 430.5120345174751, 430.62870118413514, 430.74536785079516, 430.8620345174552, 430.9787011841152, 431.09536785077523, 431.21203451743526, 431.3287011840953, 431.4453678507553, 431.5620345174153, 431.67870118407535, 431.7953678507354, 431.9120345173954, 432.0287011840554, 432.26203451738877]	2021_Feb_02_1732	59.93258430177313	1	0.375
21	72	FALSE	NN	a	['E', 'W', 'H', 'P', 'U', 'R', 'M', 'J', 'N', 'Y', 'G', 'V', 'K', 'T', 'S', 'A']	[904, 2448, 986, 1456, 2059, 1587, 1224, 1029, 1335, 2670, 944, 2245, 1122, 1888, 1731, 697]	8	Absent	NA	NA	ABSENT	1.0759119987487793	434.23863697052	436.2493200302124	436.8326602776512	437.18266218497985	440.3659040927887	4.116584062576294	[434.2578799724579, 434.3745219707489, 435.34922909736633, 435.5259211063385, 436.27654910087585, 436.3935580253601, 436.51028299331665, 436.62686705589294, 436.743604183197, 436.8605160713196, 436.97721004486084, 437.0941641330719, 437.21101117134094, 437.32805609703064, 437.4443221092224, 437.5612540245056, 437.6781761646271, 437.7949249744415, 437.91145610809326, 438.028480052948, 438.14513206481934, 438.3659031391144]	[434.26203451738877, 434.3787011840488, 435.3617011840488, 435.5284011840488, 436.2784011840488, 436.3950678507088, 436.51173451736884, 436.62840118402886, 436.7450678506889, 436.8617345173489, 436.97840118400893, 437.09506785066895, 437.211734517329, 437.328401183989, 437.445067850649, 437.56173451730905, 437.6784011839691, 437.7950678506291, 437.9117345172891, 438.02840118394914, 438.14506785060917, 438.3784011839425]	2021_Feb_02_1732	59.93258430177313	1	0.375
21	73	FALSE	NV	a	['H', 'M', 'T', 'K', 'C', 'Y', 'A', 'X', 'G', 'S', 'J', 'N', 'W', 'R', 'P', 'Z']	[986, 1224, 1888, 1122, 829, 2670, 697, 4000, 944, 1731, 1029, 1335, 2448, 1587, 1456, 2911]	8	Present	NA	NA	PRESENT	0.1605360507965088	440.3618090152741	442.3657548427582	442.9490953286155	443.2990972359442	446.4822700023651	4.116515159606934	[440.3810510635376, 440.4976921081543, 441.46559619903564, 441.6489930152893, 442.3996670246124, 442.5166051387787, 442.6332211494446, 442.7500841617584, 442.8668990135193, 442.9836390018463, 443.1004672050476, 443.217246055603, 443.3339400291443, 443.45060110092163, 443.56756711006165, 443.6844460964203, 443.8011531829834, 443.91805601119995, 444.034814119339, 444.151447057724, 444.26838302612305, 444.482271194458]	[440.3784011839425, 440.49506785060254, 441.47806785060254, 441.64476785060253, 442.39476785060253, 442.51143451726256, 442.6281011839226, 442.7447678505826, 442.8614345172426, 442.97810118390265, 443.0947678505627, 443.2114345172227, 443.3281011838827, 443.44476785054275, 443.56143451720277, 443.6781011838628, 443.7947678505228, 443.91143451718284, 444.02810118384286, 444.1447678505029, 444.2614345171629, 444.49476785049626]	2021_Feb_02_1732	59.93258430177313	1	0.375
21	74	FALSE	NA	a	['M', 'V', 'J', 'U', 'R', 'C', 'K', 'X', 'N', 'Y', 'G', 'E', 'H', 'S', 'W', 'Z']	[1224, 2245, 1029, 2059, 1587, 829, 1122, 4000, 1335, 2670, 944, 904, 986, 1731, 2448, 2911]	8	Present	NA	NA	PRESENT	0.3499331474304199	446.484647989273	448.4819920063019	449.065333207415	449.4153353531622	452.5986361503601	4.1166441440582275	[446.50389099121094, 446.6039950847626, 447.58196115493774, 447.75540113449097, 448.50603008270264, 448.6228051185608, 448.7397780418396, 448.8563961982727, 448.97323298454285, 449.0898561477661, 449.20662212371826, 449.3234610557556, 449.44028520584106, 449.5572102069855, 449.6739881038666, 449.7907540798187, 449.90750312805176, 450.0244860649109, 450.1411051750183, 450.2579650878906, 450.3746540546417, 450.5986361503601]	[446.49476785049626, 446.6114345171563, 447.5944345171563, 447.7611345171563, 448.5111345171563, 448.6278011838163, 448.7444678504763, 448.86113451713635, 448.9778011837964, 449.0944678504564, 449.2111345171164, 449.32780118377644, 449.44446785043647, 449.5611345170965, 449.6778011837565, 449.79446785041654, 449.91113451707656, 450.0278011837366, 450.1444678503966, 450.26113451705663, 450.37780118371666, 450.61113451705]	2021_Feb_02_1732	59.93258430177313	1	0.375
21	75	FALSE	VN	a	['U', 'S', 'B', 'J', 'Y', 'K', 'T', 'N', 'surprise', 'W', 'Z', 'H', 'E', 'R', 'M', 'V']	[2059, 1731, 760, 1029, 2670, 1122, 1888, 1335, 'stimAuditory/all_stimAuditory/119.wav', 2448, 2911, 986, 904, 1587, 1224, 2245]	12	Absent	NA	NA	ABSENT	0.3145320415496826	452.5913128852844	454.59845995903015	455.648466873109	455.99846901885616	458.7150030136109	4.1165430545806885	[452.61055517196655, 452.72709012031555, 453.6983301639557, 453.87850618362427, 454.62907314300537, 454.74599504470825, 454.86279797554016, 454.9796390533447, 455.09621810913086, 455.2130811214447, 455.3300130367279, 455.4468021392822, 455.5635201931, 455.6803741455078, 455.79718708992004, 455.91377210617065, 456.03056812286377, 456.1474289894104, 456.2643280029297, 456.3809721469879, 456.49781918525696, 456.71500301361084]	[452.61113451705, 452.72780118371, 453.71080118371003, 453.87750118371, 454.62750118371, 454.74416785037005, 454.86083451703007, 454.9775011836901, 455.0941678503501, 455.21083451701014, 455.32750118367017, 455.4441678503302, 455.5608345169902, 455.67750118365024, 455.79416785031026, 455.9108345169703, 456.0275011836303, 456.14416785029033, 456.26083451695035, 456.3775011836104, 456.4941678502704, 456.72750118360375]	2021_Feb_02_1732	59.93258430177313	1	0.375
21	76	FALSE	NA	a	['C', 'N', 'Y', 'A', 'H', 'J', 'U', 'X', 'E', 'Z', 'P', 'V', 'S', 'G', 'T', 'W']	[829, 1335, 2670, 697, 986, 1029, 2059, 4000, 904, 2911, 1456, 2245, 1731, 944, 1888, 2448]	8	Present	NA	NA	ABSENT	0.5198178291320801	458.714411020279	460.71486496925354	461.29820617036665	461.6482083161139	464.83137011528015	4.116505146026611	[458.7336530685425, 458.8503940105438, 459.8146951198578, 460.0014081001282, 460.75223302841187, 460.8692021369934, 460.98583006858826, 461.08584213256836, 461.2025899887085, 461.33601808547974, 461.43610405921936, 461.55295300483704, 461.66976714134216, 461.78656911849976, 461.90337800979614, 462.02016615867615, 462.1369550228119, 462.25392603874207, 462.37048411369324, 462.48743510246277, 462.6040790081024, 462.83137011528015]	[458.72750118360375, 458.8441678502638, 459.8271678502638, 459.99386785026377, 460.74386785026377, 460.8605345169238, 460.9772011835838, 461.09386785024384, 461.21053451690386, 461.3272011835639, 461.4438678502239, 461.56053451688393, 461.67720118354396, 461.793867850204, 461.910534516864, 462.027201183524, 462.14386785018405, 462.2605345168441, 462.3772011835041, 462.4938678501641, 462.61053451682415, 462.8438678501575]	2021_Feb_02_1732	59.93258430177313	1	0.375
21	77	FALSE	NV	a	['G', 'T', 'B', 'S', 'Z', 'U', 'A', 'V', 'R', 'J', 'Y', 'M', 'N', 'X', 'P', 'C']	[944, 1888, 760, 1731, 2911, 2059, 697, 2245, 1587, 1029, 2670, 1224, 1335, 4000, 1456, 829]	14	Present	NA	NA	PRESENT	0.5562088489532471	464.82070803642273	466.8312158584595	468.11455825162545	468.4645603973727	470.94773602485657	4.116520166397095	[464.8399510383606, 464.9568581581116, 465.9310610294342, 466.1079411506653, 466.8586530685425, 466.9753761291504, 467.09220600128174, 467.2091200351715, 467.32581305503845, 467.44259119033813, 467.5594141483307, 467.67620515823364, 467.7930591106415, 467.90980219841003, 468.02660512924194, 468.14338302612305, 468.2601799964905, 468.37731313705444, 468.49370408058167, 468.61061120033264, 468.7273950576782, 468.9477369785309]	[464.8438678501575, 464.9605345168175, 465.9435345168175, 466.1102345168175, 466.8602345168175, 466.97690118347754, 467.09356785013756, 467.2102345167976, 467.3269011834576, 467.44356785011763, 467.56023451677765, 467.6769011834377, 467.7935678500977, 467.9102345167577, 468.02690118341775, 468.1435678500778, 468.2602345167378, 468.3769011833978, 468.49356785005784, 468.61023451671787, 468.7269011833779, 468.96023451671124]	2021_Feb_02_1732	59.93258430177313	1	0.375
21	78	FALSE	NV	a	['U', 'E', 'W', 'Z', 'V', 'J', 'C', 'P', 'M', 'Y', 'X', 'S', 'R', 'H', 'B', 'A']	[2059, 904, 2448, 2911, 2245, 1029, 829, 1456, 1224, 2670, 4000, 1731, 1587, 986, 760, 697]	11	Present	NA	NA	ABSENT	0.26513004302978516	470.94381189346313	472.9476869106293	473.881028350141	474.2310302574696	477.0641031265259	4.1164162158966064	[470.96305418014526, 471.0797619819641, 472.0474281311035, 472.2309021949768, 472.9816241264343, 473.0986981391907, 473.215460062027, 473.3323311805725, 473.4489600658417, 473.56568717956543, 473.68246603012085, 473.79911398887634, 473.9161009788513, 474.0328941345215, 474.14972400665283, 474.2665011882782, 474.38331413269043, 474.49995613098145, 474.6167562007904, 474.7334351539612, 474.85043001174927, 475.0641031265259]	[470.96023451671124, 471.07690118337126, 472.05990118337127, 472.22660118337126, 472.97660118337126, 473.0932678500313, 473.2099345166913, 473.32660118335133, 473.44326785001135, 473.5599345166714, 473.6766011833314, 473.7932678499914, 473.90993451665145, 474.02660118331147, 474.1432678499715, 474.2599345166315, 474.37660118329154, 474.49326784995156, 474.6099345166116, 474.7266011832716, 474.84326784993164, 475.076601183265]	2021_Feb_02_1732	59.93258430177313	1	0.375
21	79	FALSE	NV	a	['Z', 'J', 'P', 'W', 'A', 'M', 'C', 'R', 'S', 'E', 'N', 'V', 'X', 'H', 'G', 'B']	[2911, 1029, 1456, 2448, 697, 1224, 829, 1587, 1731, 904, 1335, 2245, 4000, 986, 944, 760]	13	Present	NA	NA	ABSENT	0.16622495651245117	477.0669319629669	479.0639169216156	480.2305916944473	480.58059360177594	483.1804690361023	4.116552114486694	[477.08617401123047, 477.18604612350464, 478.16379499435425, 478.3377389907837, 479.0879909992218, 479.2050139904022, 479.3218650817871, 479.43850803375244, 479.55524706840515, 479.6720540523529, 479.78873920440674, 479.90574502944946, 480.02230620384216, 480.13935804367065, 480.2559721469879, 480.3729271888733, 480.48979115486145, 480.60652112960815, 480.7233622074127, 480.8400671482086, 480.9567291736603, 481.1804690361023]	[477.076601183265, 477.193267849925, 478.176267849925, 478.342967849925, 479.092967849925, 479.209634516585, 479.32630118324505, 479.4429678499051, 479.5596345165651, 479.6763011832251, 479.79296784988514, 479.90963451654517, 480.0263011832052, 480.1429678498652, 480.25963451652524, 480.37630118318526, 480.4929678498453, 480.6096345165053, 480.72630118316533, 480.84296784982536, 480.9596345164854, 481.19296784981873]	2021_Feb_02_1732	59.93258430177313	1	0.375
