participant	trial_num	practice	task	condition	RSVP	RAP	probePos	probe_presence	surprise_sound	surprise_img	probe_response	probe_resp_time	first_fixation_time	trial_start_time	surprise_start_time	probe_start_time	trial_end_time	trial_duration	actualEventTimes	plannedEventTimes	date	framerate	marker_vol	RAP_vol
11	1	FALSE	NA	v	['R', 'E', 'K', 'U', 'V', 'B', 'M', 'Z', 'G', 'X', 'W', 'P', 'A', 'C', 'S', 'H']	[1587, 904, 1122, 2059, 2245, 760, 1224, 2911, 944, 4000, 2448, 1456, 697, 829, 1731, 986]	10	Present	NA	NA	PRESENT	0.06857490539550781	3.0994415283203125e-6	1.9915449619293213	2.806318998336792	3.1563429832458496	6.103870153427124	4.112325191497803	[0.018254995346069336, 0.11779308319091797, 1.1021671295166016, 1.2691941261291504, 2.019819974899292, 2.136657953262329, 2.253545045852661, 2.3701939582824707, 2.4868810176849365, 2.6039040088653564, 2.7204861640930176, 2.837538003921509, 2.9543139934539795, 3.0709660053253174, 3.1879429817199707, 3.3047471046447754, 3.4215409755706787, 3.5383801460266113, 3.65487003326416, 3.771897077560425, 3.888522148132324, 4.1038689613342285]	[9.5367431640625e-07, 0.11666762034098306, 1.099667620340983, 1.266367620340983, 2.016367620340983, 2.1330342870076495, 2.249700953674316, 2.366367620340983, 2.4830342870076496, 2.5997009536743163, 2.716367620340983, 2.8330342870076497, 2.9497009536743164, 3.066367620340983, 3.18303428700765, 3.2997009536743165, 3.416367620340983, 3.53303428700765, 3.6497009536743166, 3.7663676203409833, 3.88303428700765, 4.116367620340983]	2021_Jan_27_1054	59.93875086636228	1	1
11	2	FALSE	NA	v	['C', 'E', 'U', 'R', 'B', 'M', 'T', 'G', 'A', 'W', 'Y', 'J', 'X', 'N', 'Z', 'V']	[829, 904, 2059, 1587, 760, 1224, 1888, 944, 697, 2448, 2670, 1029, 4000, 1335, 2911, 2245]	13	Present	NA	NA	PRESENT	0.1294078826904297	6.106096029281616	8.104536056518555	9.272274017333984	9.622234106063845	12.22023606300354	4.115700006484985	[6.124349117279053, 6.2409820556640625, 7.208611011505127, 7.3755271434783936, 8.142951011657715, 8.259835004806519, 8.376501083374023, 8.49344515800476, 8.61028003692627, 8.726991176605225, 8.843703985214233, 8.960455179214478, 9.077337980270386, 9.1943941116333, 9.311568021774292, 9.427948951721191, 9.5277099609375, 9.661226034164429, 9.761353969573975, 9.878196001052856, 9.99521517753601, 10.22023606300354]	[6.116367620340983, 6.23303428700765, 7.216034287007649, 7.382734287007649, 8.132734287007649, 8.249400953674316, 8.366067620340983, 8.48273428700765, 8.599400953674317, 8.716067620340985, 8.832734287007652, 8.949400953674319, 9.066067620340986, 9.182734287007653, 9.29940095367432, 9.416067620340987, 9.532734287007655, 9.649400953674322, 9.766067620340989, 9.882734287007656, 9.999400953674323, 10.232734287007656]	2021_Jan_27_1054	59.93875086636228	1	1
11	3	FALSE	NA	v	['P', 'H', 'Y', 'K', 'W', 'U', 'S', 'C', 'J', 'G', 'R', 'B', 'V', 'X', 'Z', 'N']	[1456, 986, 2670, 1122, 2448, 2059, 1731, 829, 1029, 944, 1587, 760, 2245, 4000, 2911, 1335]	14	Present	NA	NA	PRESENT	0.11033892631530762	12.212516069412231	14.220793962478638	15.504724025726318	15.854732036590576	18.33660316467285	4.115809202194214	[12.230777978897095, 12.347424030303955, 13.331783056259155, 13.498831033706665, 14.249459981918335, 14.366243124008179, 14.483174085617065, 14.599864959716797, 14.716598987579346, 14.833377122879028, 14.950432062149048, 15.067101001739502, 15.184010982513428, 15.300652027130127, 15.417543172836304, 15.53426218032837, 15.650889158248901, 15.767912149429321, 15.884663105010986, 16.0015230178833, 16.118157148361206, 16.33660316467285]	[12.232734287007656, 12.349400953674323, 13.332400953674323, 13.499100953674324, 14.249100953674324, 14.365767620340991, 14.482434287007658, 14.599100953674325, 14.715767620340992, 14.83243428700766, 14.949100953674327, 15.065767620340994, 15.182434287007661, 15.299100953674328, 15.415767620340995, 15.532434287007662, 15.64910095367433, 15.765767620340997, 15.882434287007664, 15.999100953674331, 16.115767620340996, 16.34910095367433]	2021_Jan_27_1054	59.93875086636228	1	1
11	4	FALSE	NV	v	['V', 'R', 'U', 'M', 'Y', 'W', 'A', 'B', 'J', 'E', 'X', 'T', 'S', 'Z', 'N', 'K']	[2245, 1587, 2059, 1224, 2670, 2448, 697, 760, 1029, 904, 4000, 1888, 1731, 2911, 1335, 1122]	11	Present	NA	NA	PRESENT	0.08356213569641113	18.335636138916016	20.337400913238525	21.270998001098633	21.620952129364017	24.452970027923584	4.115569114685059	[18.35388708114624, 18.47057008743286, 19.45524501800537, 19.62204098701477, 20.372742176055908, 20.489395141601562, 20.6061270236969, 20.72306799888611, 20.839715003967285, 20.956820011138916, 21.073336124420166, 21.190113067626953, 21.306904077529907, 21.423915147781372, 21.540619134902954, 21.657279014587402, 21.77416205406189, 21.890928983688354, 22.007748126983643, 22.12470316886902, 22.22449517250061, 22.452970027923584]	[18.34910095367433, 18.465767620340998, 19.448767620341, 19.615467620340997, 20.365467620340997, 20.482134287007664, 20.59880095367433, 20.715467620341, 20.832134287007666, 20.948800953674333, 21.065467620341, 21.182134287007667, 21.298800953674334, 21.415467620341, 21.53213428700767, 21.648800953674336, 21.765467620341003, 21.88213428700767, 21.998800953674337, 22.115467620341004, 22.23213428700767, 22.465467620341006]	2021_Jan_27_1054	59.93875086636228	1	1
11	5	FALSE	NV	v	['V', 'C', 'P', 'E', 'A', 'S', 'H', 'Z', 'B', 'W', 'J', 'X', 'Y', 'R', 'U', 'N']	[2245, 829, 1456, 904, 697, 1731, 986, 2911, 760, 2448, 1029, 4000, 2670, 1587, 2059, 1335]	12	Present	NA	NA	PRESENT	0.13591980934143066	24.442026138305664	26.45364499092102	27.503942012786865	27.854114055633545	30.569337129592896	4.115692138671875	[24.460278034210205, 24.577211141586304, 25.561654090881348, 25.728343963623047, 26.495851039886475, 26.595890998840332, 26.71269416809082, 26.82951307296753, 26.946372032165527, 27.063138008117676, 27.179792165756226, 27.29658603668213, 27.41358995437622, 27.530282974243164, 27.64698100090027, 27.763720989227295, 27.880783081054688, 27.99742102622986, 28.114370107650757, 28.231131076812744, 28.347689151763916, 28.56933617591858]	[24.465467620341006, 24.582134287007673, 25.565134287007673, 25.731834287007672, 26.481834287007672, 26.59850095367434, 26.715167620341006, 26.831834287007673, 26.94850095367434, 27.065167620341008, 27.181834287007675, 27.298500953674342, 27.41516762034101, 27.531834287007676, 27.648500953674343, 27.76516762034101, 27.881834287007678, 27.998500953674345, 28.115167620341012, 28.23183428700768, 28.348500953674346, 28.58183428700768]	2021_Jan_27_1054	59.93875086636228	1	1
11	6	FALSE	NN	v	['Z', 'C', 'Y', 'W', 'B', 'N', 'S', 'V', 'E', 'M', 'P', 'K', 'G', 'A', 'J', 'U']	[2911, 829, 2670, 2448, 760, 1335, 1731, 2245, 904, 1224, 1456, 1122, 944, 697, 1029, 2059]	12	Absent	NA	NA	ABSENT	0.15668702125549316	30.565585136413578	32.570225954055786	33.62057304382324	33.970319986343384	36.68570303916931	4.115477085113525	[30.5838360786438, 30.700369119644165, 31.68461298942566, 31.851590156555176, 32.6023211479187, 32.719019174575806, 32.83626198768616, 32.95273017883301, 33.069430112838745, 33.1863911151886, 33.303059101104736, 33.42001700401306, 33.536705017089844, 33.65363097190857, 33.7701621055603, 33.88719701766968, 34.003721952438354, 34.120591163635254, 34.23731017112732, 34.35427212715149, 34.471116065979004, 34.68570113182068]	[30.58183428700768, 30.698500953674348, 31.681500953674348, 31.848200953674347, 32.59820095367435, 32.71486762034102, 32.831534287007685, 32.94820095367435, 33.06486762034102, 33.181534287007686, 33.29820095367435, 33.41486762034102, 33.53153428700769, 33.648200953674355, 33.76486762034102, 33.88153428700769, 33.998200953674356, 34.11486762034102, 34.23153428700769, 34.34820095367436, 34.464867620341025, 34.69820095367436]	2021_Jan_27_1054	59.93875086636228	1	1
11	7	FALSE	NN	v	['W', 'T', 'E', 'H', 'U', 'A', 'R', 'Z', 'C', 'M', 'J', 'N', 'Y', 'K', 'B', 'V']	[2448, 1888, 904, 986, 2059, 697, 1587, 2911, 829, 1224, 1029, 1335, 2670, 1122, 760, 2245]	11	Absent	NA	NA	ABSENT	0.24196600914001465	36.68832802772522	38.68630909919739	39.62004208564758	39.97035193443298	42.80207014083862	4.115761041641235	[36.706578969955444, 36.823421001434326, 37.79105496406555, 37.957951068878174, 38.72537708282471, 38.84234094619751, 38.95918917655945, 39.075764179229736, 39.17582416534424, 39.29255414009094, 39.409449100494385, 39.526216983795166, 39.643017053604126, 39.7597930431366, 39.87658214569092, 39.99339699745178, 40.11021018028259, 40.22701096534729, 40.34373617172241, 40.46072196960449, 40.577362060546875, 40.80206894874573]	[36.69820095367436, 36.814867620341026, 37.79786762034102, 37.96456762034102, 38.71456762034102, 38.83123428700769, 38.947900953674356, 39.06456762034102, 39.18123428700769, 39.29790095367436, 39.414567620341025, 39.53123428700769, 39.64790095367436, 39.764567620341026, 39.88123428700769, 39.99790095367436, 40.11456762034103, 40.231234287007695, 40.34790095367436, 40.46456762034103, 40.581234287007696, 40.81456762034103]	2021_Jan_27_1054	59.93875086636228	1	1
11	8	FALSE	NV	v	['H', 'Z', 'R', 'N', 'J', 'C', 'V', 'M', 'U', 'W', 'A', 'E', 'X', 'B', 'K', 'S']	[986, 2911, 1587, 1335, 1029, 829, 2245, 1224, 2059, 2448, 697, 904, 4000, 760, 1122, 1731]	13	Present	NA	NA	PRESENT	0.09457612037658691	42.7948739528656	44.802875995635986	45.96981596946716	46.320228099823	48.918437004089355	4.115561008453369	[42.813125133514404, 42.929890155792236, 43.91432809829712, 44.08122801780701, 44.83194708824158, 44.948644161224365, 45.06567096710205, 45.18237113952637, 45.29928708076477, 45.41598105430603, 45.53260016441345, 45.64952206611633, 45.766298055648804, 45.883164167404175, 45.999979972839355, 46.11665105819702, 46.23361015319824, 46.35038614273071, 46.46693801879883, 46.58372902870178, 46.70054602622986, 46.918437004089355]	[42.81456762034103, 42.9312342870077, 43.914234287007694, 44.08093428700769, 44.83093428700769, 44.94760095367436, 45.06426762034103, 45.180934287007695, 45.29760095367436, 45.41426762034103, 45.530934287007696, 45.64760095367436, 45.76426762034103, 45.8809342870077, 45.997600953674365, 46.11426762034103, 46.2309342870077, 46.347600953674366, 46.46426762034103, 46.5809342870077, 46.69760095367437, 46.9309342870077]	2021_Jan_27_1054	59.93875086636228	1	1
11	9	FALSE	NV	v	['P', 'W', 'T', 'U', 'H', 'A', 'S', 'R', 'B', 'Y', 'X', 'M', 'J', 'G', 'C', 'K']	[1456, 2448, 1888, 2059, 986, 697, 1731, 1587, 760, 2670, 4000, 1224, 1029, 944, 829, 1122]	11	Present	NA	NA	PRESENT	0.05178689956665039	48.91815400123596	50.919140100479126	51.853055000305176	52.20291209220886	55.03480315208435	4.115663051605225	[48.936405181884766, 49.05300498008728, 50.03767704963684, 50.20450401306152, 50.955329179763794, 51.07199811935425, 51.18860101699829, 51.30549216270447, 51.42222809791565, 51.5389461517334, 51.655959129333496, 51.772789001464844, 51.8896050453186, 52.00612497329712, 52.123039960861206, 52.23989915847778, 52.35661005973816, 52.47332406044006, 52.590152978897095, 52.70691394805908, 52.80713701248169, 53.034801959991455]	[48.9309342870077, 49.04760095367437, 50.030600953674366, 50.197300953674365, 50.947300953674365, 51.06396762034103, 51.1806342870077, 51.297300953674366, 51.41396762034103, 51.5306342870077, 51.64730095367437, 51.763967620341035, 51.8806342870077, 51.99730095367437, 52.113967620341036, 52.2306342870077, 52.34730095367437, 52.46396762034104, 52.580634287007705, 52.69730095367437, 52.81396762034104, 53.04730095367437]	2021_Jan_27_1054	59.93875086636228	1	1
11	10	FALSE	VA	v	['Y', 'A', 'N', 'E', 'R', 'W', 'U', 'Z', 'H', 'surprise', 'G', 'C', 'X', 'P', 'M', 'S']	[2670, 697, 1335, 904, 1587, 2448, 2059, 2911, 986, 'stimAuditory/all_stimAuditory/122.wav', 944, 829, 4000, 1456, 1224, 1731]	13	Present	NA	stimVisual/all_stimVisual/124.jpg	ABSENT	0.640510082244873	55.02454113960266	57.03546595573425	58.2026309967041	58.55256795883179	61.15116906166077	4.115703105926514	[55.04279112815857, 55.15967416763306, 56.14389896392822, 56.31094408035278, 57.061506032943726, 57.1782500743866, 57.29531502723694, 57.411962032318115, 57.528876066207886, 57.64554500579834, 57.762202978134155, 57.87912607192993, 57.99582815170288, 58.12929105758667, 58.22946000099182, 58.346323013305664, 58.46322202682495, 58.579856157302856, 58.69674301147461, 58.81356596946716, 58.93011403083801, 59.15116906166077]	[55.04730095367437, 55.16396762034104, 56.14696762034104, 56.313667620341036, 57.063667620341036, 57.1803342870077, 57.29700095367437, 57.41366762034104, 57.530334287007705, 57.64700095367437, 57.76366762034104, 57.880334287007706, 57.99700095367437, 58.11366762034104, 58.23033428700771, 58.347000953674375, 58.46366762034104, 58.58033428700771, 58.697000953674376, 58.81366762034104, 58.93033428700771, 59.163667620341045]	2021_Jan_27_1054	59.93875086636228	1	1
11	11	FALSE	NV	v	['Z', 'H', 'C', 'E', 'T', 'R', 'Y', 'X', 'A', 'P', 'N', 'G', 'W', 'S', 'B', 'K']	[2911, 986, 829, 904, 1888, 1587, 2670, 4000, 697, 1456, 1335, 944, 2448, 1731, 760, 1122]	8	Present	NA	NA	PRESENT	0.17285990715026855	61.14809012413025	63.151850938797	63.73555302619934	64.08548998832703	67.2675371170044	4.1156861782073975	[61.166341066360474, 61.282652139663696, 62.26728796958923, 62.43418097496033, 63.18479895591736, 63.30173206329346, 63.418514013290405, 63.535236120224, 63.65178298950195, 63.76892304420471, 63.88540697097778, 64.00245904922485, 64.11903500556946, 64.23610210418701, 64.35280799865723, 64.46952605247498, 64.58619403839111, 64.70315909385681, 64.8198549747467, 64.93676209449768, 65.05348896980286, 65.26753616333008]	[61.163667620341045, 61.28033428700771, 62.26333428700771, 62.43003428700771, 63.18003428700771, 63.296700953674375, 63.41336762034104, 63.53003428700771, 63.646700953674376, 63.76336762034104, 63.88003428700771, 63.99670095367438, 64.11336762034104, 64.2300342870077, 64.34670095367436, 64.46336762034102, 64.58003428700768, 64.69670095367434, 64.813367620341, 64.93003428700766, 65.04670095367432, 65.28003428700765]	2021_Jan_27_1054	59.93875086636228	1	1
11	12	FALSE	NN	v	['B', 'M', 'A', 'J', 'P', 'R', 'V', 'T', 'C', 'K', 'N', 'S', 'E', 'H', 'W', 'Y']	[760, 1224, 697, 1029, 1456, 1587, 2245, 1888, 829, 1122, 1335, 1731, 904, 986, 2448, 2670]	9	Absent	NA	NA	ABSENT	0.1461009979248047	67.27076697349548	69.26835513114929	69.96861505508423	70.31870198249817	73.38390302658081	4.1155478954315186	[67.28901815414429, 67.38912796974182, 68.37358403205872, 68.54051804542542, 69.30852794647217, 69.42518615722656, 69.52474904060364, 69.6414840221405, 69.7582859992981, 69.8750810623169, 69.99188017845154, 70.10869312286377, 70.22550916671753, 70.34229016304016, 70.45952200889587, 70.57581806182861, 70.69255018234253, 70.8092770576477, 70.92614316940308, 71.04309105873108, 71.1598060131073, 71.38390398025513]	[67.28003428700765, 67.39670095367431, 68.37970095367432, 68.54640095367432, 69.29640095367432, 69.41306762034098, 69.52973428700764, 69.6464009536743, 69.76306762034096, 69.87973428700762, 69.99640095367428, 70.11306762034094, 70.2297342870076, 70.34640095367426, 70.46306762034092, 70.57973428700758, 70.69640095367424, 70.8130676203409, 70.92973428700756, 71.04640095367422, 71.16306762034088, 71.39640095367422]	2021_Jan_27_1054	59.93875086636228	1	1
11	13	FALSE	NA	v	['U', 'W', 'B', 'J', 'Z', 'N', 'Y', 'C', 'M', 'T', 'A', 'H', 'X', 'P', 'K', 'S']	[2059, 2448, 760, 1029, 2911, 1335, 2670, 829, 1224, 1888, 697, 986, 4000, 1456, 1122, 1731]	13	Present	NA	NA	PRESENT	0.05469512939453125	73.37740397453308	75.38465309143066	76.55155992507935	76.90209197998047	79.50027012825012	4.115617036819458	[73.3956561088562, 73.51225209236145, 74.49685597419739, 74.6636950969696, 75.41437816619873, 75.53126096725464, 75.64801216125488, 75.76484298706055, 75.88159894943237, 75.99841713905334, 76.16528105735779, 76.23200511932373, 76.34886002540588, 76.46566104888916, 76.5822319984436, 76.69923996925354, 76.81577706336975, 76.9326810836792, 77.0494019985199, 77.16638016700745, 77.28311395645142, 77.50027108192444]	[73.39640095367422, 73.51306762034088, 74.49606762034088, 74.66276762034089, 75.41276762034089, 75.52943428700755, 75.6461009536742, 75.76276762034087, 75.87943428700753, 75.99610095367419, 76.11276762034085, 76.2294342870075, 76.34610095367417, 76.46276762034083, 76.57943428700749, 76.69610095367415, 76.81276762034081, 76.92943428700747, 77.04610095367413, 77.16276762034079, 77.27943428700745, 77.51276762034078]	2021_Jan_27_1054	59.93875086636228	1	1
11	14	FALSE	NA	v	['V', 'J', 'Y', 'N', 'M', 'U', 'G', 'K', 'H', 'S', 'B', 'X', 'P', 'T', 'A', 'Z']	[2245, 1029, 2670, 1335, 1224, 2059, 944, 1122, 986, 1731, 760, 4000, 1456, 1888, 697, 2911]	12	Present	NA	NA	PRESENT	0.0360720157623291	79.50036406517029	81.5010781288147	82.5512969493866	82.90140008926392	85.61663699150085	4.115558862686157	[79.51861596107483, 79.63565301895142, 80.6203510761261, 80.78667712211609, 81.53756213188171, 81.65444302558899, 81.77111411094666, 81.8880569934845, 82.00472402572632, 82.12166595458984, 82.2383279800415, 82.35515117645264, 82.47196316719055, 82.58878302574158, 82.70553207397461, 82.82211017608643, 82.9390549659729, 83.05580711364746, 83.1726930141449, 83.2894811630249, 83.38939714431763, 83.61663603782654]	[79.51276762034078, 79.62943428700744, 80.61243428700745, 80.77913428700745, 81.52913428700745, 81.64580095367411, 81.76246762034077, 81.87913428700743, 81.99580095367409, 82.11246762034075, 82.22913428700741, 82.34580095367407, 82.46246762034073, 82.57913428700739, 82.69580095367405, 82.81246762034071, 82.92913428700737, 83.04580095367403, 83.16246762034069, 83.27913428700735, 83.39580095367401, 83.62913428700735]	2021_Jan_27_1054	59.93875086636228	1	1
11	15	FALSE	AV	v	['P', 'S', 'R', 'H', 'surprise', 'Z', 'C', 'X', 'B', 'N', 'U', 'W', 'T', 'Y', 'V', 'G']	[1456, 1731, 1587, 986, 'stimAuditory/all_stimAuditory/119.wav', 2911, 829, 4000, 760, 1335, 2059, 2448, 1888, 2670, 2245, 944]	8	Present	stimAuditory/all_stimAuditory/122.wav	stimVisual/all_stimVisual/221.jpg	PRESENT	0.05681395530700683	85.60703802108765	87.61726403236389	88.20114612579346	88.55118608474731	91.73300194740295	4.1157379150390625	[85.62528896331787, 85.74196410179138, 86.72634315490723, 86.89336609840393, 87.64386916160583, 87.76076412200928, 87.87750816345215, 87.9944760799408, 88.1279890537262, 88.22810101509094, 88.3449170589447, 88.46164798736572, 88.57834696769714, 88.69519901275635, 88.81189703941345, 88.92871499061584, 89.04532098770142, 89.16243815422058, 89.27890801429749, 89.39602017402649, 89.51264810562134, 89.73300194740295]	[85.62913428700735, 85.745800953674, 86.72880095367401, 86.89550095367402, 87.64550095367402, 87.76216762034068, 87.87883428700734, 87.995500953674, 88.11216762034066, 88.22883428700732, 88.34550095367398, 88.46216762034064, 88.5788342870073, 88.69550095367396, 88.81216762034062, 88.92883428700728, 89.04550095367394, 89.1621676203406, 89.27883428700726, 89.39550095367392, 89.51216762034058, 89.74550095367391]	2021_Jan_27_1054	59.93875086636228	1	1
11	16	FALSE	NV	v	['B', 'V', 'C', 'H', 'S', 'G', 'Z', 'N', 'M', 'R', 'P', 'T', 'Y', 'X', 'U', 'W']	[760, 2245, 829, 986, 1731, 944, 2911, 1335, 1224, 1587, 1456, 1888, 2670, 4000, 2059, 2448]	14	Present	NA	NA	PRESENT	0.08508801460266113	91.73053812980652	93.73376512527466	95.01758408546448	95.3676540851593	97.84936904907228	4.115603923797607	[91.74878907203674, 91.86506700515747, 92.84968614578247, 93.01631999015808, 93.76711201667786, 93.8841450214386, 94.00074005126953, 94.11756896972656, 94.23424005508423, 94.35115909576416, 94.46783995628357, 94.58488917350769, 94.70145297050476, 94.81850910186768, 94.93511199951172, 95.05203008651733, 95.16871309280396, 95.28554797172546, 95.40219902992249, 95.51909804344177, 95.63582801818848, 95.84937000274658]	[91.74550095367391, 91.86216762034057, 92.84516762034058, 93.01186762034058, 93.76186762034058, 93.87853428700724, 93.9952009536739, 94.11186762034056, 94.22853428700722, 94.34520095367388, 94.46186762034054, 94.5785342870072, 94.69520095367386, 94.81186762034052, 94.92853428700718, 95.04520095367384, 95.1618676203405, 95.27853428700716, 95.39520095367382, 95.51186762034048, 95.62853428700714, 95.86186762034048]	2021_Jan_27_1054	59.93875086636228	1	1
11	17	FALSE	NV	v	['C', 'U', 'T', 'E', 'K', 'Z', 'B', 'M', 'Y', 'R', 'J', 'X', 'W', 'P', 'G', 'V']	[829, 2059, 1888, 904, 1122, 2911, 760, 1224, 2670, 1587, 1029, 4000, 2448, 1456, 944, 2245]	12	Present	NA	NA	PRESENT	0.6985321044921875	97.8365581035614	99.8500349521637	100.90082693099976	101.25037908554076	103.9657371044159	4.115702152252197	[97.85480904579163, 97.97158598899841, 98.95594501495361, 99.12288403511047, 99.89035296440125, 99.99032807350159, 100.10713601112366, 100.22394514083862, 100.34080410003662, 100.45747804641724, 100.57431697845459, 100.69107913970947, 100.80792903900146, 100.92466402053833, 101.04160904884338, 101.15817308425903, 101.27502202987671, 101.3923020362854, 101.50861597061157, 101.62567210197449, 101.74224495887756, 101.9657371044159]	[97.86186762034048, 97.97853428700714, 98.96153428700714, 99.12823428700715, 99.87823428700715, 99.9949009536738, 100.11156762034047, 100.22823428700713, 100.34490095367379, 100.46156762034045, 100.5782342870071, 100.69490095367377, 100.81156762034043, 100.92823428700709, 101.04490095367375, 101.1615676203404, 101.27823428700707, 101.39490095367373, 101.51156762034039, 101.62823428700705, 101.7449009536737, 101.97823428700704]	2021_Jan_27_1054	59.93875086636228	1	1
11	18	FALSE	NA	v	['Y', 'R', 'H', 'W', 'V', 'B', 'E', 'Z', 'A', 'U', 'G', 'X', 'J', 'C', 'P', 'M']	[2670, 1587, 986, 2448, 2245, 760, 904, 2911, 697, 2059, 944, 4000, 1029, 829, 1456, 1224]	12	Present	NA	NA	PRESENT	0.27092504501342773	103.9599199295044	105.9665069580078	107.0168800354004	107.3669171333313	110.08210301399232	4.115596055984497	[103.9781711101532, 104.09476709365845, 105.07914614677429, 105.24610710144043, 105.99685001373291, 106.11368608474731, 106.23037195205688, 106.34723615646362, 106.46408700942993, 106.58091711997986, 106.69756007194519, 106.81453704833984, 106.93116617202759, 107.04804015159607, 107.16459918022156, 107.28139305114746, 107.398264169693, 107.51499605178833, 107.63207507133484, 107.74852395057678, 107.86539006233215, 108.082102060318]	[103.97823428700704, 104.0949009536737, 105.0779009536737, 105.24460095367371, 105.99460095367371, 106.11126762034037, 106.22793428700703, 106.34460095367369, 106.46126762034035, 106.57793428700701, 106.69460095367367, 106.81126762034033, 106.92793428700699, 107.04460095367365, 107.16126762034031, 107.27793428700697, 107.39460095367363, 107.51126762034029, 107.62793428700695, 107.74460095367361, 107.86126762034027, 108.0946009536736]	2021_Jan_27_1054	59.93875086636228	1	1
11	19	FALSE	AA	v	['B', 'P', 'R', 'Z', 'N', 'J', 'A', 'surprise', 'M', 'V', 'X', 'K', 'T', 'Y', 'U', 'S']	[760, 1456, 1587, 2911, 1335, 1029, 697, 'stimAuditory/all_stimAuditory/219.wav', 1224, 2245, 4000, 1122, 1888, 2670, 2059, 1731]	11	Present	stimAuditory/all_stimAuditory/119.wav	stimVisual/all_stimVisual/120.jpg	PRESENT	0.06023311614990234	110.08290195465088	112.08295106887816	113.0167191028595	113.36658310890198	116.19847011566162	4.115519046783447	[110.101154088974, 110.21805000305176, 111.20224714279175, 111.36932396888733, 112.11993503570557, 112.23686099052429, 112.35363101959229, 112.47040510177612, 112.58723616600037, 112.7040581703186, 112.82073616981506, 112.9375569820404, 113.05436301231384, 113.17096900939941, 113.28803205490112, 113.40468001365662, 113.52160310745239, 113.63813710212708, 113.75493812561035, 113.87183117866516, 113.97186708450317, 114.1984691619873]	[110.0946009536736, 110.21126762034027, 111.19426762034027, 111.36096762034028, 112.11096762034028, 112.22763428700694, 112.3443009536736, 112.46096762034026, 112.57763428700692, 112.69430095367358, 112.81096762034024, 112.9276342870069, 113.04430095367356, 113.16096762034022, 113.27763428700688, 113.39430095367354, 113.5109676203402, 113.62763428700686, 113.74430095367352, 113.86096762034018, 113.97763428700684, 114.21096762034017]	2021_Jan_27_1054	59.93875086636228	1	1
11	20	FALSE	NA	v	['V', 'U', 'Y', 'H', 'E', 'T', 'G', 'X', 'J', 'C', 'W', 'Z', 'S', 'K', 'A', 'N']	[2245, 2059, 2670, 986, 904, 1888, 944, 4000, 1029, 829, 2448, 2911, 1731, 1122, 697, 1335]	8	Present	NA	NA	PRESENT	0.10494399070739746	116.18942904472352	118.1991810798645	118.78376698493958	119.13281106948853	122.31483602523804	4.115654945373535	[116.20768117904663, 116.3245370388031, 117.30877208709717, 117.47563099861145, 118.22631812095642, 118.34329295158386, 118.46003317832947, 118.57684016227722, 118.693608045578, 118.81050610542297, 118.92739510536194, 119.04410815238953, 119.16063117980957, 119.27769112586975, 119.39424014091492, 119.51120615005493, 119.62775206565857, 119.74477195739746, 119.86155295372009, 119.97815012931824, 120.09525203704834, 120.31483817100525]	[116.21096762034017, 116.32763428700683, 117.31063428700683, 117.47733428700684, 118.22733428700684, 118.3440009536735, 118.46066762034016, 118.57733428700682, 118.69400095367348, 118.81066762034014, 118.9273342870068, 119.04400095367346, 119.16066762034012, 119.27733428700678, 119.39400095367344, 119.5106676203401, 119.62733428700676, 119.74400095367342, 119.86066762034008, 119.97733428700674, 120.0940009536734, 120.32733428700674]	2021_Jan_27_1054	59.93875086636228	1	1
11	21	FALSE	NA	v	['P', 'V', 'S', 'A', 'N', 'E', 'J', 'Z', 'X', 'M', 'C', 'W', 'Y', 'R', 'B', 'K']	[1456, 2245, 1731, 697, 1335, 904, 1029, 2911, 4000, 1224, 829, 2448, 2670, 1587, 760, 1122]	9	Present	NA	NA	PRESENT	0.14951205253601074	122.3128740787506	124.31554794311523	125.01609992980956	125.36610698699953	128.43120312690735	4.115655183792114	[122.33112597465515, 122.44767618179321, 123.43190217018127, 123.5986921787262, 124.34954810142517, 124.46653413772583, 124.58312511444092, 124.70014500617981, 124.81683111190796, 124.93372917175293, 125.05036616325378, 125.16729712486267, 125.28390717506409, 125.4008481502533, 125.51739501953125, 125.6342511177063, 125.75112915039062, 125.86799311637878, 125.9847800731659, 126.10140609741211, 126.2181990146637, 126.43120312690735]	[122.32733428700674, 122.4440009536734, 123.4270009536734, 123.5937009536734, 124.3437009536734, 124.46036762034007, 124.57703428700673, 124.69370095367339, 124.81036762034005, 124.9270342870067, 125.04370095367337, 125.16036762034003, 125.27703428700669, 125.39370095367335, 125.51036762034, 125.62703428700667, 125.74370095367333, 125.86036762033999, 125.97703428700665, 126.0937009536733, 126.21036762033997, 126.4437009536733]	2021_Jan_27_1054	59.93875086636228	1	1
11	22	FALSE	VV	v	['T', 'R', 'C', 'B', 'A', 'J', 'Y', 'N', 'surprise', 'G', 'K', 'X', 'Z', 'P', 'W', 'H']	[1888, 1587, 829, 760, 697, 1029, 2670, 1335, 'stimAuditory/all_stimAuditory/112.wav', 944, 1122, 4000, 2911, 1456, 2448, 986]	12	Present	NA	stimVisual/all_stimVisual/102.jpg	ABSENT	0.2665560245513916	128.41894006729126	130.43197298049927	131.4824891090393	131.8324990272522	134.54756999015808	4.1155970096588135	[128.43719100952148, 128.55394506454468, 129.5384361743927, 129.70535016059875, 130.47281312942505, 130.57275795936584, 130.68985199928284, 130.80638694763184, 130.9231550693512, 131.0401861667633, 131.15676498413086, 131.27363204956055, 131.40738797187805, 131.5071930885315, 131.62389707565308, 131.740895986557, 131.85746312141418, 131.97446417808533, 132.0910370349884, 132.20800018310547, 132.32473015785217, 132.54756903648376]	[128.4437009536733, 128.56036762033997, 129.54336762033998, 129.71006762033997, 130.46006762033997, 130.57673428700664, 130.69340095367332, 130.81006762034, 130.92673428700667, 131.04340095367334, 131.16006762034002, 131.2767342870067, 131.39340095367336, 131.51006762034004, 131.6267342870067, 131.7434009536734, 131.86006762034006, 131.97673428700674, 132.0934009536734, 132.21006762034008, 132.32673428700676, 132.56006762034008]	2021_Jan_27_1054	59.93875086636228	1	1
11	23	FALSE	NA	v	['M', 'K', 'G', 'J', 'W', 'N', 'Z', 'T', 'X', 'C', 'S', 'Y', 'V', 'A', 'U', 'P']	[1224, 1122, 944, 1029, 2448, 1335, 2911, 1888, 4000, 829, 1731, 2670, 2245, 697, 2059, 1456]	9	Present	NA	NA	PRESENT	0.04725098609924316	134.54217314720154	136.54815292358398	137.2486629486084	137.5986840724945	140.6639370918274	4.115784168243408	[134.56042408943176, 134.6772530078888, 135.6615810394287, 135.82836198806763, 136.57920503616333, 136.69619512557983, 136.8127691745758, 136.929701089859, 137.04643607139587, 137.1633231639862, 137.27989101409912, 137.39690494537354, 137.5136821269989, 137.63038301467896, 137.74705410003662, 137.86392998695374, 137.98077297210693, 138.09761714935303, 138.21423506736755, 138.3309769630432, 138.447988986969, 138.66393613815308]	[134.56006762034008, 134.67673428700675, 135.65973428700676, 135.82643428700675, 136.57643428700675, 136.69310095367342, 136.8097676203401, 136.92643428700677, 137.04310095367345, 137.15976762034012, 137.2764342870068, 137.39310095367347, 137.50976762034014, 137.62643428700682, 137.7431009536735, 137.85976762034016, 137.97643428700684, 138.0931009536735, 138.2097676203402, 138.32643428700686, 138.44310095367354, 138.67643428700686]	2021_Jan_27_1054	59.93875086636228	1	1
11	24	FALSE	NA	v	['M', 'C', 'A', 'H', 'B', 'Z', 'G', 'V', 'S', 'K', 'T', 'W', 'X', 'N', 'E', 'U']	[1224, 829, 697, 986, 760, 2911, 944, 2245, 1731, 1122, 1888, 2448, 4000, 1335, 904, 2059]	13	Present	NA	NA	PRESENT	1.1484758853912354	140.66533994674683	142.66473698616028	143.83182406425476	144.18161702156067	146.7803020477295	4.115565061569214	[140.68359112739563, 140.80055403709412, 141.78501296043396, 141.95173406600952, 142.7024450302124, 142.8196201324463, 142.93632411956787, 143.0528440475464, 143.16980600357056, 143.28650498390198, 143.40320897102356, 143.51993608474731, 143.6368751525879, 143.7536301612854, 143.8702621459961, 143.9871711730957, 144.10407710075378, 144.22066402435303, 144.33753108978271, 144.4374520778656, 144.55428814888, 144.7803020477295]	[140.67643428700686, 140.79310095367353, 141.77610095367353, 141.94280095367353, 142.69280095367353, 142.8094676203402, 142.92613428700687, 143.04280095367355, 143.15946762034022, 143.2761342870069, 143.39280095367357, 143.50946762034025, 143.62613428700692, 143.7428009536736, 143.85946762034027, 143.97613428700694, 144.09280095367362, 144.2094676203403, 144.32613428700697, 144.44280095367364, 144.5594676203403, 144.79280095367363]	2021_Jan_27_1054	59.93875086636228	1	1
11	25	FALSE	NA	v	['H', 'P', 'R', 'J', 'A', 'N', 'Y', 'Z', 'X', 'V', 'C', 'U', 'E', 'G', 'W', 'B']	[986, 1456, 1587, 1029, 697, 1335, 2670, 2911, 4000, 2245, 829, 2059, 904, 944, 2448, 760]	9	Present	NA	NA	PRESENT	0.09708285331726074	146.77195692062378	148.78114414215088	149.48134899139404	149.83146810531616	152.89667010307312	4.115525960922241	[146.7902090549469, 146.90683698654175, 147.89124417304993, 148.0579571723938, 148.8088231086731, 148.92575812339783, 149.04240918159485, 149.15942311286926, 149.27596998214722, 149.39274907112122, 149.5095100402832, 149.62652206420898, 149.74326610565186, 149.8599829673767, 149.976891040802, 150.09379506111145, 150.21029210090637, 150.32724809646606, 150.444020986557, 150.56069612503052, 150.67761301994324, 150.8966691493988]	[146.79280095367363, 146.9094676203403, 147.8924676203403, 148.0591676203403, 148.8091676203403, 148.92583428700698, 149.04250095367365, 149.15916762034033, 149.275834287007, 149.39250095367368, 149.50916762034035, 149.62583428700702, 149.7425009536737, 149.85916762034037, 149.97583428700705, 150.09250095367372, 150.2091676203404, 150.32583428700707, 150.44250095367374, 150.55916762034042, 150.6758342870071, 150.9091676203404]	2021_Jan_27_1054	59.93875086636228	1	1
11	26	FALSE	NA	v	['H', 'C', 'M', 'K', 'U', 'G', 'A', 'B', 'W', 'E', 'R', 'X', 'N', 'T', 'V', 'J']	[986, 829, 1224, 1122, 2059, 944, 697, 760, 2448, 904, 1587, 4000, 1335, 1888, 2245, 1029]	12	Present	NA	NA	PRESENT	0.08581113815307617	152.89527797698975	154.8974540233612	155.9490261077881	156.29801201820374	159.01303696632385	4.1155829429626465	[152.91352915763855, 153.030189037323, 154.0145399570465, 154.18137311935425, 154.93218302726746, 155.04893612861633, 155.1657280921936, 155.28258800506592, 155.3993420600891, 155.51606011390686, 155.63282704353333, 155.74951696395874, 155.86639499664307, 155.9830939769745, 156.0999629497528, 156.21679496765137, 156.33374404907227, 156.45018196105957, 156.5673050880432, 156.68405199050903, 156.80071210861206, 157.01303601264954]	[152.9091676203404, 153.0258342870071, 154.0088342870071, 154.17553428700708, 154.92553428700708, 155.04220095367376, 155.15886762034043, 155.2755342870071, 155.39220095367378, 155.50886762034045, 155.62553428700713, 155.7422009536738, 155.85886762034048, 155.97553428700715, 156.09220095367382, 156.2088676203405, 156.32553428700717, 156.44220095367385, 156.55886762034052, 156.6755342870072, 156.79220095367387, 157.0255342870072]	2021_Jan_27_1054	59.93875086636228	1	1
11	27	FALSE	NN	v	['V', 'M', 'E', 'Y', 'J', 'P', 'S', 'U', 'G', 'K', 'Z', 'C', 'A', 'B', 'N', 'R']	[2245, 1224, 904, 2670, 1029, 1456, 1731, 2059, 944, 1122, 2911, 829, 697, 760, 1335, 1587]	13	Absent	NA	NA	ABSENT	0.12301111221313477	159.0013530254364	161.01361894607544	162.1808500289917	162.5307469367981	165.12940216064453	4.115783214569092	[159.01960396766663, 159.13645696640015, 160.12075304985046, 160.28787803649902, 161.05531215667725, 161.15539002418518, 161.27205610275269, 161.38907408714294, 161.50569701194763, 161.62263417243958, 161.73935198783875, 161.8561351299286, 161.97273707389832, 162.08968305587769, 162.20639395713806, 162.32327508926392, 162.44027996063232, 162.55690097808838, 162.6734881401062, 162.79047417640686, 162.90705609321594, 163.12940216064453]	[159.0255342870072, 159.14220095367386, 160.12520095367387, 160.29190095367386, 161.04190095367386, 161.15856762034053, 161.2752342870072, 161.39190095367388, 161.50856762034056, 161.62523428700723, 161.7419009536739, 161.85856762034058, 161.97523428700725, 162.09190095367393, 162.2085676203406, 162.32523428700728, 162.44190095367395, 162.55856762034063, 162.6752342870073, 162.79190095367397, 162.90856762034065, 163.14190095367397]	2021_Jan_27_1054	59.93875086636228	1	1
11	28	FALSE	VA	v	['J', 'A', 'E', 'H', 'S', 'surprise', 'N', 'Z', 'X', 'B', 'W', 'T', 'K', 'Y', 'M', 'C']	[1029, 697, 904, 986, 1731, 'stimAuditory/all_stimAuditory/224.wav', 1335, 2911, 4000, 760, 2448, 1888, 1122, 2670, 1224, 829]	9	Present	NA	stimVisual/all_stimVisual/111.jpg	PRESENT	0.02343487739562988	165.1245560646057	167.13007402420044	167.83055806159973	168.18063807487488	171.24576997756958	4.115695953369141	[165.14280700683594, 165.25980615615845, 166.24422907829285, 166.4107620716095, 167.16162300109863, 167.27863216400146, 167.39526295661926, 167.51210403442383, 167.62875604629517, 167.74571704864502, 167.86236095428467, 167.97929215431213, 168.09590411186218, 168.21288108825684, 168.32944703102112, 168.4462649822235, 168.56333994865417, 168.67993307113647, 168.7969241142273, 168.91365694999695, 169.03052496910095, 169.24576902389526]	[165.14190095367397, 165.25856762034064, 166.24156762034065, 166.40826762034064, 167.15826762034064, 167.2749342870073, 167.391600953674, 167.50826762034066, 167.62493428700733, 167.741600953674, 167.85826762034068, 167.97493428700736, 168.09160095367403, 168.2082676203407, 168.32493428700738, 168.44160095367405, 168.55826762034073, 168.6749342870074, 168.79160095367408, 168.90826762034075, 169.02493428700743, 169.25826762034075]	2021_Jan_27_1054	59.93875086636228	1	1
11	29	FALSE	NN	v	['J', 'U', 'A', 'Y', 'N', 'K', 'R', 'H', 'W', 'S', 'T', 'Z', 'E', 'B', 'G', 'P']	[1029, 2059, 697, 2670, 1335, 1122, 1587, 986, 2448, 1731, 1888, 2911, 904, 760, 944, 1456]	11	Absent	NA	NA	ABSENT	0.12486696243286131	171.2479429244995	173.24638104438782	174.18011498451233	174.53030705451965	177.3621370792389	4.115756034851074	[171.26619410514832, 171.38296914100647, 172.35075402259827, 172.5172779560089, 173.28484106063843, 173.40181303024292, 173.51835703849792, 173.63513708114624, 173.7521481513977, 173.86896514892578, 173.98571300506592, 174.10233402252197, 174.21902799606323, 174.33584713935852, 174.4528570175171, 174.56945514678955, 174.66954517364502, 174.7862901687622, 174.903174161911, 175.01997208595276, 175.13680696487427, 175.36213612556458]	[171.25826762034075, 171.37493428700742, 172.35793428700742, 172.52463428700742, 173.27463428700742, 173.3913009536741, 173.50796762034076, 173.62463428700744, 173.7413009536741, 173.8579676203408, 173.97463428700746, 174.09130095367414, 174.2079676203408, 174.32463428700748, 174.44130095367416, 174.55796762034083, 174.6746342870075, 174.79130095367418, 174.90796762034086, 175.02463428700753, 175.1413009536742, 175.37463428700752]	2021_Jan_27_1054	59.93875086636228	1	1
11	30	FALSE	NN	v	['P', 'A', 'V', 'B', 'H', 'W', 'U', 'J', 'Z', 'S', 'R', 'E', 'G', 'K', 'T', 'Y']	[1456, 697, 2245, 760, 986, 2448, 2059, 1029, 2911, 1731, 1587, 904, 944, 1122, 1888, 2670]	14	Absent	NA	NA	ABSENT	0.1931610107421875	177.35434103012085	179.36290192604065	180.64648413658145	180.9966671466827	183.4785029888153	4.115601062774658	[177.37259197235107, 177.48946714401245, 178.47375297546387, 178.6403911113739, 179.39127898216248, 179.5082061290741, 179.6248791217804, 179.74173212051392, 179.85860514640808, 179.9752061367035, 180.0922040939331, 180.2090380191803, 180.32552194595337, 180.442556142807, 180.55930399894714, 180.67618107795715, 180.79293012619019, 180.90957403182983, 181.02645611763, 181.14312195777893, 181.26011204719543, 181.478502035141]	[177.37463428700752, 177.4913009536742, 178.4743009536742, 178.6410009536742, 179.3910009536742, 179.50766762034087, 179.62433428700754, 179.74100095367422, 179.8576676203409, 179.97433428700757, 180.09100095367424, 180.2076676203409, 180.3243342870076, 180.44100095367426, 180.55766762034094, 180.6743342870076, 180.79100095367428, 180.90766762034096, 181.02433428700763, 181.1410009536743, 181.25766762034098, 181.4910009536743]	2021_Jan_27_1054	59.93875086636228	1	1
11	31	FALSE	AV	v	['B', 'Y', 'V', 'H', 'K', 'S', 'Z', 'P', 'W', 'surprise', 'R', 'U', 'X', 'E', 'N', 'G']	[760, 2670, 2245, 986, 1122, 1731, 2911, 1456, 2448, 'stimAuditory/all_stimAuditory/223.wav', 1587, 2059, 4000, 904, 1335, 944]	13	Present	stimAuditory/all_stimAuditory/219.wav	stimVisual/all_stimVisual/222.jpg	PRESENT	0.14279794692993164	183.4776690006256	185.4794239997864	186.64628195762631	186.99618792533877	189.5948691368103	4.115445137023926	[183.49592113494873, 183.61267805099487, 184.5967230796814, 184.76385402679443, 185.51458406448364, 185.63127398490906, 185.7481391429901, 185.86499309539795, 185.981693983078, 186.0983531475067, 186.21528601646423, 186.33194017410278, 186.44903111457825, 186.56565809249878, 186.68246817588806, 186.79966497421265, 186.9160771369934, 187.0329451560974, 187.14959812164307, 187.26649403572083, 187.36632800102234, 187.5948691368103]	[183.4910009536743, 183.60766762034098, 184.59066762034098, 184.75736762034097, 185.50736762034097, 185.62403428700765, 185.74070095367432, 185.857367620341, 185.97403428700767, 186.09070095367434, 186.20736762034102, 186.3240342870077, 186.44070095367437, 186.55736762034104, 186.67403428700771, 186.7907009536744, 186.90736762034106, 187.02403428700774, 187.1407009536744, 187.25736762034109, 187.37403428700776, 187.60736762034108]	2021_Jan_27_1054	59.93875086636228	1	1
11	32	FALSE	NV	v	['G', 'Z', 'T', 'J', 'H', 'W', 'C', 'B', 'U', 'N', 'E', 'S', 'X', 'R', 'Y', 'P']	[944, 2911, 1888, 1029, 986, 2448, 829, 760, 2059, 1335, 904, 1731, 4000, 1587, 2670, 1456]	13	Present	NA	NA	PRESENT	0.07525897026062012	189.58387398719788	191.59561109542847	192.7627799510956	193.11260294914248	195.71123695373535	4.115625858306885	[189.60213613510132, 189.71893095970154, 190.7034649848938, 190.8702380657196, 191.6377010345459, 191.73780417442322, 191.85440015792847, 191.97134113311768, 192.08794903755188, 192.20499110221863, 192.32162809371948, 192.43861198425293, 192.55539798736572, 192.67213916778564, 192.7887580394745, 192.9057900905609, 193.0224289894104, 193.13930916786194, 193.25609612464905, 193.37309908866882, 193.48977303504944, 193.71123695373535]	[189.60736762034108, 189.72403428700775, 190.70703428700776, 190.87373428700775, 191.62373428700775, 191.74040095367442, 191.8570676203411, 191.97373428700777, 192.09040095367445, 192.20706762034112, 192.3237342870078, 192.44040095367447, 192.55706762034114, 192.67373428700782, 192.7904009536745, 192.90706762034117, 193.02373428700784, 193.14040095367451, 193.2570676203412, 193.37373428700786, 193.49040095367454, 193.72373428700786]	2021_Jan_27_1054	59.93875086636228	1	1
11	33	FALSE	NN	v	['H', 'B', 'T', 'N', 'E', 'K', 'C', 'S', 'A', 'M', 'U', 'Y', 'W', 'G', 'J', 'P']	[986, 760, 1888, 1335, 904, 1122, 829, 1731, 697, 1224, 2059, 2670, 2448, 944, 1029, 1456]	8	Absent	NA	NA	ABSENT	0.21572518348693848	195.7070391178131	197.71189093589783	198.2959189414978	198.6457381248474	201.82760310173035	4.1157121658325195	[195.72529006004333, 195.84216713905334, 196.82646203041077, 196.9934320449829, 197.74409413337708, 197.86096215248108, 197.97756600379944, 198.09454703330994, 198.21132898330688, 198.32809400558472, 198.4448630809784, 198.56151795387268, 198.67855215072632, 198.79522013664246, 198.91193103790283, 199.02879309654236, 199.14569997787476, 199.26234912872314, 199.3792850971222, 199.49595499038696, 199.6127951145172, 199.82760214805603]	[195.72373428700786, 195.84040095367453, 196.82340095367454, 196.99010095367453, 197.74010095367453, 197.8567676203412, 197.97343428700788, 198.09010095367455, 198.20676762034122, 198.3234342870079, 198.44010095367457, 198.55676762034125, 198.67343428700792, 198.7901009536746, 198.90676762034127, 199.02343428700794, 199.14010095367462, 199.2567676203413, 199.37343428700797, 199.49010095367464, 199.60676762034132, 199.84010095367464]	2021_Jan_27_1054	59.93875086636228	1	1
11	34	FALSE	NA	v	['G', 'U', 'K', 'A', 'B', 'H', 'V', 'X', 'S', 'T', 'E', 'Y', 'W', 'Z', 'N', 'M']	[944, 2059, 1122, 697, 760, 986, 2245, 4000, 1731, 1888, 904, 2670, 2448, 2911, 1335, 1224]	8	Present	NA	NA	PRESENT	0.12504887580871582	201.83019399642944	203.82834100723267	204.41206192970276	204.762099981308	207.94396996498108	4.115628957748413	[201.84844517707825, 201.9653160572052, 202.93287801742554, 203.09968209266663, 203.86763715744019, 203.98415899276733, 204.10103607177734, 204.21767711639404, 204.33459401130676, 204.45118117332458, 204.5681459903717, 204.6680371761322, 204.78475213050842, 204.9182779788971, 205.0184290409088, 205.135192155838, 205.2519850730896, 205.36878514289856, 205.4855661392212, 205.60235810279846, 205.71933007240295, 205.94396901130676]	[201.84010095367464, 201.9567676203413, 202.9397676203413, 203.1064676203413, 203.8564676203413, 203.97313428700798, 204.08980095367465, 204.20646762034133, 204.323134287008, 204.43980095367468, 204.55646762034135, 204.67313428700803, 204.7898009536747, 204.90646762034137, 205.02313428700805, 205.13980095367472, 205.2564676203414, 205.37313428700807, 205.48980095367475, 205.60646762034142, 205.7231342870081, 205.9564676203414]	2021_Jan_27_1054	59.93875086636228	1	1
11	35	FALSE	NA	v	['C', 'T', 'A', 'H', 'J', 'U', 'M', 'Z', 'W', 'Y', 'R', 'X', 'K', 'S', 'G', 'E']	[829, 1888, 697, 986, 1029, 2059, 1224, 2911, 2448, 2670, 1587, 4000, 1122, 1731, 944, 904]	12	Present	NA	NA	PRESENT	0.07346296310424805	207.9366240501404	209.944491147995	210.99511694908145	211.34531712532043	214.0603461265564	4.115854978561401	[207.9548749923706, 208.07178807258606, 209.0561490058899, 209.22313594818115, 209.97356414794922, 210.09069395065308, 210.20729899406433, 210.3239779472351, 210.44085717201233, 210.5578510761261, 210.67456102371216, 210.79147911071777, 210.90820407867432, 211.02486300468445, 211.14180898666382, 211.25862002372742, 211.37537002563477, 211.49224305152893, 211.60891795158386, 211.72553706169128, 211.84244894981384, 212.06033611297607]	[207.9564676203414, 208.0731342870081, 209.0561342870081, 209.22283428700808, 209.97283428700808, 210.08950095367476, 210.20616762034143, 210.3228342870081, 210.43950095367478, 210.55616762034145, 210.67283428700813, 210.7895009536748, 210.90616762034148, 211.02283428700815, 211.13950095367483, 211.2561676203415, 211.37283428700817, 211.48950095367485, 211.60616762034152, 211.7228342870082, 211.83950095367487, 212.0728342870082]	2021_Jan_27_1054	59.93875086636228	1	1
11	36	FALSE	NV	v	['R', 'M', 'S', 'W', 'G', 'B', 'H', 'K', 'N', 'T', 'E', 'A', 'V', 'X', 'C', 'Z']	[1587, 1224, 1731, 2448, 944, 760, 986, 1122, 1335, 1888, 904, 697, 2245, 4000, 829, 2911]	14	Present	NA	NA	PRESENT	0.03901100158691406	214.06017303466797	216.06100606918335	217.34482192993164	217.69483613967896	220.1767020225525	4.115695953369141	[214.0784239768982, 214.1949610710144, 215.17943501472473, 215.34628200531006, 216.09690117835999, 216.21364617347717, 216.33050203323364, 216.44732213020325, 216.56397008895874, 216.68081998825073, 216.79824709892273, 216.91451716423035, 217.03131198883057, 217.1479251384735, 217.26498103141785, 217.38158702850342, 217.49832105636597, 217.61523604393005, 217.73194217681885, 217.84873414039612, 217.94881010055542, 218.1767020225525]	[214.0728342870082, 214.18950095367487, 215.17250095367487, 215.33920095367486, 216.08920095367486, 216.20586762034154, 216.3225342870082, 216.43920095367488, 216.55586762034156, 216.67253428700823, 216.7892009536749, 216.90586762034158, 217.02253428700826, 217.13920095367493, 217.2558676203416, 217.37253428700828, 217.48920095367495, 217.60586762034163, 217.7225342870083, 217.83920095367498, 217.95586762034165, 218.18920095367497]	2021_Jan_27_1054	59.93875086636228	1	1
11	37	FALSE	NA	v	['W', 'Y', 'H', 'J', 'M', 'A', 'T', 'U', 'X', 'S', 'P', 'N', 'C', 'R', 'B', 'E']	[2448, 2670, 986, 1029, 1224, 697, 1888, 2059, 4000, 1731, 1456, 1335, 829, 1587, 760, 904]	9	Present	NA	NA	PRESENT	0.0913259983062744	220.16651010513303	222.17730808258057	222.87824892997745	223.22778010368347	226.29307007789612	4.115761995315552	[220.18476104736328, 220.3013951778412, 221.285786151886, 221.452495098114, 222.20330095291138, 222.32018995285034, 222.4368851184845, 222.5539071559906, 222.67050409317017, 222.78742003440857, 222.90421295166016, 223.02099108695984, 223.13769602775574, 223.2544231414795, 223.3716480731964, 223.48825001716614, 223.6049029827118, 223.72187995910645, 223.8384370803833, 223.95525097846985, 224.07208108901978, 224.29307007789612]	[220.18920095367497, 220.30586762034164, 221.28886762034165, 221.45556762034164, 222.20556762034164, 222.3222342870083, 222.438900953675, 222.55556762034166, 222.67223428700834, 222.788900953675, 222.90556762034169, 223.02223428700836, 223.13890095367503, 223.2555676203417, 223.37223428700838, 223.48890095367506, 223.60556762034173, 223.7222342870084, 223.83890095367508, 223.95556762034175, 224.07223428700843, 224.30556762034175]	2021_Jan_27_1054	59.93875086636228	1	1
11	38	FALSE	VA	v	['W', 'A', 'Y', 'E', 'H', 'C', 'Z', 'R', 'B', 'T', 'surprise', 'K', 'J', 'X', 'N', 'P']	[2448, 697, 2670, 904, 986, 829, 2911, 1587, 760, 1888, 'stimAuditory/all_stimAuditory/118.wav', 1122, 1029, 4000, 1335, 1456]	14	Present	NA	stimVisual/all_stimVisual/106.jpg	PRESENT	0.22409415245056152	226.28940200805664	228.29382395744324	229.5775611400604	229.9274139404297	232.40943717956543	4.115613222122192	[226.30765414237976, 226.42460298538208, 227.4088261127472, 227.5758080482483, 228.32637310028076, 228.4431540966034, 228.56022310256958, 228.67695713043213, 228.79383397102356, 228.91058707237244, 229.02739214897156, 229.14406394958496, 229.26078605651855, 229.37764811515808, 229.49459099769592, 229.61115097999573, 229.72813606262207, 229.8449671268463, 229.96173095703125, 230.07824110984802, 230.19528913497925, 230.40943717956543]	[226.30556762034175, 226.42223428700842, 227.40523428700843, 227.57193428700842, 228.32193428700842, 228.4386009536751, 228.55526762034177, 228.67193428700844, 228.78860095367511, 228.9052676203418, 229.02193428700846, 229.13860095367514, 229.2552676203418, 229.3719342870085, 229.48860095367516, 229.60526762034183, 229.7219342870085, 229.83860095367518, 229.95526762034186, 230.07193428700853, 230.1886009536752, 230.42193428700853]	2021_Jan_27_1054	59.93875086636228	1	1
11	39	FALSE	NA	v	['J', 'Y', 'U', 'V', 'G', 'W', 'C', 'B', 'E', 'T', 'K', 'P', 'M', 'X', 'Z', 'H']	[1029, 2670, 2059, 2245, 944, 2448, 829, 760, 904, 1888, 1122, 1456, 1224, 4000, 2911, 986]	14	Present	NA	NA	PRESENT	0.12511301040649414	232.41264700889587	234.4100480079651	235.69415402412417	236.04386401176453	238.52580308914185	4.115755081176758	[232.430899143219, 232.53093194961548, 233.51573204994202, 233.6822111606598, 234.44976711273193, 234.54967713356018, 234.6834361553192, 234.78333711624146, 234.90002417564392, 235.01683712005615, 235.13366413116455, 235.25046610832214, 235.36724400520325, 235.48402905464172, 235.60090398788452, 235.71764397621155, 235.83456897735596, 235.95124506950378, 236.0680911540985, 236.1847550868988, 236.30167698860168, 236.52580213546753]	[232.42193428700853, 232.5386009536752, 233.5216009536752, 233.6883009536752, 234.4383009536752, 234.55496762034187, 234.67163428700854, 234.78830095367522, 234.9049676203419, 235.02163428700857, 235.13830095367524, 235.25496762034192, 235.3716342870086, 235.48830095367526, 235.60496762034194, 235.7216342870086, 235.8383009536753, 235.95496762034196, 236.07163428700864, 236.1883009536753, 236.30496762034198, 236.5383009536753]	2021_Jan_27_1054	59.93875086636228	1	1
11	40	FALSE	NV	v	['V', 'R', 'S', 'T', 'A', 'E', 'Z', 'U', 'Y', 'B', 'N', 'P', 'X', 'C', 'J', 'W']	[2245, 1587, 1731, 1888, 697, 904, 2911, 2059, 2670, 760, 1335, 1456, 4000, 829, 1029, 2448]	13	Present	NA	NA	PRESENT	0.15385818481445312	238.51906204223633	240.52647399902344	241.69365692138672	242.04385113716123	244.64216899871823	4.115694999694824	[238.53731203079224, 238.65425610542297, 239.6387071609497, 239.80539417266846, 240.55606412887573, 240.67291808128357, 240.7896430492401, 240.90668106079102, 241.02342700958252, 241.14026498794556, 241.25699996948242, 241.37359499931335, 241.49056005477905, 241.60738801956177, 241.72418999671936, 241.84083700180054, 241.9578549861908, 242.074481010437, 242.19136595726013, 242.30792617797852, 242.42477202415466, 242.64216995239258]	[238.5383009536753, 238.65496762034198, 239.63796762034198, 239.80466762034197, 240.55466762034197, 240.67133428700865, 240.78800095367532, 240.904667620342, 241.02133428700867, 241.13800095367534, 241.25466762034202, 241.3713342870087, 241.48800095367537, 241.60466762034204, 241.72133428700872, 241.8380009536754, 241.95466762034206, 242.07133428700874, 242.1880009536754, 242.3046676203421, 242.42133428700876, 242.65466762034208]	2021_Jan_27_1054	59.93875086636228	1	1
11	41	FALSE	NA	v	['M', 'J', 'T', 'U', 'C', 'K', 'R', 'E', 'Z', 'A', 'G', 'X', 'W', 'Y', 'S', 'H']	[1224, 1029, 1888, 2059, 829, 1122, 1587, 904, 2911, 697, 944, 4000, 2448, 2670, 1731, 986]	12	Present	NA	NA	PRESENT	0.16715502738952637	244.642560005188	246.6430320739746	247.69340705871585	248.0433080196381	250.7585370540619	4.11550498008728	[244.6608121395111, 244.77732706069946, 245.7617039680481, 245.9287519454956, 246.67927718162537, 246.7968029975891, 246.91304397583008, 247.02963304519653, 247.14666295051575, 247.26339411735535, 247.38023614883423, 247.49688911437988, 247.61384916305542, 247.73048210144043, 247.84736013412476, 247.9642150402069, 248.0809621810913, 248.19761204719543, 248.31444215774536, 248.4313440322876, 248.53131008148193, 248.75853610038757]	[244.65466762034208, 244.77133428700876, 245.75433428700876, 245.92103428700875, 246.67103428700875, 246.78770095367543, 246.9043676203421, 247.02103428700877, 247.13770095367545, 247.25436762034212, 247.3710342870088, 247.48770095367547, 247.60436762034215, 247.72103428700882, 247.8377009536755, 247.95436762034217, 248.07103428700884, 248.18770095367552, 248.3043676203422, 248.42103428700887, 248.53770095367554, 248.77103428700886]	2021_Jan_27_1054	59.93875086636228	1	1
11	42	FALSE	AV	v	['V', 'P', 'N', 'G', 'B', 'R', 'S', 'T', 'surprise', 'Z', 'Y', 'X', 'M', 'E', 'A', 'C']	[2245, 1456, 1335, 944, 760, 1587, 1731, 1888, 'stimAuditory/all_stimAuditory/101.wav', 2911, 2670, 4000, 1224, 904, 697, 829]	12	Present	stimAuditory/all_stimAuditory/112.wav	stimVisual/all_stimVisual/119.jpg	PRESENT	0.2275240421295166	250.74880194664	252.75923204421997	253.810045003891	254.15965700149536	256.8749029636383	4.115670919418335	[250.76705312728882, 250.88383507728577, 251.86834597587585, 252.03497004508972, 252.7856900691986, 252.90270400047302, 253.01937913894653, 253.13624095916748, 253.252995967865, 253.3698489665985, 253.4865870475769, 253.6033320426941, 253.73699617385864, 253.8369710445404, 253.95385813713074, 254.07042813301086, 254.1874749660492, 254.30402398109436, 254.42126607894897, 254.53758597373962, 254.65452313423157, 254.874902009964]	[250.77103428700886, 250.88770095367553, 251.87070095367554, 252.03740095367553, 252.78740095367553, 252.9040676203422, 253.02073428700888, 253.13740095367555, 253.25406762034223, 253.3707342870089, 253.48740095367558, 253.60406762034225, 253.72073428700892, 253.8374009536756, 253.95406762034227, 254.07073428700895, 254.18740095367562, 254.3040676203423, 254.42073428700897, 254.53740095367564, 254.65406762034232, 254.88740095367564]	2021_Jan_27_1054	59.93875086636228	1	1
11	43	FALSE	NN	v	['C', 'H', 'N', 'S', 'W', 'Z', 'E', 'J', 'T', 'A', 'Y', 'B', 'P', 'G', 'V', 'U']	[829, 986, 1335, 1731, 2448, 2911, 904, 1029, 1888, 697, 2670, 760, 1456, 944, 2245, 2059]	13	Absent	NA	NA	ABSENT	0.38437891006469727	256.8719251155853	258.8757629394531	260.042711019516	260.3929340839386	262.9912691116333	4.115506172180176	[256.89017510414124, 257.0069191455841, 257.991494178772, 258.1582860946655, 258.9090530872345, 259.0259630680084, 259.1426811218262, 259.25923895835876, 259.37611508369446, 259.4928641319275, 259.60985016822815, 259.72665309906006, 259.84344696998596, 259.96015310287476, 260.07698011398315, 260.19369316101074, 260.3105630874634, 260.42724108695984, 260.5440821647644, 260.66089510917664, 260.77770709991455, 260.9912700653076]	[256.88740095367564, 257.0040676203423, 257.9870676203423, 258.1537676203423, 258.9037676203423, 259.020434287009, 259.13710095367566, 259.25376762034233, 259.370434287009, 259.4871009536757, 259.60376762034235, 259.720434287009, 259.8371009536757, 259.9537676203424, 260.07043428700905, 260.1871009536757, 260.3037676203424, 260.4204342870091, 260.53710095367575, 260.6537676203424, 260.7704342870091, 261.00376762034244]	2021_Jan_27_1054	59.93875086636228	1	1
11	44	FALSE	NA	v	['P', 'A', 'C', 'G', 'M', 'B', 'S', 'Z', 'E', 'T', 'V', 'X', 'J', 'N', 'Y', 'U']	[1456, 697, 829, 944, 1224, 760, 1731, 2911, 904, 1888, 2245, 4000, 1029, 1335, 2670, 2059]	12	Present	NA	NA	PRESENT	0.1094050407409668	262.9783339500427	264.9922180175781	266.04228711128235	266.39245200157166	269.10763716697693	4.115419149398804	[262.9965851306915, 263.1133921146393, 264.09802317619324, 264.2646300792694, 265.03249311447144, 265.13214111328125, 265.24899315834045, 265.3657810688019, 265.48257398605347, 265.5993790626526, 265.7161591053009, 265.83292412757874, 265.949716091156, 266.06650495529175, 266.18323516845703, 266.30007004737854, 266.4169330596924, 266.5336060523987, 266.65065002441406, 266.7671911716461, 266.8842489719391, 267.10763597488403]	[263.00376762034244, 263.1204342870091, 264.1034342870091, 264.2701342870091, 265.0201342870091, 265.1368009536758, 265.25346762034246, 265.37013428700914, 265.4868009536758, 265.6034676203425, 265.72013428700916, 265.83680095367583, 265.9534676203425, 266.0701342870092, 266.18680095367586, 266.30346762034253, 266.4201342870092, 266.5368009536759, 266.65346762034255, 266.7701342870092, 266.8868009536759, 267.12013428700925]	2021_Jan_27_1054	59.93875086636228	1	1
11	45	FALSE	NV	v	['P', 'G', 'B', 'V', 'T', 'J', 'M', 'Z', 'E', 'X', 'S', 'K', 'C', 'W', 'A', 'H']	[1456, 944, 760, 2245, 1888, 1029, 1224, 2911, 904, 4000, 1731, 1122, 829, 2448, 697, 986]	10	Present	NA	NA	PRESENT	0.25009679794311523	269.1014840602875	271.10819911956787	271.92540407180786	272.2753610610962	275.22400212287903	4.115803003311157	[269.1197350025177, 269.23663997650146, 270.2211329936981, 270.3877511024475, 271.13865399360657, 271.2554850578308, 271.37217712402344, 271.4890811443329, 271.60569405555725, 271.72249603271484, 271.839476108551, 271.9562511444092, 272.0731360912323, 272.1898670196533, 272.30664014816284, 272.42320013046265, 272.5401020050049, 272.65687799453735, 272.77368903160095, 272.8904480934143, 273.00735998153687, 273.22400307655334]	[269.12013428700925, 269.2368009536759, 270.21980095367593, 270.3865009536759, 271.1365009536759, 271.2531676203426, 271.36983428700927, 271.48650095367594, 271.6031676203426, 271.7198342870093, 271.83650095367597, 271.95316762034264, 272.0698342870093, 272.186500953676, 272.30316762034266, 272.41983428700934, 272.536500953676, 272.6531676203427, 272.76983428700936, 272.88650095367603, 273.0031676203427, 273.23650095367606]	2021_Jan_27_1054	59.93875086636228	1	1
11	46	FALSE	NA	v	['V', 'W', 'S', 'Y', 'E', 'T', 'K', 'X', 'U', 'M', 'H', 'G', 'J', 'P', 'N', 'R']	[2245, 2448, 1731, 2670, 904, 1888, 1122, 4000, 2059, 1224, 986, 944, 1029, 1456, 1335, 1587]	8	Present	NA	NA	ABSENT	0.32727694511413574	275.22510504722595	277.2247030735016	277.8087959289551	278.1589939594269	281.34036898612976	4.115665912628174	[275.2433571815491, 275.3596701622009, 276.3440971374512, 276.5108370780945, 277.26165199279785, 277.3787331581116, 277.49541997909546, 277.6120731830597, 277.7291259765625, 277.8458950519562, 277.96240496635437, 278.0792829990387, 278.19631910324097, 278.31299114227295, 278.4297151565552, 278.5465121269226, 278.6631419658661, 278.78019309043884, 278.89694714546204, 279.0137469768524, 279.11376214027405, 279.34036898612976]	[275.23650095367606, 275.35316762034273, 276.33616762034274, 276.5028676203427, 277.2528676203427, 277.3695342870094, 277.4862009536761, 277.60286762034275, 277.7195342870094, 277.8362009536761, 277.9528676203428, 278.06953428700945, 278.1862009536761, 278.3028676203428, 278.41953428700947, 278.53620095367614, 278.6528676203428, 278.7695342870095, 278.88620095367617, 279.00286762034284, 279.1195342870095, 279.35286762034286]	2021_Jan_27_1054	59.93875086636228	1	1
11	47	FALSE	AA	v	['E', 'P', 'W', 'N', 'V', 'surprise', 'A', 'U', 'X', 'J', 'R', 'G', 'H', 'T', 'M', 'B']	[904, 1456, 2448, 1335, 2245, 'stimAuditory/all_stimAuditory/109.wav', 697, 2059, 4000, 1029, 1587, 944, 986, 1888, 1224, 760]	9	Present	stimAuditory/all_stimAuditory/224.wav	stimVisual/all_stimVisual/210.jpg	PRESENT	0.12382817268371582	281.3311040401459	283.3412780761719	284.04149103164673	284.39182114601135	287.4567370414734	4.115458965301514	[281.3493549823761, 281.4664080142975, 282.4506411552429, 282.6173520088196, 283.36814618110657, 283.48510098457336, 283.60184717178345, 283.71854400634766, 283.8353691101074, 283.96902894973755, 284.0691111087799, 284.18596506118774, 284.30276012420654, 284.4197030067444, 284.53619503974915, 284.65280508995056, 284.76986598968506, 284.8866901397705, 285.00335001945496, 285.1200301647186, 285.23681902885437, 285.4567379951477]	[281.35286762034286, 281.46953428700954, 282.45253428700954, 282.61923428700953, 283.36923428700953, 283.4859009536762, 283.6025676203429, 283.71923428700956, 283.83590095367623, 283.9525676203429, 284.0692342870096, 284.18590095367625, 284.3025676203429, 284.4192342870096, 284.5359009536763, 284.65256762034295, 284.7692342870096, 284.8859009536763, 285.002567620343, 285.11923428700965, 285.2359009536763, 285.46923428700967]	2021_Jan_27_1054	59.93875086636228	1	1
11	48	FALSE	NN	v	['R', 'A', 'V', 'Z', 'J', 'P', 'B', 'K', 'T', 'W', 'U', 'M', 'S', 'H', 'N', 'C']	[1587, 697, 2245, 2911, 1029, 1456, 760, 1122, 1888, 2448, 2059, 1224, 1731, 986, 1335, 829]	13	Absent	NA	NA	ABSENT	0.16846489906311035	287.45447301864624	289.4574730396271	290.6245241165161	290.9751739501953	293.5731019973755	4.115628957748413	[287.4727530479431, 287.5893681049347, 288.5737090110779, 288.7405710220337, 289.49149203300476, 289.6081781387329, 289.7251510620117, 289.8416841030121, 289.9587199687958, 290.0753951072693, 290.1920700073242, 290.30897307395935, 290.4258711338043, 290.5425720214844, 290.65935802459717, 290.7761821746826, 290.8927421569824, 291.0096471309662, 291.1264271736145, 291.2432301044464, 291.36003017425537, 291.5731019973755]	[287.46923428700967, 287.58590095367634, 288.56890095367635, 288.73560095367634, 289.48560095367634, 289.602267620343, 289.7189342870097, 289.83560095367636, 289.95226762034304, 290.0689342870097, 290.1856009536764, 290.30226762034306, 290.41893428700973, 290.5356009536764, 290.6522676203431, 290.76893428700976, 290.88560095367643, 291.0022676203431, 291.1189342870098, 291.23560095367645, 291.3522676203431, 291.5856009536765]	2021_Jan_27_1054	59.93875086636228	1	1
11	49	FALSE	NV	v	['P', 'Z', 'W', 'E', 'G', 'A', 'R', 'Y', 'T', 'B', 'X', 'C', 'U', 'M', 'J', 'V']	[1456, 2911, 2448, 904, 944, 697, 1587, 2670, 1888, 760, 4000, 829, 2059, 1224, 1029, 2245]	11	Present	NA	NA	PRESENT	0.1816620826721191	293.5607330799103	295.57367610931396	296.50755310058594	296.8576350212097	299.6894690990448	4.115792989730835	[293.5789840221405, 293.6957440376282, 294.68052101135254, 294.846960067749, 295.61450004577637, 295.71454906463623, 295.83137106895447, 295.94839215278625, 296.0649790763855, 296.1817681789398, 296.2985751628876, 296.41540813446045, 296.53226113319397, 296.64886808395386, 296.76583194732666, 296.88246512413025, 296.99949407577515, 297.1160349845886, 297.23307609558105, 297.3497200012207, 297.4665470123291, 297.6894700527191]	[293.5856009536765, 293.70226762034315, 294.68526762034315, 294.85196762034315, 295.60196762034315, 295.7186342870098, 295.8353009536765, 295.95196762034317, 296.06863428700984, 296.1853009536765, 296.3019676203432, 296.41863428700987, 296.53530095367654, 296.6519676203432, 296.7686342870099, 296.88530095367656, 297.00196762034324, 297.1186342870099, 297.2353009536766, 297.35196762034326, 297.46863428700993, 297.7019676203433]	2021_Jan_27_1054	59.93875086636228	1	1
11	50	FALSE	VA	v	['H', 'J', 'W', 'B', 'C', 'surprise', 'Y', 'M', 'X', 'P', 'Z', 'G', 'S', 'V', 'A', 'U']	[986, 1029, 2448, 760, 829, 'stimAuditory/all_stimAuditory/102.wav', 2670, 1224, 4000, 1456, 2911, 944, 1731, 2245, 697, 2059]	9	Present	NA	stimVisual/all_stimVisual/113.jpg	PRESENT	0.5383927822113037	299.684063911438	301.69031500816345	302.3907389640808	302.74097514152527	305.8058371543884	4.115522146224976	[299.7023150920868, 299.81907415390015, 300.80354499816895, 300.9702889919281, 301.72107195854187, 301.837749004364, 301.95467710494995, 302.0715229511261, 302.1883189678192, 302.3050539493561, 302.4220221042633, 302.53865218162537, 302.65544414520264, 302.7721450328827, 302.8890149593353, 303.0056040287018, 303.122661113739, 303.23930311203003, 303.3561980724335, 303.4728560447693, 303.58983397483826, 303.8058371543884]	[299.7019676203433, 299.81863428700996, 300.80163428700996, 300.96833428700995, 301.71833428700995, 301.8350009536766, 301.9516676203433, 302.06833428701, 302.18500095367665, 302.3016676203433, 302.41833428701, 302.5350009536767, 302.65166762034335, 302.76833428701, 302.8850009536767, 303.00166762034337, 303.11833428701004, 303.2350009536767, 303.3516676203434, 303.46833428701007, 303.58500095367674, 303.8183342870101]	2021_Jan_27_1054	59.93875086636228	1	1
11	51	FALSE	NN	v	['Y', 'B', 'H', 'A', 'G', 'M', 'R', 'N', 'Z', 'U', 'K', 'V', 'J', 'E', 'S', 'C']	[2670, 760, 986, 697, 944, 1224, 1587, 1335, 2911, 2059, 1122, 2245, 1029, 904, 1731, 829]	9	Absent	NA	NA	ABSENT	0.17559504508972168	305.80723905563354	307.80639004707336	308.5070400238037	308.85700511932373	311.9222021102905	4.115812063217163	[305.8254909515381, 305.94217896461487, 306.9265151023865, 307.0933051109314, 307.84424209594727, 307.9610731601715, 308.07784700393677, 308.1946861743927, 308.31145310401917, 308.42810797691345, 308.5451440811157, 308.6619040966034, 308.77851605415344, 308.89539313316345, 309.01196908950806, 309.1290900707245, 309.2455861568451, 309.36257910728455, 309.4794249534607, 309.59627199172974, 309.6962010860443, 309.92220306396484]	[305.8183342870101, 305.93500095367676, 306.91800095367677, 307.08470095367676, 307.83470095367676, 307.95136762034343, 308.0680342870101, 308.1847009536768, 308.30136762034346, 308.41803428701013, 308.5347009536768, 308.6513676203435, 308.76803428701015, 308.8847009536768, 309.0013676203435, 309.1180342870102, 309.23470095367685, 309.3513676203435, 309.4680342870102, 309.5847009536769, 309.70136762034355, 309.9347009536769]	2021_Jan_27_1054	59.93875086636228	1	1
11	52	FALSE	NV	v	['S', 'Z', 'P', 'B', 'G', 'V', 'T', 'M', 'J', 'K', 'H', 'R', 'N', 'X', 'A', 'Y']	[1731, 2911, 1456, 760, 944, 2245, 1888, 1224, 1029, 1122, 986, 1587, 1335, 4000, 697, 2670]	14	Present	NA	NA	PRESENT	0.24425411224365232	311.9135911464691	313.9231479167938	315.20654702186584	315.55669593811035	318.03857016563416	4.115422248840332	[311.93184304237366, 312.0487880706787, 313.03294014930725, 313.19995498657227, 313.9506859779358, 314.06746006011963, 314.1843111515045, 314.3010461330414, 314.4182620048523, 314.53464698791504, 314.65164494514465, 314.768079996109, 314.8850860595703, 315.0017580986023, 315.1185851097107, 315.23534417152405, 315.352254152298, 315.46900510787964, 315.585706949234, 315.70262813568115, 315.8194739818573, 316.03856897354126]	[311.9347009536769, 312.05136762034357, 313.0343676203436, 313.20106762034357, 313.95106762034357, 314.06773428701024, 314.1844009536769, 314.3010676203436, 314.41773428701026, 314.53440095367694, 314.6510676203436, 314.7677342870103, 314.88440095367696, 315.00106762034363, 315.1177342870103, 315.234400953677, 315.35106762034366, 315.46773428701033, 315.584400953677, 315.7010676203437, 315.81773428701035, 316.0510676203437]	2021_Jan_27_1054	59.93875086636228	1	1
11	53	FALSE	NA	v	['W', 'Z', 'N', 'B', 'T', 'M', 'J', 'P', 'R', 'X', 'E', 'A', 'U', 'K', 'H', 'G']	[2448, 2911, 1335, 760, 1888, 1224, 1029, 1456, 1587, 4000, 904, 697, 2059, 1122, 986, 944]	10	Present	NA	NA	PRESENT	0.2486591339111328	318.0368890762329	320.0393979549408	320.85677695274353	321.2065200805664	324.1549370288849	4.115539073944092	[318.05514097213745, 318.1719310283661, 319.1563379764557, 319.32316994667053, 320.07388496398926, 320.1907341480255, 320.3074700832367, 320.424339056015, 320.5411009788513, 320.6578571796417, 320.77470111846924, 320.89143800735474, 321.0082211494446, 321.12486696243286, 321.2417860031128, 321.3586859703064, 321.4752051830292, 321.5922009944916, 321.70899200439453, 321.82578897476196, 321.942440032959, 322.1549370288849]	[318.0510676203437, 318.1677342870104, 319.1507342870104, 319.31743428701037, 320.06743428701037, 320.18410095367705, 320.3007676203437, 320.4174342870104, 320.53410095367707, 320.65076762034374, 320.7674342870104, 320.8841009536771, 321.00076762034377, 321.11743428701044, 321.2341009536771, 321.3507676203438, 321.46743428701046, 321.58410095367714, 321.7007676203438, 321.8174342870105, 321.93410095367716, 322.1674342870105]	2021_Jan_27_1054	59.93875086636228	1	1
11	54	FALSE	VN	v	['B', 'N', 'K', 'Z', 'P', 'A', 'C', 'J', 'M', 'surprise', 'V', 'T', 'E', 'W', 'R', 'U']	[760, 1335, 1122, 2911, 1456, 697, 829, 1029, 1224, 'stimAuditory/all_stimAuditory/222.wav', 2245, 1888, 904, 2448, 1587, 2059]	13	Absent	NA	stimVisual/all_stimVisual/212.jpg	ABSENT	0.1739060878753662	324.1431300640106	326.1556270122528	327.32306003570557	327.6728479862213	330.2713031768799	4.115676164627075	[324.16138100624084, 324.27847504615784, 325.26308608055115, 325.4294390678406, 326.1970889568329, 326.296993970871, 326.41396713256836, 326.53077602386475, 326.6475820541382, 326.7643690109253, 326.88106513023376, 326.9977900981903, 327.1147611141205, 327.24823904037476, 327.34838700294495, 327.4649040699005, 327.5818519592285, 327.6985230445862, 327.8154330253601, 327.9321789741516, 328.0490801334381, 328.2713031768799]	[324.1674342870105, 324.2841009536772, 325.2671009536772, 325.4338009536772, 326.1838009536772, 326.30046762034385, 326.4171342870105, 326.5338009536772, 326.6504676203439, 326.76713428701055, 326.8838009536772, 327.0004676203439, 327.1171342870106, 327.23380095367725, 327.3504676203439, 327.4671342870106, 327.58380095367727, 327.70046762034394, 327.8171342870106, 327.9338009536773, 328.05046762034397, 328.2838009536773]	2021_Jan_27_1054	59.93875086636228	1	1
11	55	FALSE	NV	v	['P', 'M', 'K', 'C', 'Y', 'E', 'W', 'X', 'B', 'S', 'Z', 'U', 'H', 'N', 'G', 'V']	[1456, 1224, 1122, 829, 2670, 904, 2448, 4000, 760, 1731, 2911, 2059, 986, 1335, 944, 2245]	8	Present	NA	NA	PRESENT	0.1862349510192871	330.26653695106506	332.2718651294708	332.85581398010254	333.2057659626007	336.3876700401306	4.11580491065979	[330.2847890853882, 330.401535987854, 331.38570499420166, 331.55273604393005, 332.3035671710968, 332.4202690124512, 332.5370349884033, 332.65389013290405, 332.7708189487457, 332.88749408721924, 333.0042290687561, 333.12088108062744, 333.23792695999146, 333.3545460700989, 333.4712779521942, 333.58809900283813, 333.70493507385254, 333.8219380378723, 333.9386191368103, 334.0554599761963, 334.1720790863037, 334.38767099380493]	[330.2838009536773, 330.400467620344, 331.383467620344, 331.550167620344, 332.300167620344, 332.41683428701066, 332.53350095367733, 332.650167620344, 332.7668342870107, 332.88350095367736, 333.00016762034403, 333.1168342870107, 333.2335009536774, 333.35016762034405, 333.4668342870107, 333.5835009536774, 333.7001676203441, 333.81683428701075, 333.9335009536774, 334.0501676203441, 334.1668342870108, 334.4001676203441]	2021_Jan_27_1054	59.93875086636228	1	1
11	56	FALSE	NN	v	['M', 'C', 'E', 'W', 'U', 'H', 'V', 'N', 'G', 'Y', 'J', 'Z', 'B', 'T', 'P', 'K']	[1224, 829, 904, 2448, 2059, 986, 2245, 1335, 944, 2670, 1029, 2911, 760, 1888, 1456, 1122]	11	Absent	NA	NA	ABSENT	0.33580994606018066	336.3896019458771	338.38858294487	339.32219099998474	339.67206597328186	342.5040371417999	4.115454196929932	[336.4078540802002, 336.5246071815491, 337.49224615097046, 337.6591010093689, 338.42669200897217, 338.5434510707855, 338.6603729724884, 338.7772741317749, 338.89398312568665, 339.01063895225525, 339.12749314308167, 339.24406695365906, 339.36081194877625, 339.47782015800476, 339.5946340560913, 339.7115590572357, 339.82805609703064, 339.9451229572296, 340.04487705230713, 340.16170597076416, 340.27869415283203, 340.50403809547424]	[336.4001676203441, 336.5168342870108, 337.4998342870108, 337.6665342870108, 338.4165342870108, 338.53320095367746, 338.64986762034414, 338.7665342870108, 338.8832009536775, 338.99986762034416, 339.11653428701084, 339.2332009536775, 339.3498676203442, 339.46653428701086, 339.58320095367753, 339.6998676203442, 339.8165342870109, 339.93320095367756, 340.04986762034423, 340.1665342870109, 340.2832009536776, 340.5165342870109]	2021_Jan_27_1054	59.93875086636228	1	1
11	57	FALSE	VV	v	['G', 'B', 'Y', 'Z', 'J', 'H', 'surprise', 'N', 'P', 'X', 'R', 'W', 'T', 'K', 'C', 'U']	[944, 760, 2670, 2911, 1029, 986, 'stimAuditory/all_stimAuditory/211.wav', 1335, 1456, 4000, 1587, 2448, 1888, 1122, 829, 2059]	10	Present	NA	stimVisual/all_stimVisual/109.jpg	PRESENT	0.2845439910888672	342.4961860179901	344.5047290325165	345.322448015213	345.6718099117279	348.62040305137634	4.115674018859863	[342.51443696022034, 342.63102102279663, 343.61543107032776, 343.7824170589447, 344.53348112106323, 344.64991211891174, 344.76685309410095, 344.8835949897766, 345.0002989768982, 345.11695313453674, 345.2504851818085, 345.350594997406, 345.46755504608154, 345.5841500759125, 345.7010991573334, 345.81774401664734, 345.93479800224304, 346.05151414871216, 346.1681270599365, 346.2849190235138, 346.40175700187683, 346.620402097702]	[342.5165342870109, 342.6332009536776, 343.6162009536776, 343.7829009536776, 344.5329009536776, 344.64956762034427, 344.76623428701095, 344.8829009536776, 344.9995676203443, 345.11623428701097, 345.23290095367764, 345.3495676203443, 345.466234287011, 345.58290095367767, 345.69956762034434, 345.816234287011, 345.9329009536777, 346.04956762034436, 346.16623428701104, 346.2829009536777, 346.3995676203444, 346.63290095367773]	2021_Jan_27_1054	59.93875086636228	1	1
11	58	FALSE	NN	v	['E', 'V', 'P', 'W', 'N', 'A', 'J', 'H', 'B', 'S', 'K', 'M', 'Z', 'Y', 'R', 'C']	[904, 2245, 1456, 2448, 1335, 697, 1029, 986, 760, 1731, 1122, 1224, 2911, 2670, 1587, 829]	14	Absent	NA	NA	ABSENT	0.769705057144165	348.6193289756775	350.621150970459	351.90491008758545	352.2548520565033	354.73676896095276	4.115617990493774	[348.6375801563263, 348.75443410873413, 349.7385859489441, 349.9055860042572, 350.6563341617584, 350.7729790210724, 350.889976978302, 351.0067000389099, 351.1234390735626, 351.2402310371399, 351.3569121360779, 351.4738459587097, 351.59053206443787, 351.70752716064453, 351.82439398765564, 351.9410481452942, 352.0578861236572, 352.17478704452515, 352.29210901260376, 352.40814900398254, 352.5082120895386, 352.73677015304565]	[348.63290095367773, 348.7495676203444, 349.7325676203444, 349.8992676203444, 350.6492676203444, 350.7659342870111, 350.88260095367775, 350.9992676203444, 351.1159342870111, 351.2326009536778, 351.34926762034445, 351.4659342870111, 351.5826009536778, 351.6992676203445, 351.81593428701115, 351.9326009536778, 352.0492676203445, 352.16593428701117, 352.28260095367784, 352.3992676203445, 352.5159342870112, 352.74926762034454]	2021_Jan_27_1054	59.93875086636228	1	1
11	59	FALSE	NA	v	['E', 'M', 'R', 'C', 'G', 'Y', 'B', 'A', 'H', 'X', 'P', 'V', 'W', 'S', 'T', 'J']	[904, 1224, 1587, 829, 944, 2670, 760, 697, 986, 4000, 1456, 2245, 2448, 1731, 1888, 1029]	10	Present	NA	NA	PRESENT	0.21419501304626465	354.72594809532166	356.7377829551697	357.5546350479126	357.90464901924133	360.85313606262207	4.115353107452393	[354.7441990375519, 354.86096715927124, 355.8451590538025, 356.01204013824463, 356.7795400619507, 356.8795530796051, 356.9965000152588, 357.1131041049957, 357.230033159256, 357.34665513038635, 357.4635441303253, 357.5802171230316, 357.69713616371155, 357.81385803222656, 357.9307441711426, 358.0474171638489, 358.16437101364136, 358.28105998039246, 358.3977520465851, 358.51461601257324, 358.63130497932434, 358.8531379699707]	[354.74926762034454, 354.8659342870112, 355.8489342870112, 356.0156342870112, 356.7656342870112, 356.8823009536779, 356.99896762034456, 357.11563428701123, 357.2323009536779, 357.3489676203446, 357.46563428701126, 357.58230095367793, 357.6989676203446, 357.8156342870113, 357.93230095367795, 358.0489676203446, 358.1656342870113, 358.282300953678, 358.39896762034465, 358.5156342870113, 358.632300953678, 358.86563428701135]	2021_Jan_27_1054	59.93875086636228	1	1
11	60	FALSE	NV	v	['H', 'K', 'N', 'B', 'R', 'V', 'P', 'M', 'X', 'A', 'Y', 'C', 'T', 'E', 'U', 'J']	[986, 1122, 1335, 760, 1587, 2245, 1456, 1224, 4000, 697, 2670, 829, 1888, 904, 2059, 1029]	9	Present	NA	NA	PRESENT	0.2588229179382324	360.84899711608887	362.8538680076599	363.5541970729828	363.9044320583343	366.9695031642914	4.11563515663147	[360.8672490119934, 360.9838891029358, 361.96828508377075, 362.13522815704346, 362.88602209091187, 363.0026910305023, 363.11971712112427, 363.2362470626831, 363.35289096832275, 363.469810962677, 363.58654618263245, 363.7034251689911, 363.82025814056396, 363.9369361400604, 364.0536940097809, 364.1704931259155, 364.28746795654297, 364.4046621322632, 364.52118396759033, 364.6379289627075, 364.7547199726105, 364.9695031642914]	[360.86563428701135, 360.982300953678, 361.965300953678, 362.132000953678, 362.882000953678, 362.9986676203447, 363.11533428701136, 363.23200095367804, 363.3486676203447, 363.4653342870114, 363.58200095367806, 363.69866762034474, 363.8153342870114, 363.9320009536781, 364.04866762034476, 364.16533428701143, 364.2820009536781, 364.3986676203448, 364.51533428701146, 364.63200095367813, 364.7486676203448, 364.98200095367815]	2021_Jan_27_1054	59.93875086636228	1	1
11	61	FALSE	NA	v	['S', 'T', 'H', 'P', 'V', 'E', 'Y', 'Z', 'G', 'J', 'R', 'C', 'N', 'X', 'M', 'B']	[1731, 1888, 986, 1456, 2245, 904, 2670, 2911, 944, 1029, 1587, 829, 1335, 4000, 1224, 760]	14	Present	NA	NA	PRESENT	0.22409319877624512	366.97225308418274	368.9701211452484	370.2540190219879	370.6039900779724	373.0858700275421	4.115748882293701	[366.99050402641296, 367.10699105262756, 368.0747060775757, 368.2415130138397, 369.0090069770813, 369.12606501579285, 369.2426071166992, 369.3595280647278, 369.4762489795685, 369.59317111968994, 369.70982003211975, 369.82665395736694, 369.9265501499176, 370.0433580875397, 370.1601800918579, 370.27704405784607, 370.3938431739807, 370.51058197021484, 370.62733817100525, 370.7442171573639, 370.86114716529846, 371.0858690738678]	[366.98200095367815, 367.0986676203448, 368.08166762034483, 368.2483676203448, 368.9983676203448, 369.1150342870115, 369.23170095367817, 369.34836762034485, 369.4650342870115, 369.5817009536782, 369.69836762034487, 369.81503428701154, 369.9317009536782, 370.0483676203449, 370.16503428701157, 370.28170095367824, 370.3983676203449, 370.5150342870116, 370.63170095367826, 370.74836762034494, 370.8650342870116, 371.09836762034496]	2021_Jan_27_1054	59.93875086636228	1	1
11	62	FALSE	NA	v	['A', 'E', 'H', 'G', 'B', 'W', 'K', 'X', 'V', 'N', 'C', 'T', 'Y', 'P', 'J', 'U']	[697, 904, 986, 944, 760, 2448, 1122, 4000, 2245, 1335, 829, 1888, 2670, 1456, 1029, 2059]	8	Present	NA	NA	PRESENT	0.26857995986938477	373.0786089897156	375.0865499973297	375.6702170372009	376.0207080841065	379.2022361755371	4.1156861782073975	[373.0968601703644, 373.2137191295624, 374.1980040073395, 374.3651180267334, 375.11559796333313, 375.23243498802185, 375.34913301467896, 375.4659831523895, 375.58278703689575, 375.6994481086731, 375.81642603874207, 375.93313908576965, 376.0497350692749, 376.16673398017883, 376.28342294692993, 376.40030312538147, 376.5171711444855, 376.63379406929016, 376.750540971756, 376.86747312545776, 376.9841320514679, 377.2022371292114]	[373.09836762034496, 373.21503428701163, 374.19803428701164, 374.36473428701163, 375.11473428701163, 375.2314009536783, 375.348067620345, 375.46473428701165, 375.5814009536783, 375.698067620345, 375.8147342870117, 375.93140095367835, 376.048067620345, 376.1647342870117, 376.28140095367837, 376.39806762034505, 376.5147342870117, 376.6314009536784, 376.74806762034507, 376.86473428701174, 376.9814009536784, 377.21473428701177]	2021_Jan_27_1054	59.93875086636228	1	1
11	63	FALSE	NV	v	['C', 'S', 'P', 'A', 'E', 'K', 'Y', 'H', 'T', 'U', 'Z', 'X', 'J', 'M', 'N', 'G']	[829, 1731, 1456, 697, 904, 1122, 2670, 986, 1888, 2059, 2911, 4000, 1029, 1224, 1335, 944]	12	Present	NA	NA	PRESENT	0.250093936920166	379.2016570568085	381.2032120227814	382.2532570362091	382.60340905189514	385.3186020851135	4.115390062332153	[379.219908952713, 379.336874961853, 380.3210561275482, 380.48797512054443, 381.2385821342468, 381.3557050228119, 381.47235918045044, 381.58904099464417, 381.7058219909668, 381.82274413108826, 381.9394111633301, 382.0563449859619, 382.1731131076813, 382.2902081012726, 382.40654611587524, 382.52332496643066, 382.64011216163635, 382.7571711540222, 382.87387895584106, 382.99055314064026, 383.09060406684875, 383.3186020851135]	[379.21473428701177, 379.33140095367844, 380.31440095367844, 380.48110095367844, 381.23110095367844, 381.3477676203451, 381.4644342870118, 381.58110095367846, 381.69776762034513, 381.8144342870118, 381.9311009536785, 382.04776762034516, 382.16443428701183, 382.2811009536785, 382.3977676203452, 382.51443428701185, 382.6311009536785, 382.7477676203452, 382.8644342870119, 382.98110095367855, 383.0977676203452, 383.3311009536786]	2021_Jan_27_1054	59.93875086636228	1	1
11	64	FALSE	NN	v	['Z', 'Y', 'J', 'T', 'K', 'M', 'S', 'V', 'B', 'R', 'U', 'P', 'G', 'N', 'W', 'H']	[2911, 2670, 1029, 1888, 1122, 1224, 1731, 2245, 760, 1587, 2059, 1456, 944, 1335, 2448, 986]	9	Absent	NA	NA	ABSENT	0.3184239864349365	385.30846309661865	387.319708108902	388.01980209350586	388.3697919845581	391.4349701404571	4.115262031555176	[385.3267140388489, 385.4431631565094, 386.42752504348755, 386.59439396858215, 387.36194896698, 387.4618580341339, 387.57877111434937, 387.6954290866852, 387.8123550415039, 387.9291090965271, 388.04582810401917, 388.1626901626587, 388.2795979976654, 388.3962299823761, 388.5131709575653, 388.62993717193604, 388.7467460632324, 388.86352610588074, 388.9801821708679, 389.09713912010193, 389.21375799179077, 389.43497014045715]	[385.3311009536786, 385.44776762034525, 386.43076762034525, 386.59746762034524, 387.34746762034524, 387.4641342870119, 387.5808009536786, 387.69746762034526, 387.81413428701194, 387.9308009536786, 388.0474676203453, 388.16413428701196, 388.28080095367864, 388.3974676203453, 388.514134287012, 388.63080095367866, 388.74746762034533, 388.864134287012, 388.9808009536787, 389.09746762034536, 389.21413428701203, 389.4474676203454]	2021_Jan_27_1054	59.93875086636228	1	1
11	65	FALSE	NV	v	['H', 'U', 'M', 'J', 'W', 'T', 'Y', 'Z', 'X', 'C', 'P', 'E', 'S', 'A', 'B', 'K']	[986, 2059, 1224, 1029, 2448, 1888, 2670, 2911, 4000, 829, 1456, 904, 1731, 697, 760, 1122]	9	Present	NA	NA	PRESENT	0.14698100090026855	391.43141293525696	393.4358110427856	394.1362690925598	394.4861829280853	397.5513370037079	4.115525960922241	[391.44966411590576, 391.56619000434875, 392.5506250858307, 392.71746706962585, 393.46836495399475, 393.58521008491516, 393.70194602012634, 393.8187539577484, 393.9353940486908, 394.05229806900024, 394.16903495788574, 394.28602409362793, 394.4030830860138, 394.5196030139923, 394.6361880302429, 394.7531440258026, 394.86982798576355, 394.9866020679474, 395.10344195365906, 395.22039008140564, 395.33699107170105, 395.5513370037079]	[391.4474676203454, 391.56413428701205, 392.54713428701206, 392.71383428701205, 393.46383428701205, 393.5805009536787, 393.6971676203454, 393.81383428701207, 393.93050095367875, 394.0471676203454, 394.1638342870121, 394.28050095367877, 394.39716762034544, 394.5138342870121, 394.6305009536788, 394.74716762034546, 394.86383428701214, 394.9805009536788, 395.0971676203455, 395.21383428701216, 395.33050095367884, 395.5638342870122]	2021_Jan_27_1054	59.93875086636228	1	1
11	66	FALSE	NA	v	['V', 'K', 'H', 'C', 'R', 'S', 'W', 'X', 'J', 'M', 'Y', 'U', 'A', 'G', 'N', 'P']	[2245, 1122, 986, 829, 1587, 1731, 2448, 4000, 1029, 1224, 2670, 2059, 697, 944, 1335, 1456]	8	Present	NA	NA	PRESENT	0.24041008949279785	397.554603099823	399.5520479679108	400.1357190608978	400.4859449863434	403.66770195961	4.115653991699219	[397.57285714149475, 397.6726050376892, 398.65716910362244, 398.82389211654663, 399.5915961265564, 399.70842814445496, 399.808217048645, 399.92500710487366, 400.0418219566345, 400.1586220264435, 400.2755091190338, 400.39220905303955, 400.50909900665283, 400.6258420944214, 400.7426290512085, 400.8594331741333, 400.97627902030945, 401.0930440425873, 401.2100610733032, 401.32655096054077, 401.4436960220337, 401.66770100593567]	[397.5638342870122, 397.68050095367886, 398.66350095367886, 398.83020095367885, 399.58020095367885, 399.69686762034553, 399.8135342870122, 399.9302009536789, 400.04686762034555, 400.1635342870122, 400.2802009536789, 400.3968676203456, 400.51353428701225, 400.6302009536789, 400.7468676203456, 400.86353428701227, 400.98020095367895, 401.0968676203456, 401.2135342870123, 401.33020095367897, 401.44686762034564, 401.680200953679]	2021_Jan_27_1054	59.93875086636228	1	1
11	67	FALSE	NA	v	['S', 'E', 'A', 'C', 'M', 'R', 'K', 'B', 'W', 'P', 'T', 'V', 'X', 'J', 'G', 'Y']	[1731, 904, 697, 829, 1224, 1587, 1122, 760, 2448, 1456, 1888, 2245, 4000, 1029, 944, 2670]	13	Present	NA	NA	PRESENT	0.20489001274108887	403.661052942276	405.6685860157013	406.83557510375977	407.1856360435486	409.7840700149536	4.115483999252319	[403.6793041229248, 403.7957921028137, 404.78069400787354, 404.9474079608917, 405.6979629993439, 405.81492614746094, 405.9317171573639, 406.0483989715576, 406.1651380062103, 406.28200602531433, 406.39887404441833, 406.5156080722809, 406.632285118103, 406.7493031024933, 406.86603808403015, 406.9827461242676, 407.099641084671, 407.2163691520691, 407.33296608924866, 407.4499480724335, 407.56660509109497, 407.7840700149536]	[403.680200953679, 403.79686762034567, 404.77986762034567, 404.94656762034566, 405.69656762034566, 405.81323428701234, 405.929900953679, 406.0465676203457, 406.16323428701236, 406.27990095367903, 406.3965676203457, 406.5132342870124, 406.62990095367905, 406.74656762034573, 406.8632342870124, 406.9799009536791, 407.09656762034575, 407.2132342870124, 407.3299009536791, 407.4465676203458, 407.56323428701245, 407.7965676203458]	2021_Jan_27_1054	59.93875086636228	1	1
11	68	FALSE	NV	v	['B', 'S', 'W', 'N', 'U', 'J', 'M', 'A', 'Y', 'X', 'C', 'V', 'R', 'Z', 'H', 'T']	[760, 1731, 2448, 1335, 2059, 1029, 1224, 697, 2670, 4000, 829, 2245, 1587, 2911, 986, 1888]	10	Present	NA	NA	PRESENT	0.26642417907714844	409.7839801311493	411.7849929332733	412.60191202163696	412.95180201530457	415.9004371166229	4.115444183349609	[409.8022310733795, 409.9191040992737, 410.90365409851074, 411.07040214538574, 411.8210680484772, 411.9380691051483, 412.05472207069397, 412.1716511249542, 412.2883450984955, 412.40511417388916, 412.52177596092224, 412.6387939453125, 412.755597114563, 412.87234115600586, 412.9891550540924, 413.1058020591736, 413.2227511405945, 413.339378118515, 413.4563841819763, 413.5729820728302, 413.6730601787567, 413.90043807029724]	[409.7965676203458, 409.9132342870125, 410.8962342870125, 411.06293428701247, 411.81293428701247, 411.92960095367914, 412.0462676203458, 412.1629342870125, 412.27960095367916, 412.39626762034584, 412.5129342870125, 412.6296009536792, 412.74626762034586, 412.86293428701254, 412.9796009536792, 413.0962676203459, 413.21293428701256, 413.32960095367923, 413.4462676203459, 413.5629342870126, 413.67960095367926, 413.9129342870126]	2021_Jan_27_1054	59.93875086636228	1	1
11	69	FALSE	NN	v	['A', 'G', 'C', 'U', 'M', 'R', 'Z', 'H', 'S', 'T', 'K', 'W', 'Y', 'J', 'E', 'N']	[697, 944, 829, 2059, 1224, 1587, 2911, 986, 1731, 1888, 1122, 2448, 2670, 1029, 904, 1335]	14	Absent	NA	NA	ABSENT	0.3107118606567383	415.8910291194916	417.9012989997864	419.18481707572937	419.5348219871521	422.01680302619934	4.115504026412964	[415.9092810153961, 416.02551007270813, 417.0101239681244, 417.177011013031, 417.927531003952, 418.0444769859314, 418.1611440181732, 418.2781250476837, 418.39489817619324, 418.5114850997925, 418.628231048584, 418.74517703056335, 418.8620491027832, 418.97873997688293, 419.09550499916077, 419.21238708496094, 419.32906317710876, 419.4460129737854, 419.5626859664917, 419.6797561645508, 419.79611802101135, 420.01680302619934]	[415.9129342870126, 416.0296009536793, 417.0126009536793, 417.1793009536793, 417.9293009536793, 418.04596762034595, 418.1626342870126, 418.2793009536793, 418.39596762034597, 418.51263428701265, 418.6293009536793, 418.745967620346, 418.86263428701267, 418.97930095367934, 419.095967620346, 419.2126342870127, 419.32930095367936, 419.44596762034604, 419.5626342870127, 419.6793009536794, 419.79596762034606, 420.0293009536794]	2021_Jan_27_1054	59.93875086636228	1	1
11	70	FALSE	NV	v	['A', 'K', 'P', 'Y', 'J', 'V', 'W', 'R', 'U', 'X', 'M', 'E', 'S', 'G', 'H', 'Z']	[697, 1122, 1456, 2670, 1029, 2245, 2448, 1587, 2059, 4000, 1224, 904, 1731, 944, 986, 2911]	10	Present	NA	NA	PRESENT	0.25925588607788086	422.01373505592346	424.0176820755005	424.8347849845886	425.18462800979614	428.13317012786865	4.115488052368164	[422.0319859981537, 422.1486761569977, 423.13308811187744, 423.29995703697205, 424.0508990287781, 424.16762495040894, 424.28438901901245, 424.40121817588806, 424.5179190635681, 424.63477897644043, 424.7515170574188, 424.8682441711426, 424.9850809574127, 425.1020631790161, 425.21885204315186, 425.3356339931488, 425.45253705978394, 425.5689799785614, 425.6859860420227, 425.80264711380005, 425.919420003891, 426.13316917419434]	[422.0293009536794, 422.1459676203461, 423.1289676203461, 423.2956676203461, 424.0456676203461, 424.16233428701275, 424.27900095367943, 424.3956676203461, 424.5123342870128, 424.62900095367945, 424.7456676203461, 424.8623342870128, 424.9790009536795, 425.09566762034615, 425.2123342870128, 425.3290009536795, 425.44566762034617, 425.56233428701285, 425.6790009536795, 425.7956676203462, 425.91233428701287, 426.1456676203462]	2021_Jan_27_1054	59.93875086636228	1	1
11	71	FALSE	NA	v	['B', 'W', 'N', 'G', 'Y', 'Z', 'H', 'X', 'K', 'M', 'J', 'T', 'A', 'U', 'R', 'E']	[760, 2448, 1335, 944, 2670, 2911, 986, 4000, 1122, 1224, 1029, 1888, 697, 2059, 1587, 904]	8	Present	NA	NA	PRESENT	0.31275105476379395	428.1200830936432	430.134006023407	430.7177670001984	431.06798696517944	434.2495369911194	4.115530967712402	[428.1383340358734, 428.2550790309906, 429.23952317237854, 429.40661907196045, 430.17398715019226, 430.27388095855713, 430.3907091617584, 430.5075659751892, 430.6243779659271, 430.7410740852356, 430.85794615745544, 430.97470211982727, 431.09147906303406, 431.20834016799927, 431.32508301734924, 431.44202399253845, 431.5588619709015, 431.67560601234436, 431.79231905937195, 431.90914011001587, 432.02585005760193, 432.24953603744507]	[428.1456676203462, 428.2623342870129, 429.2453342870129, 429.4120342870129, 430.1620342870129, 430.27870095367956, 430.39536762034624, 430.5120342870129, 430.6287009536796, 430.74536762034626, 430.86203428701293, 430.9787009536796, 431.0953676203463, 431.21203428701295, 431.32870095367963, 431.4453676203463, 431.562034287013, 431.67870095367965, 431.7953676203463, 431.912034287013, 432.0287009536797, 432.262034287013]	2021_Jan_27_1054	59.93875086636228	1	1
11	72	FALSE	NV	v	['S', 'Z', 'A', 'M', 'C', 'U', 'K', 'Y', 'T', 'E', 'W', 'X', 'P', 'V', 'B', 'J']	[1731, 2911, 697, 1224, 829, 2059, 1122, 2670, 1888, 904, 2448, 4000, 1456, 2245, 760, 1029]	12	Present	NA	NA	PRESENT	0.46923112869262695	434.2434289455414	436.250216960907	437.30086302757263	437.6506600379944	440.3659031391144	4.1156861782073975	[434.2616801261902, 434.3783860206604, 435.3631901741028, 435.5297200679779, 436.2804801464081, 436.397274017334, 436.51395201683044, 436.6308560371399, 436.7474889755249, 436.8644120693207, 436.9810960292816, 437.0980660915375, 437.21464800834656, 437.33162117004395, 437.44822096824646, 437.5652220249176, 437.6819169521332, 437.7989161014557, 437.91560196876526, 438.03238797187805, 438.14911913871765, 438.3659031391144]	[434.262034287013, 434.3787009536797, 435.3617009536797, 435.5284009536797, 436.2784009536797, 436.39506762034637, 436.51173428701304, 436.6284009536797, 436.7450676203464, 436.86173428701306, 436.97840095367974, 437.0950676203464, 437.2117342870131, 437.32840095367976, 437.44506762034644, 437.5617342870131, 437.6784009536798, 437.79506762034646, 437.91173428701313, 438.0284009536798, 438.1450676203465, 438.37840095367983]	2021_Jan_27_1054	59.93875086636228	1	1
11	73	FALSE	NA	v	['N', 'Y', 'G', 'J', 'Z', 'U', 'E', 'C', 'M', 'W', 'B', 'T', 'A', 'X', 'K', 'S']	[1335, 2670, 944, 1029, 2911, 2059, 904, 829, 1224, 2448, 760, 1888, 697, 4000, 1122, 1731]	14	Present	NA	NA	PRESENT	0.3544800281524658	440.3666260242462	442.3666570186615	443.650496006012	444.0006539821625	446.4822690486908	4.115612030029297	[440.38487696647644, 440.5015461444855, 441.4860270023346, 441.65274810791016, 442.40366196632385, 442.5204839706421, 442.6372649669647, 442.7542190551758, 442.8706901073456, 442.98770213127136, 443.1044261455536, 443.2211000919342, 443.33798909187317, 443.4548330307007, 443.5716290473938, 443.6884479522705, 443.8051199913025, 443.9219801425934, 444.03870606422424, 444.1555790901184, 444.25541496276855, 444.48227095603943]	[440.37840095367983, 440.4950676203465, 441.4780676203465, 441.6447676203465, 442.3947676203465, 442.5114342870132, 442.62810095367985, 442.7447676203465, 442.8614342870132, 442.97810095367987, 443.09476762034654, 443.2114342870132, 443.3281009536799, 443.44476762034657, 443.56143428701324, 443.6781009536799, 443.7947676203466, 443.91143428701326, 444.02810095367994, 444.1447676203466, 444.2614342870133, 444.49476762034664]	2021_Jan_27_1054	59.93875086636228	1	1
11	74	FALSE	NV	v	['Y', 'J', 'K', 'B', 'P', 'R', 'W', 'V', 'X', 'G', 'Z', 'U', 'C', 'H', 'S', 'M']	[2670, 1029, 1122, 760, 1456, 1587, 2448, 2245, 4000, 944, 2911, 2059, 829, 986, 1731, 1224]	9	Present	NA	NA	PRESENT	0.287168025970459	446.4732909202576	448.4832000732422	449.18330812454224	449.53339314460754	452.5986371040344	4.115437030792236	[446.491544008255, 446.60794496536255, 447.5923800468445, 447.75907802581787, 448.5099210739136, 448.6267509460449, 448.7437620162964, 448.8603341579437, 448.9771251678467, 449.093985080719, 449.21098017692566, 449.3276581764221, 449.4442870616913, 449.56106901168823, 449.6781129837036, 449.7948729991913, 449.9117121696472, 450.0284230709076, 450.1450710296631, 450.26195311546326, 450.37865710258484, 450.5986371040344]	[446.49476762034664, 446.6114342870133, 447.5944342870133, 447.7611342870133, 448.5111342870133, 448.62780095368, 448.74446762034665, 448.86113428701333, 448.97780095368, 449.0944676203467, 449.21113428701335, 449.32780095368, 449.4444676203467, 449.5611342870134, 449.67780095368005, 449.7944676203467, 449.9111342870134, 450.02780095368007, 450.14446762034675, 450.2611342870134, 450.3778009536801, 450.61113428701344]	2021_Jan_27_1054	59.93875086636228	1	1
11	75	FALSE	NN	v	['M', 'K', 'U', 'R', 'W', 'H', 'E', 'B', 'T', 'Y', 'C', 'P', 'N', 'A', 'Z', 'G']	[1224, 1122, 2059, 1587, 2448, 986, 904, 760, 1888, 2670, 829, 1456, 1335, 697, 2911, 944]	11	Absent	NA	NA	ABSENT	0.2355561256408691	452.5960221290589	454.5994651317597	455.5330619812012	455.88317108154297	458.7150030136109	4.115537881851196	[452.6142740249634, 452.7313530445099, 453.7157390117645, 453.8824269771576, 454.63329005241394, 454.7501480579376, 454.86701011657715, 454.98374700546265, 455.10050415992737, 455.2173571586609, 455.3339080810547, 455.45095014572144, 455.5675849914551, 455.6842861175537, 455.80110812187195, 455.9180121421814, 456.034686088562, 456.15153312683105, 456.26823806762695, 456.38538217544556, 456.50209403038025, 456.71500301361084]	[452.61113428701344, 452.7278009536801, 453.7108009536801, 453.8775009536801, 454.6275009536801, 454.7441676203468, 454.86083428701346, 454.97750095368013, 455.0941676203468, 455.2108342870135, 455.32750095368016, 455.44416762034683, 455.5608342870135, 455.6775009536802, 455.79416762034685, 455.91083428701353, 456.0275009536802, 456.1441676203469, 456.26083428701355, 456.3775009536802, 456.4941676203469, 456.72750095368025]	2021_Jan_27_1054	59.93875086636228	1	1
11	76	FALSE	NA	v	['M', 'U', 'W', 'P', 'R', 'G', 'Z', 'T', 'J', 'N', 'A', 'X', 'K', 'S', 'H', 'V']	[1224, 2059, 2448, 1456, 1587, 944, 2911, 1888, 1029, 1335, 697, 4000, 1122, 1731, 986, 2245]	12	Present	NA	NA	PRESENT	0.28099799156188965	458.70257091522217	460.71583700180054	461.7664089202881	462.11610293388367	464.83137011528015	4.115533113479614	[458.720822095871, 458.83754897117615, 459.8221399784088, 459.988981962204, 460.75640201568604, 460.8564269542694, 460.97317814826965, 461.0900249481201, 461.20675802230835, 461.3235890865326, 461.440416097641, 461.55729508399963, 461.67390513420105, 461.7907691001892, 461.90748405456543, 462.0243151187897, 462.14115715026855, 462.25806403160095, 462.3748149871826, 462.4916021823883, 462.60830211639404, 462.83137011528015]	[458.72750095368025, 458.8441676203469, 459.8271676203469, 459.9938676203469, 460.7438676203469, 460.8605342870136, 460.97720095368027, 461.09386762034694, 461.2105342870136, 461.3272009536803, 461.44386762034696, 461.56053428701364, 461.6772009536803, 461.793867620347, 461.91053428701366, 462.02720095368034, 462.143867620347, 462.2605342870137, 462.37720095368036, 462.49386762034703, 462.6105342870137, 462.84386762034705]	2021_Jan_27_1054	59.93875086636228	1	1
11	77	FALSE	NV	v	['R', 'T', 'P', 'M', 'H', 'W', 'V', 'Z', 'N', 'U', 'C', 'E', 'B', 'X', 'A', 'J']	[1587, 1888, 1456, 1224, 986, 2448, 2245, 2911, 1335, 2059, 829, 904, 760, 4000, 697, 1029]	14	Present	NA	NA	PRESENT	0.2774360179901123	464.82590913772583	466.83222103118896	468.1162121295929	468.4658010005951	470.9477369785309	4.115515947341919	[464.84416007995605, 464.9608290195465, 465.9452180862427, 466.1119520664215, 466.8631491661072, 466.9796860218048, 467.09642004966736, 467.21326208114624, 467.3301100730896, 467.44671416282654, 467.56365394592285, 467.6805181503296, 467.7972340583801, 467.9141490459442, 468.03081607818604, 468.1476631164551, 468.26445412635803, 468.38116097450256, 468.49817299842834, 468.61487197875977, 468.7315011024475, 468.9477369785309]	[464.84386762034705, 464.96053428701373, 465.94353428701373, 466.1102342870137, 466.8602342870137, 466.9769009536804, 467.0935676203471, 467.21023428701375, 467.3269009536804, 467.4435676203471, 467.56023428701377, 467.67690095368044, 467.7935676203471, 467.9102342870138, 468.02690095368047, 468.14356762034714, 468.2602342870138, 468.3769009536805, 468.49356762034716, 468.61023428701384, 468.7269009536805, 468.96023428701386]	2021_Jan_27_1054	59.93875086636228	1	1
11	78	FALSE	AV	v	['K', 'U', 'A', 'Z', 'V', 'J', 'E', 'C', 'surprise', 'H', 'M', 'X', 'W', 'N', 'S', 'G']	[1122, 2059, 697, 2911, 2245, 1029, 904, 829, 'stimAuditory/all_stimAuditory/207.wav', 986, 1224, 4000, 2448, 1335, 1731, 944]	12	Present	stimAuditory/all_stimAuditory/223.wav	stimVisual/all_stimVisual/219.jpg	PRESENT	0.3147599697113037	470.9489231109619	472.9484920501709	473.9990680217743	474.3489339351654	477.0641031265259	4.1156110763549805	[470.96717405319214, 471.0840210914612, 472.0683240890503, 472.235258102417, 472.9859311580658, 473.1027159690857, 473.2196669578552, 473.33631110191345, 473.45325899124146, 473.5699291229248, 473.68690609931946, 473.80346608161926, 473.92042803764343, 474.0373041629791, 474.15411710739136, 474.27083802223206, 474.3874340057373, 474.50418615341187, 474.62090396881104, 474.7377140522003, 474.8378930091858, 475.06410217285156]	[470.96023428701386, 471.07690095368054, 472.05990095368054, 472.22660095368053, 472.97660095368053, 473.0932676203472, 473.2099342870139, 473.32660095368055, 473.4432676203472, 473.5599342870139, 473.6766009536806, 473.79326762034725, 473.9099342870139, 474.0266009536806, 474.1432676203473, 474.25993428701395, 474.3766009536806, 474.4932676203473, 474.60993428701397, 474.72660095368065, 474.8432676203473, 475.07660095368067]	2021_Jan_27_1054	59.93875086636228	1	1
11	79	FALSE	NA	v	['E', 'G', 'C', 'M', 'T', 'K', 'V', 'R', 'X', 'Z', 'Y', 'P', 'A', 'H', 'J', 'S']	[904, 944, 829, 1224, 1888, 1122, 2245, 1587, 4000, 2911, 2670, 1456, 697, 986, 1029, 1731]	9	Present	NA	NA	PRESENT	0.3274509906768799	477.0559039115906	479.0649089813232	479.7652320861816	480.11539697647095	483.1804699897766	4.115561008453369	[477.0741550922394, 477.19039011001587, 478.1748249530792, 478.3418130874634, 479.0923640727997, 479.20935797691345, 479.3259460926056, 479.4429039955139, 479.5595500469208, 479.67651200294495, 479.7932381629944, 479.91020107269287, 480.0268201828003, 480.1438021659851, 480.2604150772095, 480.3772780895233, 480.49385499954224, 480.6106719970703, 480.7274720668793, 480.8442051410675, 480.9610381126404, 481.1804699897766]	[477.07660095368067, 477.19326762034734, 478.17626762034735, 478.34296762034734, 479.09296762034734, 479.209634287014, 479.3263009536807, 479.44296762034736, 479.55963428701403, 479.6763009536807, 479.7929676203474, 479.90963428701406, 480.02630095368073, 480.1429676203474, 480.2596342870141, 480.37630095368075, 480.49296762034743, 480.6096342870141, 480.7263009536808, 480.84296762034745, 480.9596342870141, 481.1929676203475]	2021_Jan_27_1054	59.93875086636228	1	1
