participant	trial_num	practice	task	condition	RSVP	RAP	probePos	probe_presence	surprise_sound	surprise_img	probe_response	probe_resp_time	first_fixation_time	trial_start_time	surprise_start_time	probe_start_time	trial_end_time	trial_duration	actualEventTimes	plannedEventTimes	date	framerate	marker_vol	RAP_vol
23	1	FALSE	NV	v	['S', 'B', 'P', 'R', 'N', 'J', 'G', 'E', 'T', 'Z', 'U', 'Y', 'X', 'C', 'V', 'W']	[1731, 760, 1456, 1587, 1335, 1029, 944, 904, 1888, 2911, 2059, 2670, 4000, 829, 2245, 2448]	13	Present	NA	NA	PRESENT	0.2287869453430176	2.86102294921875e-6	1.9997658729553225	3.165369033813477	3.515331029891968	6.103869915008545	4.104104042053223	[0.009557008743286133, 0.10934305191040039, 1.0939280986785889, 1.2606899738311768, 2.028027057647705, 2.145043134689331, 2.2449259757995605, 2.3787360191345215, 2.4784960746765137, 2.612154006958008, 2.729051113128662, 2.845561981201172, 2.9455881118774414, 3.062437057495117, 3.196074962615967, 3.296070098876953, 3.4128620624542236, 3.529576063156128, 3.6463711261749268, 3.7632479667663574, 3.8801400661468506, 4.103869915008545]	[9.5367431640625e-07, 0.11666762034098306, 1.099667620340983, 1.266367620340983, 2.016367620340983, 2.1330342870076495, 2.249700953674316, 2.366367620340983, 2.4830342870076496, 2.5997009536743163, 2.716367620340983, 2.8330342870076497, 2.9497009536743164, 3.066367620340983, 3.18303428700765, 3.2997009536743165, 3.416367620340983, 3.53303428700765, 3.6497009536743166, 3.7663676203409833, 3.88303428700765, 4.116367620340983]	2021_Feb_04_1402	60.094017253211874	1	1
23	2	FALSE	NN	v	['E', 'P', 'C', 'N', 'T', 'U', 'W', 'A', 'B', 'K', 'S', 'M', 'V', 'Y', 'J', 'R']	[904, 1456, 829, 1335, 1888, 2059, 2448, 697, 760, 1122, 1731, 1224, 2245, 2670, 1029, 1587]	12	Absent	NA	NA	ABSENT	0.7294800281524658	6.106518030166626	8.11336088180542	9.164875030517578	9.514194965362549	12.220237016677856	4.1068761348724365	[6.116070985794067, 6.2326860427856445, 7.216870069503784, 7.383711099624634, 8.134630918502808, 8.251512050628662, 8.368272066116333, 8.485109090805054, 8.601810932159424, 8.718708038330078, 8.835376977920532, 8.952253103256226, 9.068908929824829, 9.185853004455566, 9.302423000335693, 9.419743061065674, 9.536102056503296, 9.652833938598633, 9.769710063934326, 9.886378049850464, 10.003327131271362, 10.220237016677856]	[6.116367620340983, 6.23303428700765, 7.216034287007649, 7.382734287007649, 8.132734287007649, 8.249400953674316, 8.366067620340983, 8.48273428700765, 8.599400953674317, 8.716067620340985, 8.832734287007652, 8.949400953674319, 9.066067620340986, 9.182734287007653, 9.29940095367432, 9.416067620340987, 9.532734287007655, 9.649400953674322, 9.766067620340989, 9.882734287007656, 9.999400953674323, 10.232734287007656]	2021_Feb_04_1402	60.094017253211874	1	1
23	3	FALSE	NV	v	['T', 'W', 'H', 'E', 'Y', 'G', 'R', 'S', 'X', 'Z', 'B', 'U', 'V', 'A', 'J', 'M']	[1888, 2448, 986, 904, 2670, 944, 1587, 1731, 4000, 2911, 760, 2059, 2245, 697, 1029, 1224]	9	Present	NA	NA	PRESENT	0.1428070068359375	12.229552030563354	14.229920864105225	14.92999005317688	15.279994010925291	18.336602926254272	4.106682062149048	[12.239104986190796, 12.35578989982605, 13.340333938598633, 13.507333993911743, 14.25787901878357, 14.3747079372406, 14.491490125656128, 14.608138084411621, 14.725222110748291, 14.84195590019226, 14.958585977554321, 15.075334072113037, 15.192222118377686, 15.309001922607422, 15.42586898803711, 15.54240894317627, 15.659534931182861, 15.776216983795166, 15.89309310913086, 16.009681940078735, 16.10972809791565, 16.336602926254272]	[12.232734287007656, 12.349400953674323, 13.332400953674323, 13.499100953674324, 14.249100953674324, 14.365767620340991, 14.482434287007658, 14.599100953674325, 14.715767620340992, 14.83243428700766, 14.949100953674327, 15.065767620340994, 15.182434287007661, 15.299100953674328, 15.415767620340995, 15.532434287007662, 15.64910095367433, 15.765767620340997, 15.882434287007664, 15.999100953674331, 16.115767620340996, 16.34910095367433]	2021_Feb_04_1402	60.094017253211874	1	1
23	4	FALSE	NV	v	['J', 'A', 'P', 'H', 'T', 'N', 'R', 'M', 'Z', 'U', 'X', 'S', 'Y', 'G', 'W', 'V']	[1029, 697, 1456, 986, 1888, 1335, 1587, 1224, 2911, 2059, 4000, 1731, 2670, 944, 2448, 2245]	11	Present	NA	NA	PRESENT	0.11534595489501952	18.33608889579773	20.346035957336422	21.27975296974182	21.629826068878177	24.452970027923584	4.106934070587158	[18.34564208984375, 18.462279081344604, 19.44706106185913, 19.613635063171387, 20.364306926727295, 20.48115301132202, 20.597903966903687, 20.71486210823059, 20.831428050994873, 20.948394060134888, 21.065059900283813, 21.181936025619507, 21.29870104789734, 21.415542125701904, 21.532094955444336, 21.649106979370117, 21.76572895050049, 21.882713079452515, 21.999458074569702, 22.116238117218018, 22.233073949813843, 22.452969074249268]	[18.34910095367433, 18.465767620340998, 19.448767620341, 19.615467620340997, 20.365467620340997, 20.482134287007664, 20.59880095367433, 20.715467620341, 20.832134287007666, 20.948800953674333, 21.065467620341, 21.182134287007667, 21.298800953674334, 21.415467620341, 21.53213428700767, 21.648800953674336, 21.765467620341003, 21.88213428700767, 21.998800953674337, 22.115467620341004, 22.23213428700767, 22.465467620341006]	2021_Feb_04_1402	60.094017253211874	1	1
23	5	FALSE	NV	v	['E', 'G', 'Z', 'A', 'P', 'B', 'U', 'X', 'K', 'H', 'R', 'T', 'J', 'M', 'W', 'N']	[904, 944, 2911, 697, 1456, 760, 2059, 4000, 1122, 986, 1587, 1888, 1029, 1224, 2448, 1335]	8	Present	NA	NA	PRESENT	0.19975614547729492	24.45907688140869	26.462486028671265	27.04631185531616	27.39658498764038	30.5693359375	4.106849908828735	[24.468630075454712, 24.58563995361328, 25.56998109817505, 25.736726999282837, 26.487558126449585, 26.604478120803833, 26.721249103546143, 26.838058948516846, 26.95465397834778, 27.071594953536987, 27.18830895423889, 27.30527400970459, 27.421926021575928, 27.538777112960815, 27.65558910369873, 27.772377014160156, 27.889019012451172, 28.005791902542114, 28.122950077056885, 28.239622116088867, 28.356220960617065, 28.5693359375]	[24.465467620341006, 24.582134287007673, 25.565134287007673, 25.731834287007672, 26.481834287007672, 26.59850095367434, 26.715167620341006, 26.831834287007673, 26.94850095367434, 27.065167620341008, 27.181834287007675, 27.298500953674342, 27.41516762034101, 27.531834287007676, 27.648500953674343, 27.76516762034101, 27.881834287007678, 27.998500953674345, 28.115167620341012, 28.23183428700768, 28.348500953674346, 28.58183428700768]	2021_Feb_04_1402	60.094017253211874	1	1
23	6	FALSE	NA	v	['Y', 'A', 'U', 'R', 'Z', 'C', 'H', 'X', 'T', 'G', 'K', 'V', 'P', 'M', 'S', 'W']	[2670, 697, 2059, 1587, 2911, 829, 986, 4000, 1888, 944, 1122, 2245, 1456, 1224, 1731, 2448]	8	Present	NA	NA	PRESENT	0.0531160831451416	30.565866947174072	32.57891607284546	33.16256093978882	33.512574911117554	36.685702085494995	4.106786012649536	[30.575419902801514, 30.69194507598877, 31.676470041275024, 31.8432879447937, 32.61077809333801, 32.72759008407593, 32.82756304740906, 32.94441294670105, 33.06116700172424, 33.17807102203369, 33.294762134552, 33.411757946014404, 33.52831792831421, 33.64528512954712, 33.76195693016052, 33.87882399559021, 33.995408058166504, 34.112375020980835, 34.22905611991882, 34.34597206115723, 34.46277213096619, 34.685702085494995]	[30.58183428700768, 30.698500953674348, 31.681500953674348, 31.848200953674347, 32.59820095367435, 32.71486762034102, 32.831534287007685, 32.94820095367435, 33.06486762034102, 33.181534287007686, 33.29820095367435, 33.41486762034102, 33.53153428700769, 33.648200953674355, 33.76486762034102, 33.88153428700769, 33.998200953674356, 34.11486762034102, 34.23153428700769, 34.34820095367436, 34.464867620341025, 34.69820095367436]	2021_Feb_04_1402	60.094017253211874	1	1
23	7	FALSE	AV	v	['V', 'H', 'K', 'P', 'M', 'N', 'surprise', 'E', 'J', 'X', 'Z', 'T', 'A', 'U', 'G', 'Y']	[2245, 986, 1122, 1456, 1224, 1335, 'stimAuditory/all_stimAuditory/218.wav', 904, 1029, 4000, 2911, 1888, 697, 2059, 944, 2670]	10	Present	stimAuditory/all_stimAuditory/218.wav	stimVisual/all_stimVisual/105.jpg	PRESENT	1.4735970497131348	36.68886995315552	38.695250034332275	39.51223993301392	39.86206388473511	42.80206990242005	4.1068198680877686	[36.69842290878296, 36.81532001495361, 37.799785137176514, 37.966637134552, 38.71723699569702, 38.83427691459656, 38.951000928878784, 39.067816972732544, 39.184443950653076, 39.30119609832764, 39.41799211502075, 39.53480792045593, 39.65163993835449, 39.768502950668335, 39.885311126708984, 40.00187802314758, 40.1187310218811, 40.23566293716431, 40.35271501541138, 40.46920108795166, 40.58603501319885, 40.802069902420044]	[36.69820095367436, 36.814867620341026, 37.79786762034102, 37.96456762034102, 38.71456762034102, 38.83123428700769, 38.947900953674356, 39.06456762034102, 39.18123428700769, 39.29790095367436, 39.414567620341025, 39.53123428700769, 39.64790095367436, 39.764567620341026, 39.88123428700769, 39.99790095367436, 40.11456762034103, 40.231234287007695, 40.34790095367436, 40.46456762034103, 40.581234287007696, 40.81456762034103]	2021_Feb_04_1402	60.094017253211874	1	1
23	8	FALSE	NV	v	['R', 'B', 'E', 'G', 'V', 'S', 'W', 'X', 'H', 'Z', 'P', 'C', 'Y', 'J', 'M', 'A']	[1587, 760, 904, 944, 2245, 1731, 2448, 4000, 986, 2911, 1456, 829, 2670, 1029, 1224, 697]	8	Present	NA	NA	PRESENT	0.271090030670166	42.811951875686646	44.81150197982788	45.395232915878296	45.74519491195679	48.918437004089355	4.106935024261475	[42.82150602340698, 42.93859791755676, 43.923038959503174, 44.07297396659851, 44.840693950653076, 44.9572069644928, 45.074305057525635, 45.19089102745056, 45.307799100875854, 45.42446994781494, 45.54151797294617, 45.65815210342407, 45.7750039100647, 45.891793966293335, 46.00856399536133, 46.12536001205444, 46.24194312095642, 46.35867094993591, 46.475749015808105, 46.59254598617554, 46.69237208366394, 46.91843605041504]	[42.81456762034103, 42.9312342870077, 43.914234287007694, 44.08093428700769, 44.83093428700769, 44.94760095367436, 45.06426762034103, 45.180934287007695, 45.29760095367436, 45.41426762034103, 45.530934287007696, 45.64760095367436, 45.76426762034103, 45.8809342870077, 45.997600953674365, 46.11426762034103, 46.2309342870077, 46.347600953674366, 46.46426762034103, 46.5809342870077, 46.69760095367437, 46.9309342870077]	2021_Feb_04_1402	60.094017253211874	1	1
23	9	FALSE	NA	v	['E', 'W', 'Y', 'C', 'R', 'P', 'A', 'B', 'H', 'J', 'V', 'X', 'Z', 'T', 'U', 'M']	[904, 2448, 2670, 829, 1587, 1456, 697, 760, 986, 1029, 2245, 4000, 2911, 1888, 2059, 1224]	12	Present	NA	NA	PRESENT	0.25150513648986816	48.918745040893555	50.927886962890625	51.978266954422	52.328322887420654	55.03480291366577	4.1069159507751465	[48.928297996520996, 49.04490804672241, 50.029520988464355, 50.19640898704529, 50.94732308387756, 51.063841104507446, 51.180742025375366, 51.297504901885986, 51.41398906707764, 51.531018018722534, 51.64768099784851, 51.764678955078125, 51.88143706321716, 51.99830508232117, 52.114835023880005, 52.231701135635376, 52.34855890274048, 52.465389013290405, 52.5821270942688, 52.6989951133728, 52.815598011016846, 53.034801959991455]	[48.9309342870077, 49.04760095367437, 50.030600953674366, 50.197300953674365, 50.947300953674365, 51.06396762034103, 51.1806342870077, 51.297300953674366, 51.41396762034103, 51.5306342870077, 51.64730095367437, 51.763967620341035, 51.8806342870077, 51.99730095367437, 52.113967620341036, 52.2306342870077, 52.34730095367437, 52.46396762034104, 52.580634287007705, 52.69730095367437, 52.81396762034104, 53.04730095367437]	2021_Feb_04_1402	60.094017253211874	1	1
23	10	FALSE	NV	v	['B', 'T', 'C', 'R', 'J', 'W', 'P', 'X', 'Y', 'N', 'S', 'H', 'A', 'M', 'G', 'E']	[760, 1888, 829, 1587, 1029, 2448, 1456, 4000, 2670, 1335, 1731, 986, 697, 1224, 944, 904]	8	Present	NA	NA	PRESENT	0.12808704376220703	55.04181098937988	57.044333934783936	57.62816405296326	57.97792387008667	61.15117001533508	4.1068360805511475	[55.051363945007324, 55.16822409629822, 56.15281701087952, 56.319397926330566, 57.0701539516449, 57.18692493438721, 57.30386209487915, 57.420665979385376, 57.53748106956482, 57.654196977615356, 57.77103400230408, 57.88785195350647, 58.0045440196991, 58.121262073516846, 58.23831295967102, 58.35485005378723, 58.47198796272278, 58.588407039642334, 58.705398082733154, 58.822181940078735, 58.93880009651184, 59.15116906166077]	[55.04730095367437, 55.16396762034104, 56.14696762034104, 56.313667620341036, 57.063667620341036, 57.1803342870077, 57.29700095367437, 57.41366762034104, 57.530334287007705, 57.64700095367437, 57.76366762034104, 57.880334287007706, 57.99700095367437, 58.11366762034104, 58.23033428700771, 58.347000953674375, 58.46366762034104, 58.58033428700771, 58.697000953674376, 58.81366762034104, 58.93033428700771, 59.163667620341045]	2021_Feb_04_1402	60.094017253211874	1	1
23	11	FALSE	NA	v	['C', 'K', 'T', 'J', 'Z', 'N', 'W', 'P', 'E', 'X', 'B', 'G', 'A', 'M', 'Y', 'H']	[829, 1122, 1888, 1029, 2911, 1335, 2448, 1456, 904, 4000, 760, 944, 697, 1224, 2670, 986]	10	Present	NA	NA	PRESENT	0.22949695587158203	61.14863395690918	63.16059708595276	63.977962017059326	64.32769894599915	67.2675371170044	4.106940031051636	[61.15818691253662, 61.274845123291016, 62.259032011032104, 62.42612409591675, 63.1935179233551, 63.293622970581055, 63.41024613380432, 63.52698302268982, 63.64380502700806, 63.76090598106384, 63.877424001693726, 63.994450092315674, 64.1110200881958, 64.22801494598389, 64.34461712837219, 64.461590051651, 64.57825207710266, 64.69492411613464, 64.81178092956543, 64.92868113517761, 65.04537892341614, 65.2675371170044]	[61.163667620341045, 61.28033428700771, 62.26333428700771, 62.43003428700771, 63.18003428700771, 63.296700953674375, 63.41336762034104, 63.53003428700771, 63.646700953674376, 63.76336762034104, 63.88003428700771, 63.99670095367438, 64.11336762034104, 64.2300342870077, 64.34670095367436, 64.46336762034102, 64.58003428700768, 64.69670095367434, 64.813367620341, 64.93003428700766, 65.04670095367432, 65.28003428700765]	2021_Feb_04_1402	60.094017253211874	1	1
23	12	FALSE	NN	v	['V', 'H', 'A', 'J', 'G', 'S', 'R', 'P', 'E', 'Z', 'U', 'N', 'K', 'M', 'T', 'W']	[2245, 986, 697, 1029, 944, 1731, 1587, 1456, 904, 2911, 2059, 1335, 1122, 1224, 1888, 2448]	9	Absent	NA	NA	ABSENT	0.3058788776397705	67.27153491973877	69.27704501152039	69.97738003730774	70.32754397392273	73.38390302658081	4.106858015060425	[67.28108811378479, 67.39783310890198, 68.38252305984497, 68.54913997650146, 69.29988813400269, 69.41685891151428, 69.53353095054626, 69.65022397041321, 69.76703190803528, 69.88399600982666, 70.00069212913513, 70.11755013465881, 70.2344229221344, 70.35144209861755, 70.46796798706055, 70.58464002609253, 70.7015609741211, 70.81825304031372, 70.93523693084717, 71.05170392990112, 71.1684799194336, 71.3839020729065]	[67.28003428700765, 67.39670095367431, 68.37970095367432, 68.54640095367432, 69.29640095367432, 69.41306762034098, 69.52973428700764, 69.6464009536743, 69.76306762034096, 69.87973428700762, 69.99640095367428, 70.11306762034094, 70.2297342870076, 70.34640095367426, 70.46306762034092, 70.57973428700758, 70.69640095367424, 70.8130676203409, 70.92973428700756, 71.04640095367422, 71.16306762034088, 71.39640095367422]	2021_Feb_04_1402	60.094017253211874	1	1
23	13	FALSE	NN	v	['V', 'Y', 'M', 'K', 'S', 'A', 'R', 'U', 'G', 'T', 'H', 'W', 'Z', 'N', 'B', 'J']	[2245, 2670, 1224, 1122, 1731, 697, 1587, 2059, 944, 1888, 986, 2448, 2911, 1335, 760, 1029]	11	Absent	NA	NA	ABSENT	0.27127599716186523	73.39490008354187	75.39327001571655	76.32694292068481	76.67726993560791	79.50027012825012	4.107000112533569	[73.40445303916931, 73.52117800712585, 74.48875713348389, 74.65559411048889, 75.42309093475342, 75.54003095626831, 75.65679502487183, 75.77343702316284, 75.89017796516418, 76.0071849822998, 76.12396597862244, 76.29076790809631, 76.35767793655396, 76.45751404762268, 76.57423996925354, 76.69099402427673, 76.8078601360321, 76.92474508285522, 77.04145097732544, 77.15821409225464, 77.27505993843079, 77.50026893615723]	[73.39640095367422, 73.51306762034088, 74.49606762034088, 74.66276762034089, 75.41276762034089, 75.52943428700755, 75.6461009536742, 75.76276762034087, 75.87943428700753, 75.99610095367419, 76.11276762034085, 76.2294342870075, 76.34610095367417, 76.46276762034083, 76.57943428700749, 76.69610095367415, 76.81276762034081, 76.92943428700747, 77.04610095367413, 77.16276762034079, 77.27943428700745, 77.51276762034078]	2021_Feb_04_1402	60.094017253211874	1	1
23	14	FALSE	NN	v	['N', 'Y', 'Z', 'K', 'M', 'A', 'J', 'S', 'H', 'W', 'T', 'R', 'P', 'E', 'B', 'C']	[1335, 2670, 2911, 1122, 1224, 697, 1029, 1731, 986, 2448, 1888, 1587, 1456, 904, 760, 829]	8	Absent	NA	NA	ABSENT	0.4601249694824219	79.50116991996765	81.5098340511322	82.09350395202637	82.44343400001526	85.61663699150085	4.106802940368652	[79.51072406768799, 79.62762594223022, 80.61242890357971, 80.77886295318604, 81.5295159816742, 81.64650702476501, 81.76316499710083, 81.88006091117859, 81.9967200756073, 82.1136429309845, 82.23041009902954, 82.34736895561218, 82.4640679359436, 82.58085203170776, 82.69770812988281, 82.8145170211792, 82.93134593963623, 83.04802989959717, 83.16482496261597, 83.28147101402283, 83.39841794967651, 83.61663603782654]	[79.51276762034078, 79.62943428700744, 80.61243428700745, 80.77913428700745, 81.52913428700745, 81.64580095367411, 81.76246762034077, 81.87913428700743, 81.99580095367409, 82.11246762034075, 82.22913428700741, 82.34580095367407, 82.46246762034073, 82.57913428700739, 82.69580095367405, 82.81246762034071, 82.92913428700737, 83.04580095367403, 83.16246762034069, 83.27913428700735, 83.39580095367401, 83.62913428700735]	2021_Feb_04_1402	60.094017253211874	1	1
23	15	FALSE	NN	v	['E', 'J', 'Z', 'Y', 'K', 'T', 'B', 'V', 'S', 'W', 'C', 'N', 'G', 'P', 'A', 'U']	[904, 1029, 2911, 2670, 1122, 1888, 760, 2245, 1731, 2448, 829, 1335, 944, 1456, 697, 2059]	8	Absent	NA	NA	PRESENT	1.4173049926757812	85.62441396713257	87.62618803977966	88.20981907844543	88.55977892875671	91.73300290107728	4.106814861297607	[85.6339681148529, 85.750981092453, 86.73538494110107, 86.90213704109192, 87.65289092063904, 87.76963305473328, 87.88650894165039, 88.00337100028992, 88.12024092674255, 88.23699498176575, 88.35372710227966, 88.4703381061554, 88.58733105659485, 88.70395112037659, 88.820965051651, 88.93753600120544, 89.05445504188538, 89.17123413085938, 89.28803706169128, 89.40484094619751, 89.50478005409241, 89.73300290107727]	[85.62913428700735, 85.745800953674, 86.72880095367401, 86.89550095367402, 87.64550095367402, 87.76216762034068, 87.87883428700734, 87.995500953674, 88.11216762034066, 88.22883428700732, 88.34550095367398, 88.46216762034064, 88.5788342870073, 88.69550095367396, 88.81216762034062, 88.92883428700728, 89.04550095367394, 89.1621676203406, 89.27883428700726, 89.39550095367392, 89.51216762034058, 89.74550095367391]	2021_Feb_04_1402	60.094017253211874	1	1
23	16	FALSE	NN	v	['W', 'Z', 'H', 'B', 'S', 'C', 'N', 'J', 'Y', 'P', 'T', 'E', 'V', 'A', 'K', 'G']	[2448, 2911, 986, 760, 1731, 829, 1335, 1029, 2670, 1456, 1888, 904, 2245, 697, 1122, 944]	13	Absent	NA	NA	ABSENT	0.50167083740234375	91.73118686676024	93.74254488945007	94.90949296951294	95.2595829963684	97.84937000274658	4.106825113296509	[91.74074006080627, 91.85738801956177, 92.84189009666443, 93.00880908966064, 93.77619504928589, 93.87633013725281, 93.9928810596466, 94.10980796813965, 94.22649502754211, 94.34341192245483, 94.46011090278625, 94.57711005210876, 94.69370293617249, 94.81066513061523, 94.9272849559784, 95.04417109489441, 95.16096591949463, 95.27772808074951, 95.39448094367981, 95.51129007339478, 95.62814402580261, 95.84937000274658]	[91.74550095367391, 91.86216762034057, 92.84516762034058, 93.01186762034058, 93.76186762034058, 93.87853428700724, 93.9952009536739, 94.11186762034056, 94.22853428700722, 94.34520095367388, 94.46186762034054, 94.5785342870072, 94.69520095367386, 94.81186762034052, 94.92853428700718, 95.04520095367384, 95.1618676203405, 95.27853428700716, 95.39520095367382, 95.51186762034048, 95.62853428700714, 95.86186762034048]	2021_Feb_04_1402	60.094017253211874	1	1
23	17	FALSE	NA	v	['N', 'J', 'B', 'E', 'T', 'Z', 'Y', 'M', 'H', 'X', 'G', 'U', 'A', 'P', 'K', 'V']	[1335, 1029, 760, 904, 1888, 2911, 2670, 1224, 986, 4000, 944, 2059, 697, 1456, 1122, 2245]	10	Present	NA	NA	PRESENT	0.2182490825653076	97.85426902770996	99.85878992080688	100.67608189582825	101.02592206001282	103.9657371044159	4.106947183609009	[97.86382293701172, 97.98058700561523, 98.9650149345398, 99.13165092468262, 99.88266706466675, 99.99940609931946, 100.11612892150879, 100.23299407958984, 100.35009813308716, 100.466637134552, 100.58340096473694, 100.70029091835022, 100.81705093383789, 100.93382501602173, 101.05070090293884, 101.16730999946594, 101.28402495384216, 101.40106296539307, 101.51773500442505, 101.63469409942627, 101.75140595436096, 101.965735912323]	[97.86186762034048, 97.97853428700714, 98.96153428700714, 99.12823428700715, 99.87823428700715, 99.9949009536738, 100.11156762034047, 100.22823428700713, 100.34490095367379, 100.46156762034045, 100.5782342870071, 100.69490095367377, 100.81156762034043, 100.92823428700709, 101.04490095367375, 101.1615676203404, 101.27823428700707, 101.39490095367373, 101.51156762034039, 101.62823428700705, 101.7449009536737, 101.97823428700704]	2021_Feb_04_1402	60.094017253211874	1	1
23	18	FALSE	NV	v	['N', 'H', 'V', 'Y', 'G', 'E', 'Z', 'J', 'K', 'U', 'M', 'X', 'A', 'B', 'T', 'P']	[1335, 986, 2245, 2670, 944, 904, 2911, 1029, 1122, 2059, 1224, 4000, 697, 760, 1888, 1456]	12	Present	NA	NA	PRESENT	0.0954570770263672	103.97756004333496	105.97501301765442	107.02563786506651	107.37568187713624	110.082102060318	4.107089042663574	[103.98711395263672, 104.10382199287415, 105.07138204574585, 105.23842811584473, 106.00590896606445, 106.12250113487244, 106.23942112922668, 106.33933711051941, 106.45611906051636, 106.57291603088379, 106.68983507156372, 106.80663108825684, 106.92329502105713, 107.04016304016113, 107.15691995620728, 107.27374911308289, 107.39047312736511, 107.50730800628662, 107.62416911125183, 107.74093198776245, 107.85774612426758, 108.08210301399231]	[103.97823428700704, 104.0949009536737, 105.0779009536737, 105.24460095367371, 105.99460095367371, 106.11126762034037, 106.22793428700703, 106.34460095367369, 106.46126762034035, 106.57793428700701, 106.69460095367367, 106.81126762034033, 106.92793428700699, 107.04460095367365, 107.16126762034031, 107.27793428700697, 107.39460095367363, 107.51126762034029, 107.62793428700695, 107.74460095367361, 107.86126762034027, 108.0946009536736]	2021_Feb_04_1402	60.094017253211874	1	1
23	19	FALSE	NA	v	['V', 'B', 'A', 'J', 'W', 'C', 'M', 'P', 'T', 'K', 'Z', 'S', 'E', 'X', 'G', 'U']	[2245, 760, 697, 1029, 2448, 829, 1224, 1456, 1888, 1122, 2911, 1731, 904, 4000, 944, 2059]	14	Present	NA	NA	PRESENT	0.23581814765930176	110.08404088020325	112.09161806106567	113.37650489807127	113.72535586357117	116.19847011566162	4.106852054595947	[110.09359407424927, 110.21030497550964, 111.19510507583618, 111.36147212982178, 112.11231803894043, 112.22925996780396, 112.34590291976929, 112.46283912658691, 112.5793731212616, 112.69623899459839, 112.8131320476532, 112.9298939704895, 113.04669690132141, 113.1633870601654, 113.28027391433716, 113.39695310592651, 113.51376795768738, 113.63074398040771, 113.74753499031067, 113.86420392990112, 113.98114895820618, 114.19847106933594]	[110.0946009536736, 110.21126762034027, 111.19426762034027, 111.36096762034028, 112.11096762034028, 112.22763428700694, 112.3443009536736, 112.46096762034026, 112.57763428700692, 112.69430095367358, 112.81096762034024, 112.9276342870069, 113.04430095367356, 113.16096762034022, 113.27763428700688, 113.39430095367354, 113.5109676203402, 113.62763428700686, 113.74430095367352, 113.86096762034018, 113.97763428700684, 114.21096762034017]	2021_Feb_04_1402	60.094017253211874	1	1
23	20	FALSE	NA	v	['G', 'A', 'Z', 'J', 'N', 'M', 'H', 'U', 'X', 'E', 'S', 'W', 'C', 'K', 'R', 'P']	[944, 697, 2911, 1029, 1335, 1224, 986, 2059, 4000, 904, 1731, 2448, 829, 1122, 1587, 1456]	9	Present	NA	NA	PRESENT	0.22483110427856445	116.20723485946657	118.20781707763672	118.90831208229064	119.25823497772215	122.31483697891235	4.107019901275635	[116.21678900718689, 116.33372807502747, 117.31808090209961, 117.48465895652771, 118.23565196990967, 118.3525800704956, 118.46920990943909, 118.58604311943054, 118.70279598236084, 118.8193690776825, 118.93635201454163, 119.05298709869385, 119.17000007629395, 119.28674602508545, 119.40354490280151, 119.52022695541382, 119.6372640132904, 119.75382113456726, 119.87064409255981, 119.98749995231628, 120.08749294281006, 120.31483602523804]	[116.21096762034017, 116.32763428700683, 117.31063428700683, 117.47733428700684, 118.22733428700684, 118.3440009536735, 118.46066762034016, 118.57733428700682, 118.69400095367348, 118.81066762034014, 118.9273342870068, 119.04400095367346, 119.16066762034012, 119.27733428700678, 119.39400095367344, 119.5106676203401, 119.62733428700676, 119.74400095367342, 119.86066762034008, 119.97733428700674, 120.0940009536734, 120.32733428700674]	2021_Feb_04_1402	60.094017253211874	1	1
23	21	FALSE	NV	v	['Z', 'K', 'R', 'C', 'H', 'V', 'N', 'A', 'B', 'S', 'G', 'U', 'P', 'X', 'Y', 'W']	[2911, 1122, 1587, 829, 986, 2245, 1335, 697, 760, 1731, 944, 2059, 1456, 4000, 2670, 2448]	14	Present	NA	NA	PRESENT	0.22975516319274905	122.31390690803528	124.32442998886108	125.60809588432312	125.95797300338744	128.43120312690735	4.106773138046265	[122.32348108291626, 122.4401650428772, 123.42457103729248, 123.59185290336609, 124.34202194213867, 124.4590220451355, 124.57562804222107, 124.6924819946289, 124.80913209915161, 124.92590594291687, 125.04311013221741, 125.15971302986145, 125.27632594108582, 125.39332795143127, 125.51003313064575, 125.62663006782532, 125.74365210533142, 125.86033701896667, 125.97733807563782, 126.09400010108948, 126.21082401275635, 126.43120193481445]	[122.32733428700674, 122.4440009536734, 123.4270009536734, 123.5937009536734, 124.3437009536734, 124.46036762034007, 124.57703428700673, 124.69370095367339, 124.81036762034005, 124.9270342870067, 125.04370095367337, 125.16036762034003, 125.27703428700669, 125.39370095367335, 125.51036762034, 125.62703428700667, 125.74370095367333, 125.86036762033999, 125.97703428700665, 126.0937009536733, 126.21036762033997, 126.4437009536733]	2021_Feb_04_1402	60.094017253211874	1	1
23	22	FALSE	NV	v	['P', 'V', 'N', 'R', 'M', 'Y', 'E', 'T', 'A', 'X', 'S', 'B', 'C', 'G', 'K', 'U']	[1456, 2245, 1335, 1587, 1224, 2670, 904, 1888, 697, 4000, 1731, 760, 829, 944, 1122, 2059]	10	Present	NA	NA	PRESENT	0.2587320804595947	128.4368360042572	130.44070100784302	131.25769090652466	131.6078178882599	134.54756903648376	4.106868028640747	[128.44638895988464, 128.56334805488586, 129.54778409004211, 129.71451497077942, 130.4655740261078, 130.58196997642517, 130.6989529132843, 130.81580591201782, 130.932550907135, 131.0491020679474, 131.1661319732666, 131.28277206420898, 131.39975309371948, 131.51647806167603, 131.6333200931549, 131.7498950958252, 131.86662101745605, 131.98347401618958, 132.10046792030334, 132.21713495254517, 132.33401608467102, 132.54756903648376]	[128.4437009536733, 128.56036762033997, 129.54336762033998, 129.71006762033997, 130.46006762033997, 130.57673428700664, 130.69340095367332, 130.81006762034, 130.92673428700667, 131.04340095367334, 131.16006762034002, 131.2767342870067, 131.39340095367336, 131.51006762034004, 131.6267342870067, 131.7434009536734, 131.86006762034006, 131.97673428700674, 132.0934009536734, 132.21006762034008, 132.32673428700676, 132.56006762034008]	2021_Feb_04_1402	60.094017253211874	1	1
23	23	FALSE	NN	v	['H', 'Y', 'C', 'U', 'B', 'P', 'T', 'G', 'J', 'W', 'R', 'Z', 'N', 'E', 'V', 'S']	[986, 2670, 829, 2059, 760, 1456, 1888, 944, 1029, 2448, 1587, 2911, 1335, 904, 2245, 1731]	9	Absent	NA	NA	ABSENT	0.511693000793457	134.54337000846863	136.55702900886536	137.2576549053192	137.60754895210266	140.6639358997345	4.106906890869141	[134.55292296409607, 134.6697371006012, 135.65424394607544, 135.82095313072205, 136.58856201171875, 136.688579082489, 136.80531406402588, 136.92210292816162, 137.03886604309082, 137.15558195114136, 137.27241206169128, 137.38917899131775, 137.50600600242615, 137.62281107902527, 137.73960399627686, 137.85662603378296, 137.97335410118103, 138.09002804756165, 138.20691013336182, 138.32374000549316, 138.44057512283325, 138.6639380455017]	[134.56006762034008, 134.67673428700675, 135.65973428700676, 135.82643428700675, 136.57643428700675, 136.69310095367342, 136.8097676203401, 136.92643428700677, 137.04310095367345, 137.15976762034012, 137.2764342870068, 137.39310095367347, 137.50976762034014, 137.62643428700682, 137.7431009536735, 137.85976762034016, 137.97643428700684, 138.0931009536735, 138.2097676203402, 138.32643428700686, 138.44310095367354, 138.67643428700686]	2021_Feb_04_1402	60.094017253211874	1	1
23	24	FALSE	NN	v	['K', 'S', 'C', 'W', 'H', 'P', 'T', 'M', 'Z', 'U', 'A', 'G', 'B', 'R', 'V', 'Y']	[1122, 1731, 829, 2448, 986, 1456, 1888, 1224, 2911, 2059, 697, 944, 760, 1587, 2245, 2670]	11	Absent	NA	NA	ABSENT	0.28450894355773926	140.66704106330872	142.67328190803528	143.60736107826233	143.95713591575625	146.7803030014038	4.10702109336853	[140.67659497261047, 140.79328989982605, 141.77748203277588, 141.9441270828247, 142.6949019432068, 142.81178498268127, 142.92865800857544, 143.0452799797058, 143.16230511665344, 143.27902913093567, 143.39574790000916, 143.5125379562378, 143.62950992584229, 143.7461109161377, 143.8630940914154, 143.97977805137634, 144.09660696983337, 144.21342611312866, 144.3301739692688, 144.44686198234558, 144.5638029575348, 144.7803030014038]	[140.67643428700686, 140.79310095367353, 141.77610095367353, 141.94280095367353, 142.69280095367353, 142.8094676203402, 142.92613428700687, 143.04280095367355, 143.15946762034022, 143.2761342870069, 143.39280095367357, 143.50946762034025, 143.62613428700692, 143.7428009536736, 143.85946762034027, 143.97613428700694, 144.09280095367362, 144.2094676203403, 144.32613428700697, 144.44280095367364, 144.5594676203403, 144.79280095367363]	2021_Feb_04_1402	60.094017253211874	1	1
23	25	FALSE	NA	v	['J', 'M', 'E', 'H', 'N', 'Z', 'C', 'B', 'A', 'X', 'U', 'G', 'W', 'R', 'K', 'S']	[1029, 1224, 904, 986, 1335, 2911, 829, 760, 697, 4000, 2059, 944, 2448, 1587, 1122, 1731]	10	Present	NA	NA	PRESENT	0.1295981407165527	146.7899580001831	148.78984594345093	149.6068630218506	149.95695686340332	152.89666891098022	4.106822967529297	[146.79951095581055, 146.91629004478455, 147.90064001083374, 148.0676290988922, 148.81827211380005, 148.93504905700684, 149.0517339706421, 149.16874599456787, 149.2853500843048, 149.40233707427979, 149.51902294158936, 149.63577890396118, 149.7524929046631, 149.86923909187317, 149.9860761165619, 150.10288405418396, 150.2198519706726, 150.33690309524536, 150.45346212387085, 150.57010912895203, 150.6702320575714, 150.89667010307312]	[146.79280095367363, 146.9094676203403, 147.8924676203403, 148.0591676203403, 148.8091676203403, 148.92583428700698, 149.04250095367365, 149.15916762034033, 149.275834287007, 149.39250095367368, 149.50916762034035, 149.62583428700702, 149.7425009536737, 149.85916762034037, 149.97583428700705, 150.09250095367372, 150.2091676203404, 150.32583428700707, 150.44250095367374, 150.55916762034042, 150.6758342870071, 150.9091676203404]	2021_Feb_04_1402	60.094017253211874	1	1
23	26	FALSE	NA	v	['N', 'M', 'R', 'Y', 'T', 'P', 'J', 'G', 'X', 'H', 'E', 'S', 'W', 'B', 'K', 'A']	[1335, 1224, 1587, 2670, 1888, 1456, 1029, 944, 4000, 986, 904, 1731, 2448, 760, 1122, 697]	9	Present	NA	NA	PRESENT	0.07822084426879883	152.89619898796082	154.90618586540222	155.60655689239502	155.9565029144287	159.01303696632385	4.106851100921631	[152.90575194358826, 153.02272605895996, 154.00709199905396, 154.17388892173767, 154.92453908920288, 155.04164099693298, 155.15848398208618, 155.2752320766449, 155.39192390441895, 155.50860595703125, 155.6255030632019, 155.7423961162567, 155.85914993286133, 155.9757740497589, 156.09256196022034, 156.2096049785614, 156.32631492614746, 156.44314694404602, 156.55989599227905, 156.67653608322144, 156.79349398612976, 157.01303696632385]	[152.9091676203404, 153.0258342870071, 154.0088342870071, 154.17553428700708, 154.92553428700708, 155.04220095367376, 155.15886762034043, 155.2755342870071, 155.39220095367378, 155.50886762034045, 155.62553428700713, 155.7422009536738, 155.85886762034048, 155.97553428700715, 156.09220095367382, 156.2088676203405, 156.32553428700717, 156.44220095367385, 156.55886762034052, 156.6755342870072, 156.79220095367387, 157.0255342870072]	2021_Feb_04_1402	60.094017253211874	1	1
23	27	FALSE	NA	v	['N', 'C', 'Z', 'G', 'S', 'R', 'H', 'Y', 'T', 'J', 'X', 'U', 'M', 'V', 'K', 'W']	[1335, 829, 2911, 944, 1731, 1587, 986, 2670, 1888, 1029, 4000, 2059, 1224, 2245, 1122, 2448]	11	Present	NA	NA	PRESENT	0.07468485832214355	159.01948189735413	161.02268195152283	161.9562258720398	162.30617904663086	165.12940311431885	4.1067211627960205	[159.02903604507446, 159.14612007141113, 160.1303849220276, 160.29723811149597, 161.0483660697937, 161.16471004486084, 161.28165197372437, 161.39826703071594, 161.5152440071106, 161.6319510936737, 161.74873304367065, 161.86543703079224, 161.98218393325806, 162.0989761352539, 162.21595311164856, 162.33259296417236, 162.4494709968567, 162.56613898277283, 162.68313813209534, 162.7999300956726, 162.91651511192322, 163.12940311431885]	[159.0255342870072, 159.14220095367386, 160.12520095367387, 160.29190095367386, 161.04190095367386, 161.15856762034053, 161.2752342870072, 161.39190095367388, 161.50856762034056, 161.62523428700723, 161.7419009536739, 161.85856762034058, 161.97523428700725, 162.09190095367393, 162.2085676203406, 162.32523428700728, 162.44190095367395, 162.55856762034063, 162.6752342870073, 162.79190095367397, 162.90856762034065, 163.14190095367397]	2021_Feb_04_1402	60.094017253211874	1	1
23	28	FALSE	NA	v	['T', 'R', 'U', 'Y', 'W', 'C', 'N', 'A', 'E', 'P', 'S', 'H', 'X', 'K', 'V', 'G']	[1888, 1587, 2059, 2670, 2448, 829, 1335, 697, 904, 1456, 1731, 986, 4000, 1122, 2245, 944]	13	Present	NA	NA	PRESENT	0.12804508209228516	165.12605094909668	167.13895893096924	168.30581092834473	168.656152009964	171.24576902389526	4.106810092926025	[165.13560390472412, 165.25251603126526, 166.23685812950134, 166.4035210609436, 167.17114806175232, 167.27123093605042, 167.38796210289001, 167.50474309921265, 167.62164402008057, 167.73837113380432, 167.85523509979248, 167.9721441268921, 168.08869791030884, 168.20547795295715, 168.3222849369049, 168.43901205062866, 168.55595111846924, 168.67259311676025, 168.78959894180298, 168.90621709823608, 169.02322602272034, 169.24576997756958]	[165.14190095367397, 165.25856762034064, 166.24156762034065, 166.40826762034064, 167.15826762034064, 167.2749342870073, 167.391600953674, 167.50826762034066, 167.62493428700733, 167.741600953674, 167.85826762034068, 167.97493428700736, 168.09160095367403, 168.2082676203407, 168.32493428700738, 168.44160095367405, 168.55826762034073, 168.6749342870074, 168.79160095367408, 168.90826762034075, 169.02493428700743, 169.25826762034075]	2021_Feb_04_1402	60.094017253211874	1	1
23	29	FALSE	VV	v	['E', 'M', 'W', 'Z', 'V', 'G', 'R', 'surprise', 'J', 'T', 'X', 'P', 'U', 'A', 'S', 'K']	[904, 1224, 2448, 2911, 2245, 944, 1587, 'stimAuditory/all_stimAuditory/207.wav', 1029, 1888, 4000, 1456, 2059, 697, 1731, 1122]	11	Present	NA	stimVisual/all_stimVisual/205.jpg	ABSENT	0.7965538501739502	171.2496519088745	173.25533199310303	174.18901705741882	174.53895497322085	177.3621370792389	4.106805086135864	[171.25920510292053, 171.3757541179657, 172.36013007164001, 172.52696013450623, 173.27768898010254, 173.3945860862732, 173.5112819671631, 173.62797498703003, 173.74502611160278, 173.86171507835388, 173.97831201553345, 174.1120569705963, 174.2120361328125, 174.3286669254303, 174.44564604759216, 174.5622799396515, 174.6791069507599, 174.7959921360016, 174.91290497779846, 175.02959895133972, 175.1463041305542, 175.3621370792389]	[171.25826762034075, 171.37493428700742, 172.35793428700742, 172.52463428700742, 173.27463428700742, 173.3913009536741, 173.50796762034076, 173.62463428700744, 173.7413009536741, 173.8579676203408, 173.97463428700746, 174.09130095367414, 174.2079676203408, 174.32463428700748, 174.44130095367416, 174.55796762034083, 174.6746342870075, 174.79130095367418, 174.90796762034086, 175.02463428700753, 175.1413009536742, 175.37463428700752]	2021_Feb_04_1402	60.094017253211874	1	1
23	30	FALSE	NN	v	['P', 'U', 'Z', 'S', 'Y', 'N', 'V', 'T', 'E', 'M', 'K', 'R', 'C', 'H', 'W', 'J']	[1456, 2059, 2911, 1731, 2670, 1335, 2245, 1888, 904, 1224, 1122, 1587, 829, 986, 2448, 1029]	9	Absent	NA	NA	ABSENT	0.4417800903320313	177.37244296073914	179.37164998054504	180.07220005989075	180.42215204238892	183.4785029888153	4.106853008270264	[177.38199710845947, 177.49881505966187, 178.46647191047668, 178.63321590423584, 179.40083813667297, 179.51764392852783, 179.6345191001892, 179.75134992599487, 179.8681240081787, 179.98485398292542, 180.10190391540527, 180.2184910774231, 180.33570909500122, 180.45204710960388, 180.56905508041382, 180.6857271194458, 180.80226397514343, 180.91907596588135, 181.03587698936462, 181.13595700263977, 181.25295495986938, 181.4785029888153]	[177.37463428700752, 177.4913009536742, 178.4743009536742, 178.6410009536742, 179.3910009536742, 179.50766762034087, 179.62433428700754, 179.74100095367422, 179.8576676203409, 179.97433428700757, 180.09100095367424, 180.2076676203409, 180.3243342870076, 180.44100095367426, 180.55766762034094, 180.6743342870076, 180.79100095367428, 180.90766762034096, 181.02433428700763, 181.1410009536743, 181.25766762034098, 181.4910009536743]	2021_Feb_04_1402	60.094017253211874	1	1
23	31	FALSE	NV	v	['S', 'Y', 'T', 'Z', 'R', 'E', 'H', 'A', 'J', 'X', 'U', 'N', 'V', 'P', 'C', 'B']	[1731, 2670, 1888, 2911, 1587, 904, 986, 697, 1029, 4000, 2059, 1335, 2245, 1456, 829, 760]	10	Present	NA	NA	PRESENT	0.542402982711792	183.47899794578552	185.4878749847412	186.30501008033752	186.65529203414917	189.59487009048465	4.106995105743408	[183.48854994773865, 183.6054129600525, 184.5897560119629, 184.75651907920837, 185.50731110572815, 185.62406206130981, 185.74099802970886, 185.85785698890686, 185.9746539592743, 186.09145498275757, 186.20820713043213, 186.32485604286194, 186.44183897972107, 186.55853700637817, 186.67528891563416, 186.79201102256775, 186.9089241027832, 187.02563095092773, 187.14251899719238, 187.2591769695282, 187.37608790397644, 187.59487104415894]	[183.4910009536743, 183.60766762034098, 184.59066762034098, 184.75736762034097, 185.50736762034097, 185.62403428700765, 185.74070095367432, 185.857367620341, 185.97403428700767, 186.09070095367434, 186.20736762034102, 186.3240342870077, 186.44070095367437, 186.55736762034104, 186.67403428700771, 186.7907009536744, 186.90736762034106, 187.02403428700774, 187.1407009536744, 187.25736762034109, 187.37403428700776, 187.60736762034108]	2021_Feb_04_1402	60.094017253211874	1	1
23	32	FALSE	NV	v	['P', 'V', 'Z', 'B', 'J', 'G', 'R', 'M', 'C', 'K', 'X', 'W', 'S', 'U', 'T', 'A']	[1456, 2245, 2911, 760, 1029, 944, 1587, 1224, 829, 1122, 4000, 2448, 1731, 2059, 1888, 697]	11	Present	NA	NA	PRESENT	0.26795101165771484	189.60220289230347	191.6044840812683	192.53794407844543	192.88848304748535	195.71123695373535	4.106752872467041	[189.6117560863495, 189.7284779548645, 190.71320295333862, 190.87982511520386, 191.63058400154114, 191.7473750114441, 191.86432194709778, 191.9809079170227, 192.09787011146545, 192.21446704864502, 192.33151292800903, 192.44825911521912, 192.56505393981934, 192.68188309669495, 192.79859709739685, 192.9153230190277, 193.03222012519836, 193.14900612831116, 193.2658269405365, 193.3825581073761, 193.48249292373657, 193.71123600006104]	[189.60736762034108, 189.72403428700775, 190.70703428700776, 190.87373428700775, 191.62373428700775, 191.74040095367442, 191.8570676203411, 191.97373428700777, 192.09040095367445, 192.20706762034112, 192.3237342870078, 192.44040095367447, 192.55706762034114, 192.67373428700782, 192.7904009536745, 192.90706762034117, 193.02373428700784, 193.14040095367451, 193.2570676203412, 193.37373428700786, 193.49040095367454, 193.72373428700786]	2021_Feb_04_1402	60.094017253211874	1	1
23	33	FALSE	VA	v	['V', 'S', 'B', 'R', 'A', 'U', 'Y', 'P', 'surprise', 'Z', 'G', 'X', 'K', 'W', 'C', 'E']	[2245, 1731, 760, 1587, 697, 2059, 2670, 1456, 'stimAuditory/all_stimAuditory/213.wav', 2911, 944, 4000, 1122, 2448, 829, 904]	12	Present	NA	stimVisual/all_stimVisual/201.jpg	PRESENT	1.4404101371765137	195.7086238861084	197.7206609249115	198.77104496955872	199.12119698524475	201.82760310173035	4.106942176818848	[195.71817708015442, 195.83538007736206, 196.8195481300354, 196.98626399040222, 197.7538640499115, 197.85404109954834, 197.97065901756287, 198.08772993087769, 198.2043170928955, 198.32092905044556, 198.43795108795166, 198.55481004714966, 198.68806910514832, 198.7882080078125, 198.90528798103333, 199.02177906036377, 199.1386959552765, 199.25533604621887, 199.37232995033264, 199.4889259338379, 199.60576796531677, 199.82760310173035]	[195.72373428700786, 195.84040095367453, 196.82340095367454, 196.99010095367453, 197.74010095367453, 197.8567676203412, 197.97343428700788, 198.09010095367455, 198.20676762034122, 198.3234342870079, 198.44010095367457, 198.55676762034125, 198.67343428700792, 198.7901009536746, 198.90676762034127, 199.02343428700794, 199.14010095367462, 199.2567676203413, 199.37343428700797, 199.49010095367464, 199.60676762034132, 199.84010095367464]	2021_Feb_04_1402	60.094017253211874	1	1
23	34	FALSE	NA	v	['Z', 'B', 'C', 'V', 'T', 'G', 'K', 'R', 'W', 'J', 'S', 'M', 'N', 'X', 'E', 'Y']	[2911, 760, 829, 2245, 1888, 944, 1122, 1587, 2448, 1029, 1731, 1224, 1335, 4000, 904, 2670]	14	Present	NA	NA	PRESENT	0.23679399490356445	201.8320739269257	203.83728885650635	205.12085700035095	205.47078108787537	207.94396996498108	4.1066811084747314	[201.84163808822632, 201.95841193199158, 202.9428129196167, 203.10949206352234, 203.8603479862213, 203.9770369529724, 204.09407305717468, 204.21079397201538, 204.3275649547577, 204.4442811012268, 204.5611960887909, 204.67788100242615, 204.79484009742737, 204.91161608695984, 205.02842712402344, 205.14505100250244, 205.26202201843262, 205.37864899635315, 205.49530601501465, 205.61215901374817, 205.72908210754395, 205.94396996498108]	[201.84010095367464, 201.9567676203413, 202.9397676203413, 203.1064676203413, 203.8564676203413, 203.97313428700798, 204.08980095367465, 204.20646762034133, 204.323134287008, 204.43980095367468, 204.55646762034135, 204.67313428700803, 204.7898009536747, 204.90646762034137, 205.02313428700805, 205.13980095367472, 205.2564676203414, 205.37313428700807, 205.48980095367475, 205.60646762034142, 205.7231342870081, 205.9564676203414]	2021_Feb_04_1402	60.094017253211874	1	1
23	35	FALSE	NV	v	['H', 'C', 'A', 'E', 'U', 'V', 'W', 'Z', 'Y', 'X', 'P', 'N', 'G', 'S', 'B', 'T']	[986, 829, 697, 904, 2059, 2245, 2448, 2911, 2670, 4000, 1456, 1335, 944, 1731, 760, 1888]	10	Present	NA	NA	PRESENT	0.2022550106048584	207.955353975296	209.9532608985901	210.77051997184753	211.12053203582764	214.0603370666504	4.107076168060303	[207.96490693092346, 208.08150696754456, 209.04913806915283, 209.2160041332245, 209.98341608047485, 210.10068011283875, 210.2171950340271, 210.3341760635376, 210.45063710212708, 210.56761693954468, 210.68424010276794, 210.80104112625122, 210.9011631011963, 211.03484892845154, 211.13467597961426, 211.25155210494995, 211.36821508407593, 211.4850311279297, 211.60181999206543, 211.71857810020447, 211.8356020450592, 212.06033611297607]	[207.9564676203414, 208.0731342870081, 209.0561342870081, 209.22283428700808, 209.97283428700808, 210.08950095367476, 210.20616762034143, 210.3228342870081, 210.43950095367478, 210.55616762034145, 210.67283428700813, 210.7895009536748, 210.90616762034148, 211.02283428700815, 211.13950095367483, 211.2561676203415, 211.37283428700817, 211.48950095367485, 211.60616762034152, 211.7228342870082, 211.83950095367487, 212.0728342870082]	2021_Feb_04_1402	60.094017253211874	1	1
23	36	FALSE	NN	v	['T', 'G', 'R', 'P', 'Y', 'U', 'N', 'E', 'J', 'W', 'S', 'Z', 'H', 'B', 'A', 'M']	[1888, 944, 1587, 1456, 2670, 2059, 1335, 904, 1029, 2448, 1731, 2911, 986, 760, 697, 1224]	14	Absent	NA	NA	ABSENT	0.5266270637512207	214.0616240501404	216.0698280334473	217.3538520336151	217.70351386070251	220.1767029762268	4.106874942779541	[214.07117700576782, 214.1881821155548, 215.17239809036255, 215.33945894241333, 216.0899269580841, 216.2066581249237, 216.32373094558716, 216.4404489994049, 216.5574290752411, 216.67400598526, 216.79098105430603, 216.90779304504395, 217.02445197105408, 217.14120411872864, 217.25792598724365, 217.37477898597717, 217.4917130470276, 217.6082570552826, 217.72529292106628, 217.84198713302612, 217.95885396003723, 218.17670392990112]	[214.0728342870082, 214.18950095367487, 215.17250095367487, 215.33920095367486, 216.08920095367486, 216.20586762034154, 216.3225342870082, 216.43920095367488, 216.55586762034156, 216.67253428700823, 216.7892009536749, 216.90586762034158, 217.02253428700826, 217.13920095367493, 217.2558676203416, 217.37253428700828, 217.48920095367495, 217.60586762034163, 217.7225342870083, 217.83920095367498, 217.95586762034165, 218.18920095367497]	2021_Feb_04_1402	60.094017253211874	1	1
23	37	FALSE	NV	v	['G', 'A', 'N', 'T', 'Z', 'M', 'K', 'U', 'C', 'B', 'R', 'J', 'Y', 'X', 'V', 'E']	[944, 697, 1335, 1888, 2911, 1224, 1122, 2059, 829, 760, 1587, 1029, 2670, 4000, 2245, 904]	14	Present	NA	NA	PRESENT	0.24426603317260745	220.1849839687347	222.18615889549255	223.47000789642337	223.81991386413577	226.29307007789612	4.1069111824035645	[220.19453692436218, 220.31175899505615, 221.29577112197876, 221.4626190662384, 222.2131950855255, 222.3300919532776, 222.44680094718933, 222.56380200386047, 222.6803479194641, 222.7972390651703, 222.91394209861755, 223.03099393844604, 223.14779210090637, 223.26452207565308, 223.38117504119873, 223.49811601638794, 223.61491107940674, 223.73165106773376, 223.84844207763672, 223.96527004241943, 224.06512308120728, 224.2930691242218]	[220.18920095367497, 220.30586762034164, 221.28886762034165, 221.45556762034164, 222.20556762034164, 222.3222342870083, 222.438900953675, 222.55556762034166, 222.67223428700834, 222.788900953675, 222.90556762034169, 223.02223428700836, 223.13890095367503, 223.2555676203417, 223.37223428700838, 223.48890095367506, 223.60556762034173, 223.7222342870084, 223.83890095367508, 223.95556762034175, 224.07223428700843, 224.30556762034175]	2021_Feb_04_1402	60.094017253211874	1	1
23	38	FALSE	NA	v	['S', 'T', 'G', 'P', 'Y', 'B', 'A', 'X', 'H', 'E', 'U', 'V', 'J', 'W', 'Z', 'C']	[1731, 1888, 944, 1456, 2670, 760, 697, 4000, 986, 904, 2059, 2245, 1029, 2448, 2911, 829]	8	Present	NA	NA	PRESENT	0.2080991268157959	226.29128098487857	228.30251598358151	228.88626289367676	229.23627185821533	232.40943694114685	4.106920957565308	[226.30083394050598, 226.41786003112793, 227.40229892730713, 227.56900596618652, 228.31967306137085, 228.43669199943542, 228.55334997177124, 228.6702389717102, 228.78701305389404, 228.9036829471588, 229.02065801620483, 229.13725900650024, 229.25418996810913, 229.37089705467224, 229.48786306381226, 229.60477805137634, 229.72128796577454, 229.8381791114807, 229.9549479484558, 230.07164001464844, 230.18849897384644, 230.40943598747253]	[226.30556762034175, 226.42223428700842, 227.40523428700843, 227.57193428700842, 228.32193428700842, 228.4386009536751, 228.55526762034177, 228.67193428700844, 228.78860095367511, 228.9052676203418, 229.02193428700846, 229.13860095367514, 229.2552676203418, 229.3719342870085, 229.48860095367516, 229.60526762034183, 229.7219342870085, 229.83860095367518, 229.95526762034186, 230.07193428700853, 230.1886009536752, 230.42193428700853]	2021_Feb_04_1402	60.094017253211874	1	1
23	39	FALSE	AA	v	['H', 'K', 'S', 'W', 'N', 'U', 'Z', 'T', 'M', 'J', 'surprise', 'R', 'C', 'X', 'A', 'B']	[986, 1122, 1731, 2448, 1335, 2059, 2911, 1888, 1224, 1029, 'stimAuditory/all_stimAuditory/121.wav', 1587, 829, 4000, 697, 760]	14	Present	stimAuditory/all_stimAuditory/207.wav	stimVisual/all_stimVisual/104.jpg	ABSENT	1.165186882019043	232.4146828651428	234.4189579486847	235.7026550769806	236.05270290374756	238.52580404281616	4.10684609413147	[232.42423701286316, 232.54101395606995, 233.5254499912262, 233.69238710403442, 234.44300508499146, 234.55993103981018, 234.6765320301056, 234.7933909893036, 234.9102659225464, 235.026957988739, 235.14388394355774, 235.2606179714203, 235.37741708755493, 235.49431800842285, 235.6112461090088, 235.72776293754578, 235.84457206726074, 235.9614040851593, 236.07802891731262, 236.1948869228363, 236.31160402297974, 236.52580308914185]	[232.42193428700853, 232.5386009536752, 233.5216009536752, 233.6883009536752, 234.4383009536752, 234.55496762034187, 234.67163428700854, 234.78830095367522, 234.9049676203419, 235.02163428700857, 235.13830095367524, 235.25496762034192, 235.3716342870086, 235.48830095367526, 235.60496762034194, 235.7216342870086, 235.8383009536753, 235.95496762034196, 236.07163428700864, 236.1883009536753, 236.30496762034198, 236.5383009536753]	2021_Feb_04_1402	60.094017253211874	1	1
23	40	FALSE	NA	v	['P', 'S', 'Y', 'R', 'W', 'V', 'N', 'C', 'B', 'U', 'X', 'J', 'E', 'A', 'T', 'M']	[1456, 1731, 2670, 1587, 2448, 2245, 1335, 829, 760, 2059, 4000, 1029, 904, 697, 1888, 1224]	11	Present	NA	NA	PRESENT	0.2342700958251953	238.5376799106598	240.53537106513977	241.46906685829163	241.81930899620056	244.64216995239255	4.106798887252808	[238.54723405838013, 238.6474311351776, 239.63179111480713, 239.79864192008972, 240.56650304794312, 240.6829481124878, 240.79989099502563, 240.89973711967468, 241.01652908325195, 241.13335800170898, 241.25021696090698, 241.3669650554657, 241.48374199867249, 241.60061693191528, 241.71736192703247, 241.8341269493103, 241.95095109939575, 242.06770300865173, 242.18472504615784, 242.3012719154358, 242.418231010437, 242.6421709060669]	[238.5383009536753, 238.65496762034198, 239.63796762034198, 239.80466762034197, 240.55466762034197, 240.67133428700865, 240.78800095367532, 240.904667620342, 241.02133428700867, 241.13800095367534, 241.25466762034202, 241.3713342870087, 241.48800095367537, 241.60466762034204, 241.72133428700872, 241.8380009536754, 241.95466762034206, 242.07133428700874, 242.1880009536754, 242.3046676203421, 242.42133428700876, 242.65466762034208]	2021_Feb_04_1402	60.094017253211874	1	1
23	41	FALSE	NN	v	['A', 'G', 'K', 'M', 'Z', 'E', 'T', 'R', 'J', 'B', 'C', 'H', 'Y', 'W', 'N', 'S']	[697, 944, 1122, 1224, 2911, 904, 1888, 1587, 1029, 760, 829, 986, 2670, 2448, 1335, 1731]	13	Absent	NA	NA	ABSENT	0.3988339900970459	244.64428400993347	246.6516280174255	247.81862092018127	248.1690800189972	250.7585370540619	4.1069090366363525	[244.65383791923523, 244.77073502540588, 245.75524997711182, 245.92198705673218, 246.67267990112305, 246.78948211669922, 246.9063470363617, 247.02320003509521, 247.14006090164185, 247.25656700134277, 247.37358903884888, 247.49038791656494, 247.60716700553894, 247.7238690853119, 247.84077405929565, 247.95750403404236, 248.0743911266327, 248.1911540031433, 248.30800700187683, 248.42472195625305, 248.54150295257568, 248.7585380077362]	[244.65466762034208, 244.77133428700876, 245.75433428700876, 245.92103428700875, 246.67103428700875, 246.78770095367543, 246.9043676203421, 247.02103428700877, 247.13770095367545, 247.25436762034212, 247.3710342870088, 247.48770095367547, 247.60436762034215, 247.72103428700882, 247.8377009536755, 247.95436762034217, 248.07103428700884, 248.18770095367552, 248.3043676203422, 248.42103428700887, 248.53770095367554, 248.77103428700886]	2021_Feb_04_1402	60.094017253211874	1	1
23	42	FALSE	NV	v	['T', 'P', 'Z', 'U', 'E', 'A', 'R', 'B', 'J', 'S', 'W', 'H', 'X', 'K', 'N', 'G']	[1888, 1456, 2911, 2059, 904, 697, 1587, 760, 1029, 1731, 2448, 986, 4000, 1122, 1335, 944]	13	Present	NA	NA	PRESENT	0.23640704154968264	250.7678420543671	252.7681279182434	253.93506407737732	254.2852249145508	256.8749029636383	4.1067750453948975	[250.77739596366882, 250.8940510749817, 251.87817811965942, 252.04533100128174, 252.79583501815796, 252.91271996498108, 253.02965903282166, 253.14643692970276, 253.26294803619385, 253.38001799583435, 253.49665307998657, 253.6135470867157, 253.73043608665466, 253.84714603424072, 253.96405696868896, 254.0806441307068, 254.19733810424805, 254.31434202194214, 254.43111491203308, 254.54780507087708, 254.64785313606262, 254.8749029636383]	[250.77103428700886, 250.88770095367553, 251.87070095367554, 252.03740095367553, 252.78740095367553, 252.9040676203422, 253.02073428700888, 253.13740095367555, 253.25406762034223, 253.3707342870089, 253.48740095367558, 253.60406762034225, 253.72073428700892, 253.8374009536756, 253.95406762034227, 254.07073428700895, 254.18740095367562, 254.3040676203423, 254.42073428700897, 254.53740095367564, 254.65406762034232, 254.88740095367564]	2021_Feb_04_1402	60.094017253211874	1	1
23	43	FALSE	NV	v	['M', 'K', 'S', 'Z', 'R', 'W', 'J', 'V', 'X', 'G', 'H', 'P', 'A', 'C', 'N', 'U']	[1224, 1122, 1731, 2911, 1587, 2448, 1029, 2245, 4000, 944, 986, 1456, 697, 829, 1335, 2059]	9	Present	NA	NA	PRESENT	0.26496219635009766	256.87411308288574	258.8843219280243	259.5848140716553	259.93500304222107	262.9912700653076	4.106948137283325	[256.8836750984192, 257.0004949569702, 257.9849889278412, 258.15166997909546, 258.9022719860077, 259.019189119339, 259.1360659599304, 259.25291109085083, 259.3697729110718, 259.48637795448303, 259.6033000946045, 259.7199649810791, 259.83695912361145, 259.9535400867462, 260.0703239440918, 260.1871180534363, 260.3040370941162, 260.42103004455566, 260.5374391078949, 260.65430998802185, 260.7712481021881, 260.9912691116333]	[256.88740095367564, 257.0040676203423, 257.9870676203423, 258.1537676203423, 258.9037676203423, 259.020434287009, 259.13710095367566, 259.25376762034233, 259.370434287009, 259.4871009536757, 259.60376762034235, 259.720434287009, 259.8371009536757, 259.9537676203424, 260.07043428700905, 260.1871009536757, 260.3037676203424, 260.4204342870091, 260.53710095367575, 260.6537676203424, 260.7704342870091, 261.00376762034244]	2021_Feb_04_1402	60.094017253211874	1	1
23	44	FALSE	NV	v	['M', 'N', 'B', 'Y', 'Z', 'G', 'S', 'V', 'X', 'W', 'U', 'P', 'J', 'T', 'R', 'K']	[1224, 1335, 760, 2670, 2911, 944, 1731, 2245, 4000, 2448, 2059, 1456, 1029, 1888, 1587, 1122]	9	Present	NA	NA	PRESENT	0.1494901180267334	262.99735403060913	265.0006649494171	265.701171875	266.051146030426	269.10763692855835	4.106971979141235	[263.0069069862366, 263.1237440109253, 264.1079111099243, 264.27508211135864, 265.0257189273834, 265.1424241065979, 265.259299993515, 265.3760631084442, 265.4926800727844, 265.6096770763397, 265.72632002830505, 265.84338998794556, 265.95991492271423, 266.0767140388489, 266.1935420036316, 266.31044912338257, 266.4271399974823, 266.5441150665283, 266.66069412231445, 266.7777440547943, 266.89432311058044, 267.10763597488403]	[263.00376762034244, 263.1204342870091, 264.1034342870091, 264.2701342870091, 265.0201342870091, 265.1368009536758, 265.25346762034246, 265.37013428700914, 265.4868009536758, 265.6034676203425, 265.72013428700916, 265.83680095367583, 265.9534676203425, 266.0701342870092, 266.18680095367586, 266.30346762034253, 266.4201342870092, 266.5368009536759, 266.65346762034255, 266.7701342870092, 266.8868009536759, 267.12013428700925]	2021_Feb_04_1402	60.094017253211874	1	1
23	45	FALSE	NA	v	['C', 'S', 'A', 'T', 'N', 'R', 'H', 'X', 'M', 'U', 'V', 'Z', 'Y', 'P', 'W', 'J']	[829, 1731, 697, 1888, 1335, 1587, 986, 4000, 1224, 2059, 2245, 2911, 2670, 1456, 2448, 1029]	8	Present	NA	NA	PRESENT	0.2265009880065918	269.10376501083374	271.11708903312683	271.70087695121765	272.0507810115814	275.22400403022766	4.10691499710083	[269.1133179664612, 269.23007702827454, 270.2144949436188, 270.3816809654236, 271.1488709449768, 271.24889397621155, 271.3656430244446, 271.48248291015625, 271.59926104545593, 271.7160611152649, 271.83280205726624, 271.9496021270752, 272.0663959980011, 272.1832139492035, 272.3001871109009, 272.41680812835693, 272.53357696533203, 272.65047097206116, 272.7673740386963, 272.88402104377747, 273.0010049343109, 273.22400307655334]	[269.12013428700925, 269.2368009536759, 270.21980095367593, 270.3865009536759, 271.1365009536759, 271.2531676203426, 271.36983428700927, 271.48650095367594, 271.6031676203426, 271.7198342870093, 271.83650095367597, 271.95316762034264, 272.0698342870093, 272.186500953676, 272.30316762034266, 272.41983428700934, 272.536500953676, 272.6531676203427, 272.76983428700936, 272.88650095367603, 273.0031676203427, 273.23650095367606]	2021_Feb_04_1402	60.094017253211874	1	1
23	46	FALSE	NN	v	['G', 'V', 'U', 'B', 'K', 'W', 'T', 'P', 'H', 'N', 'C', 'M', 'E', 'J', 'A', 'R']	[944, 2245, 2059, 760, 1122, 2448, 1888, 1456, 986, 1335, 829, 1224, 904, 1029, 697, 1587]	11	Absent	NA	NA	ABSENT	0.2951178550720215	275.2270588874817	277.23354601860046	278.1672520637512	278.5171740055084	281.3403699398041	4.106823921203613	[275.2366120815277, 275.3531970977783, 276.33762192726135, 276.5047149658203, 277.2553000450134, 277.3723111152649, 277.48902010917664, 277.60571908950806, 277.722608089447, 277.83937311172485, 277.9561929702759, 278.0728049278259, 278.1898601055145, 278.3066029548645, 278.423455953598, 278.54018902778625, 278.65694093704224, 278.77385210990906, 278.8903720378876, 279.00739002227783, 279.12396693229675, 279.340371131897]	[275.23650095367606, 275.35316762034273, 276.33616762034274, 276.5028676203427, 277.2528676203427, 277.3695342870094, 277.4862009536761, 277.60286762034275, 277.7195342870094, 277.8362009536761, 277.9528676203428, 278.06953428700945, 278.1862009536761, 278.3028676203428, 278.41953428700947, 278.53620095367614, 278.6528676203428, 278.7695342870095, 278.88620095367617, 279.00286762034284, 279.1195342870095, 279.35286762034286]	2021_Feb_04_1402	60.094017253211874	1	1
23	47	FALSE	NN	v	['C', 'J', 'A', 'K', 'M', 'V', 'S', 'Y', 'Z', 'T', 'R', 'W', 'G', 'B', 'P', 'H']	[829, 1029, 697, 1122, 1224, 2245, 1731, 2670, 2911, 1888, 1587, 2448, 944, 760, 1456, 986]	9	Absent	NA	NA	ABSENT	0.2923929691314697	281.35054206848145	283.34980487823486	284.0502688884735	284.4001729488373	287.4567370414734	4.106932163238525	[281.3600950241089, 281.47677302360535, 282.4611930847168, 282.62771797180176, 283.3785710334778, 283.49541997909546, 283.6122100353241, 283.72902393341064, 283.8457729816437, 283.9626750946045, 284.07950592041016, 284.19613003730774, 284.3128471374512, 284.4298551082611, 284.54642510414124, 284.6633310317993, 284.7802429199219, 284.89701795578003, 285.013631105423, 285.130441904068, 285.2305951118469, 285.45673513412476]	[281.35286762034286, 281.46953428700954, 282.45253428700954, 282.61923428700953, 283.36923428700953, 283.4859009536762, 283.6025676203429, 283.71923428700956, 283.83590095367623, 283.9525676203429, 284.0692342870096, 284.18590095367625, 284.3025676203429, 284.4192342870096, 284.5359009536763, 284.65256762034295, 284.7692342870096, 284.8859009536763, 285.002567620343, 285.11923428700965, 285.2359009536763, 285.46923428700967]	2021_Feb_04_1402	60.094017253211874	1	1
23	48	FALSE	VV	v	['P', 'K', 'V', 'E', 'surprise', 'B', 'S', 'X', 'R', 'H', 'A', 'N', 'G', 'U', 'J', 'Z']	[1456, 1122, 2245, 904, 'stimAuditory/all_stimAuditory/205.wav', 760, 1731, 4000, 1587, 986, 697, 1335, 944, 2059, 1029, 2911]	8	Present	NA	stimVisual/all_stimVisual/150.jpg	PRESENT	0.24857687950134277	287.45679998397827	289.4662039279938	290.0501148700714	290.4000279903412	293.5731029510498	4.10689902305603	[287.4663541316986, 287.58311104774475, 288.56759810447693, 288.7341899871826, 289.4850959777832, 289.6018171310425, 289.7187600135803, 289.8354489803314, 289.9688501358032, 290.06902408599854, 290.18577003479004, 290.3026089668274, 290.4193470478058, 290.5361499786377, 290.6529779434204, 290.76991295814514, 290.88670110702515, 291.0033450126648, 291.1201379299164, 291.23701906204224, 291.3540201187134, 291.5731019973755]	[287.46923428700967, 287.58590095367634, 288.56890095367635, 288.73560095367634, 289.48560095367634, 289.602267620343, 289.7189342870097, 289.83560095367636, 289.95226762034304, 290.0689342870097, 290.1856009536764, 290.30226762034306, 290.41893428700973, 290.5356009536764, 290.6522676203431, 290.76893428700976, 290.88560095367643, 291.0022676203431, 291.1189342870098, 291.23560095367645, 291.3522676203431, 291.5856009536765]	2021_Feb_04_1402	60.094017253211874	1	1
23	49	FALSE	NN	v	['U', 'Z', 'Y', 'E', 'R', 'A', 'S', 'M', 'T', 'P', 'V', 'C', 'K', 'J', 'N', 'B']	[2059, 2911, 2670, 904, 1587, 697, 1731, 1224, 1888, 1456, 2245, 829, 1122, 1029, 1335, 760]	12	Absent	NA	NA	ABSENT	0.3495159149169922	293.5800619125366	295.5825250148773	296.63319396972656	296.9834499359131	299.6894700527191	4.106945037841797	[293.58961606025696, 293.7064199447632, 294.6906991004944, 294.8576419353485, 295.60855507850647, 295.72512698173523, 295.84214210510254, 295.9587860107422, 296.07531094551086, 296.1922879219055, 296.30897998809814, 296.4259350299835, 296.5429120063782, 296.65954303741455, 296.77621698379517, 296.89318108558655, 297.00980710983276, 297.12659192085266, 297.2434780597687, 297.36014008522034, 297.47692012786865, 297.6894690990448]	[293.5856009536765, 293.70226762034315, 294.68526762034315, 294.85196762034315, 295.60196762034315, 295.7186342870098, 295.8353009536765, 295.95196762034317, 296.06863428700984, 296.1853009536765, 296.3019676203432, 296.41863428700987, 296.53530095367654, 296.6519676203432, 296.7686342870099, 296.88530095367656, 297.00196762034324, 297.1186342870099, 297.2353009536766, 297.35196762034326, 297.46863428700993, 297.7019676203433]	2021_Feb_04_1402	60.094017253211874	1	1
23	50	FALSE	NA	v	['G', 'W', 'A', 'S', 'Z', 'K', 'T', 'R', 'B', 'C', 'N', 'X', 'E', 'U', 'Y', 'H']	[944, 2448, 697, 1731, 2911, 1122, 1888, 1587, 760, 829, 1335, 4000, 904, 2059, 2670, 986]	12	Present	NA	NA	PRESENT	0.2351288795471191	299.686292886734	301.69891905784607	302.74926495552063	303.09952688217163	305.80583596229553	4.106916904449463	[299.69584608078003, 299.812863111496, 300.79711294174194, 300.9640200138092, 301.7319529056549, 301.8315260410309, 301.94854497909546, 302.0651640892029, 302.18208503723145, 302.29869413375854, 302.4157679080963, 302.53228306770325, 302.64928793907166, 302.7660059928894, 302.88286805152893, 302.9995450973511, 303.11642503738403, 303.23317098617554, 303.3500599861145, 303.46669006347656, 303.5835831165314, 303.80583596229553]	[299.7019676203433, 299.81863428700996, 300.80163428700996, 300.96833428700995, 301.71833428700995, 301.8350009536766, 301.9516676203433, 302.06833428701, 302.18500095367665, 302.3016676203433, 302.41833428701, 302.5350009536767, 302.65166762034335, 302.76833428701, 302.8850009536767, 303.00166762034337, 303.11833428701004, 303.2350009536767, 303.3516676203434, 303.46833428701007, 303.58500095367674, 303.8183342870101]	2021_Feb_04_1402	60.094017253211874	1	1
23	51	FALSE	VN	v	['W', 'T', 'E', 'R', 'U', 'P', 'surprise', 'S', 'A', 'J', 'C', 'Z', 'N', 'G', 'Y', 'B']	[2448, 1888, 904, 1587, 2059, 1456, 'stimAuditory/all_stimAuditory/116.wav', 1731, 697, 1029, 829, 2911, 1335, 944, 2670, 760]	10	Absent	NA	stimVisual/all_stimVisual/111.jpg	ABSENT	0.30341005325317383	305.8098568916321	307.8153660297394	308.6324369907379	308.9823899269104	311.92220401763916	4.10683798789978	[305.8194229602814, 305.93615794181824, 306.92029190063477, 307.0873351097107, 307.837975025177, 307.95489597320557, 308.0716700553894, 308.18847393989563, 308.30516290664673, 308.42200207710266, 308.53888607025146, 308.6556260585785, 308.7722179889679, 308.88915395736694, 309.0058901309967, 309.1226489543915, 309.2396459579468, 309.3564031124115, 309.47306394577026, 309.59003496170044, 309.7066879272461, 309.92220401763916]	[305.8183342870101, 305.93500095367676, 306.91800095367677, 307.08470095367676, 307.83470095367676, 307.95136762034343, 308.0680342870101, 308.1847009536768, 308.30136762034346, 308.41803428701013, 308.5347009536768, 308.6513676203435, 308.76803428701015, 308.8847009536768, 309.0013676203435, 309.1180342870102, 309.23470095367685, 309.3513676203435, 309.4680342870102, 309.5847009536769, 309.70136762034355, 309.9347009536769]	2021_Feb_04_1402	60.094017253211874	1	1
23	52	FALSE	NN	v	['V', 'H', 'Z', 'U', 'M', 'T', 'Y', 'C', 'E', 'G', 'B', 'K', 'N', 'W', 'J', 'P']	[2245, 986, 2911, 2059, 1224, 1888, 2670, 829, 904, 944, 760, 1122, 1335, 2448, 1029, 1456]	8	Absent	NA	NA	PRESENT	1.0446221828460691	311.9332399368286	313.9318060874939	314.5154519081116	314.865287065506	318.0385699272156	4.10676383972168	[311.94279313087463, 312.0593159198761, 313.02686309814453, 313.19371008872986, 313.96134209632874, 314.0782549381256, 314.19486904144287, 314.31183910369873, 314.4283630847931, 314.5451850891113, 314.66187500953674, 314.7787890434265, 314.8956971168518, 315.0124831199646, 315.1293659210205, 315.2459931373596, 315.3459270000458, 315.47952795028687, 315.57955503463745, 315.69641494750977, 315.81334710121155, 316.0385711193085]	[311.9347009536769, 312.05136762034357, 313.0343676203436, 313.20106762034357, 313.95106762034357, 314.06773428701024, 314.1844009536769, 314.3010676203436, 314.41773428701026, 314.53440095367694, 314.6510676203436, 314.7677342870103, 314.88440095367696, 315.00106762034363, 315.1177342870103, 315.234400953677, 315.35106762034366, 315.46773428701033, 315.584400953677, 315.7010676203437, 315.81773428701035, 316.0510676203437]	2021_Feb_04_1402	60.094017253211874	1	1
23	53	FALSE	NV	v	['G', 'Y', 'T', 'Z', 'N', 'P', 'M', 'A', 'J', 'V', 'B', 'K', 'C', 'X', 'H', 'S']	[944, 2670, 1888, 2911, 1335, 1456, 1224, 697, 1029, 2245, 760, 1122, 829, 4000, 986, 1731]	14	Present	NA	NA	PRESENT	0.4573249816894531	318.0395760536194	320.04820799827576	321.33177399635315	321.68183994293213	324.1549370288849	4.106729030609131	[318.0491440296173, 318.16591811180115, 319.1501190662384, 319.31707096099854, 320.06782507896423, 320.1844890117645, 320.30149507522583, 320.41832995414734, 320.5350730419159, 320.6518669128418, 320.7685649394989, 320.8853449821472, 321.00223994255066, 321.11889600753784, 321.23572611808777, 321.35283398628235, 321.46943402290344, 321.5861909389496, 321.7028350830078, 321.81986808776855, 321.9363820552826, 322.1549370288849]	[318.0510676203437, 318.1677342870104, 319.1507342870104, 319.31743428701037, 320.06743428701037, 320.18410095367705, 320.3007676203437, 320.4174342870104, 320.53410095367707, 320.65076762034374, 320.7674342870104, 320.8841009536771, 321.00076762034377, 321.11743428701044, 321.2341009536771, 321.3507676203438, 321.46743428701046, 321.58410095367714, 321.7007676203438, 321.8174342870105, 321.93410095367716, 322.1674342870105]	2021_Feb_04_1402	60.094017253211874	1	1
23	54	FALSE	NV	v	['C', 'Y', 'R', 'U', 'A', 'B', 'E', 'X', 'N', 'H', 'M', 'J', 'V', 'S', 'T', 'K']	[829, 2670, 1587, 2059, 697, 760, 904, 4000, 1335, 986, 1224, 1029, 2245, 1731, 1888, 1122]	8	Present	NA	NA	PRESENT	0.3029968738555908	324.1627678871155	326.1643440723419	326.7485280036926	327.0983259677887	330.2713029384613	4.106958866119385	[324.1723210811615, 324.2889471054077, 325.2733609676361, 325.4401330947876, 326.19089007377625, 326.3078119754791, 326.4247200489044, 326.5412759780884, 326.65815591812134, 326.77494192123413, 326.8917410373688, 327.00863909721375, 327.12542390823364, 327.2422161102295, 327.358855009079, 327.47564911842346, 327.592915058136, 327.70922112464905, 327.825963973999, 327.9429199695587, 328.04289412498474, 328.271301984787]	[324.1674342870105, 324.2841009536772, 325.2671009536772, 325.4338009536772, 326.1838009536772, 326.30046762034385, 326.4171342870105, 326.5338009536772, 326.6504676203439, 326.76713428701055, 326.8838009536772, 327.0004676203439, 327.1171342870106, 327.23380095367725, 327.3504676203439, 327.4671342870106, 327.58380095367727, 327.70046762034394, 327.8171342870106, 327.9338009536773, 328.05046762034397, 328.2838009536773]	2021_Feb_04_1402	60.094017253211874	1	1
23	55	FALSE	NA	v	['T', 'N', 'C', 'S', 'B', 'Z', 'K', 'X', 'M', 'J', 'Y', 'P', 'W', 'R', 'U', 'E']	[1888, 1335, 829, 1731, 760, 2911, 1122, 4000, 1224, 1029, 2670, 1456, 2448, 1587, 2059, 904]	8	Present	NA	NA	PRESENT	0.7631740570068359	330.2690329551697	332.2806990146637	332.8645169734955	333.21461296081543	336.3876700401306	4.106971025466919	[330.2785859107971, 330.395348072052, 331.38009905815125, 331.54677510261536, 332.31429505348206, 332.41421699523926, 332.5311141014099, 332.6480231285095, 332.76473593711853, 332.88149094581604, 332.9983289241791, 333.1150290966034, 333.2319529056549, 333.3485860824585, 333.465371131897, 333.5821900367737, 333.6991710662842, 333.8158509731293, 333.9325931072235, 334.0495240688324, 334.1661870479584, 334.3876690864563]	[330.2838009536773, 330.400467620344, 331.383467620344, 331.550167620344, 332.300167620344, 332.41683428701066, 332.53350095367733, 332.650167620344, 332.7668342870107, 332.88350095367736, 333.00016762034403, 333.1168342870107, 333.2335009536774, 333.35016762034405, 333.4668342870107, 333.5835009536774, 333.7001676203441, 333.81683428701075, 333.9335009536774, 334.0501676203441, 334.1668342870108, 334.4001676203441]	2021_Feb_04_1402	60.094017253211874	1	1
23	56	FALSE	VA	v	['Z', 'P', 'G', 'C', 'V', 'surprise', 'W', 'E', 'X', 'S', 'T', 'H', 'A', 'B', 'M', 'N']	[2911, 1456, 944, 829, 2245, 'stimAuditory/all_stimAuditory/112.wav', 2448, 904, 4000, 1731, 1888, 986, 697, 760, 1224, 1335]	9	Present	NA	stimVisual/all_stimVisual/204.jpg	PRESENT	0.22379207611083984	336.39241099357605	338.3971219062805	339.0976068973541	339.4475739002228	342.50403594970703	4.106914043426514	[336.4019639492035, 336.51870608329773, 337.50296092033386, 337.66994404792786, 338.4207479953766, 338.53760409355164, 338.65448904037476, 338.77120208740234, 338.88786792755127, 339.02145409584045, 339.1216690540314, 339.23836398124695, 339.3549180030823, 339.4718759059906, 339.588809967041, 339.70559000968933, 339.82224702835083, 339.9391441345215, 340.05581402778625, 340.17251801490784, 340.2894489765167, 340.50403690338135]	[336.4001676203441, 336.5168342870108, 337.4998342870108, 337.6665342870108, 338.4165342870108, 338.53320095367746, 338.64986762034414, 338.7665342870108, 338.8832009536775, 338.99986762034416, 339.11653428701084, 339.2332009536775, 339.3498676203442, 339.46653428701086, 339.58320095367753, 339.6998676203442, 339.8165342870109, 339.93320095367756, 340.04986762034423, 340.1665342870109, 340.2832009536776, 340.5165342870109]	2021_Feb_04_1402	60.094017253211874	1	1
23	57	FALSE	NA	v	['G', 'E', 'K', 'Z', 'P', 'B', 'M', 'X', 'N', 'A', 'T', 'S', 'H', 'R', 'Y', 'W']	[944, 904, 1122, 2911, 1456, 760, 1224, 4000, 1335, 697, 1888, 1731, 986, 1587, 2670, 2448]	8	Present	NA	NA	PRESENT	0.22104310989379883	342.5159239768982	344.5134289264679	345.0973000526428	345.4473309516907	348.62040400505066	4.106975078582764	[342.52547812461853, 342.6421229839325, 343.60949301719666, 343.77649092674255, 344.5437879562378, 344.6608200073242, 344.7774350643158, 344.89445996284485, 344.99434900283813, 345.12804102897644, 345.2279269695282, 345.34469509124756, 345.4614601135254, 345.5782539844513, 345.6950170993805, 345.81177496910095, 345.928591966629, 346.0454149246216, 346.162220954895, 346.2790050506592, 346.3959050178528, 346.62040305137634]	[342.5165342870109, 342.6332009536776, 343.6162009536776, 343.7829009536776, 344.5329009536776, 344.64956762034427, 344.76623428701095, 344.8829009536776, 344.9995676203443, 345.11623428701097, 345.23290095367764, 345.3495676203443, 345.466234287011, 345.58290095367767, 345.69956762034434, 345.816234287011, 345.9329009536777, 346.04956762034436, 346.16623428701104, 346.2829009536777, 346.3995676203444, 346.63290095367773]	2021_Feb_04_1402	60.094017253211874	1	1
23	58	FALSE	NN	v	['K', 'T', 'Y', 'C', 'Z', 'V', 'N', 'U', 'A', 'E', 'G', 'B', 'J', 'H', 'M', 'P']	[1122, 1888, 2670, 829, 2911, 2245, 1335, 2059, 697, 904, 944, 760, 1029, 986, 1224, 1456]	11	Absent	NA	NA	ABSENT	0.16169500350952148	348.62216997146606	350.63007497787476	351.5636360645294	351.91354298591614	354.73676896095276	4.106693983078003	[348.6317229270935, 348.7483239173889, 349.73272490501404, 349.8995130062103, 350.6503310203552, 350.7671310901642, 350.88414192199707, 351.0008840560913, 351.1175720691681, 351.23443698883057, 351.351037979126, 351.4678490161896, 351.58494806289673, 351.7017319202423, 351.8183181285858, 351.9350759983063, 352.05191707611084, 352.1688439846039, 352.2855191230774, 352.40270590782166, 352.51919507980347, 352.7367699146271]	[348.63290095367773, 348.7495676203444, 349.7325676203444, 349.8992676203444, 350.6492676203444, 350.7659342870111, 350.88260095367775, 350.9992676203444, 351.1159342870111, 351.2326009536778, 351.34926762034445, 351.4659342870111, 351.5826009536778, 351.6992676203445, 351.81593428701115, 351.9326009536778, 352.0492676203445, 352.16593428701117, 352.28260095367784, 352.3992676203445, 352.5159342870112, 352.74926762034454]	2021_Feb_04_1402	60.094017253211874	1	1
23	59	FALSE	NA	v	['M', 'J', 'U', 'C', 'S', 'G', 'A', 'B', 'Y', 'P', 'X', 'N', 'K', 'W', 'E', 'T']	[1224, 1029, 2059, 829, 1731, 944, 697, 760, 2670, 1456, 4000, 1335, 1122, 2448, 904, 1888]	11	Present	NA	NA	PRESENT	0.11097002029418944	354.7454900741577	356.7462239265442	357.68003606796265	358.03001594543457	360.8531370162964	4.106913089752197	[354.7550439834595, 354.8716371059418, 355.85605001449585, 356.0229709148407, 356.77360796928406, 356.8906600475311, 357.00721406936646, 357.12423396110535, 357.240935087204, 357.3575689792633, 357.4743881225586, 357.5913600921631, 357.707955121994, 357.8249480724335, 357.94148302078247, 358.0584571361542, 358.17519211769104, 358.2920379638672, 358.40860891342163, 358.5254399776459, 358.62552309036255, 358.8531370162964]	[354.74926762034454, 354.8659342870112, 355.8489342870112, 356.0156342870112, 356.7656342870112, 356.8823009536779, 356.99896762034456, 357.11563428701123, 357.2323009536779, 357.3489676203446, 357.46563428701126, 357.58230095367793, 357.6989676203446, 357.8156342870113, 357.93230095367795, 358.0489676203446, 358.1656342870113, 358.282300953678, 358.39896762034465, 358.5156342870113, 358.632300953678, 358.86563428701135]	2021_Feb_04_1402	60.094017253211874	1	1
23	60	FALSE	NA	v	['C', 'Z', 'A', 'W', 'E', 'U', 'P', 'J', 'X', 'M', 'Y', 'T', 'S', 'R', 'K', 'B']	[829, 2911, 697, 2448, 904, 2059, 1456, 1029, 4000, 1224, 2670, 1888, 1731, 1587, 1122, 760]	9	Present	NA	NA	PRESENT	0.2434399127960205	360.8519730567932	362.86267590522766	363.5631899833679	363.91433691978455	366.9695029258728	4.106827020645142	[360.86152601242065, 360.9780321121216, 361.96251797676086, 362.129408121109, 362.8804349899292, 362.9970099925995, 363.11391401290894, 363.23053908348083, 363.3474669456482, 363.4641671180725, 363.58108711242676, 363.69780111312866, 363.8146378993988, 363.9313769340515, 364.0481231212616, 364.16492795944214, 364.28188490867615, 364.3985159397125, 364.5153090953827, 364.6319169998169, 364.74881196022034, 364.9695029258728]	[360.86563428701135, 360.982300953678, 361.965300953678, 362.132000953678, 362.882000953678, 362.9986676203447, 363.11533428701136, 363.23200095367804, 363.3486676203447, 363.4653342870114, 363.58200095367806, 363.69866762034474, 363.8153342870114, 363.9320009536781, 364.04866762034476, 364.16533428701143, 364.2820009536781, 364.3986676203448, 364.51533428701146, 364.63200095367813, 364.7486676203448, 364.98200095367815]	2021_Feb_04_1402	60.094017253211874	1	1
23	61	FALSE	VA	v	['V', 'W', 'S', 'G', 'J', 'Y', 'N', 'P', 'C', 'R', 'surprise', 'B', 'H', 'X', 'Z', 'T']	[2245, 2448, 1731, 944, 1029, 2670, 1335, 1456, 829, 1587, 'stimAuditory/all_stimAuditory/115.wav', 760, 986, 4000, 2911, 1888]	14	Present	NA	stimVisual/all_stimVisual/214.jpg	ABSENT	0.959925889968872	366.9751679897308	368.97895789146423	370.2627649307251	370.6128258705139	373.0858700275421	4.106912136077881	[366.9847209453583, 367.10156512260437, 368.08574199676514, 368.252641916275, 369.0033309459686, 369.1203329563141, 369.2368640899658, 369.3539369106293, 369.4704511165619, 369.5873930454254, 369.70406007766724, 369.8210349082947, 369.9376220703125, 370.0546760559082, 370.17131900787354, 370.2881739139557, 370.40477299690247, 370.52177000045776, 370.63849997520447, 370.7552099227905, 370.8721480369568, 371.08587098121643]	[366.98200095367815, 367.0986676203448, 368.08166762034483, 368.2483676203448, 368.9983676203448, 369.1150342870115, 369.23170095367817, 369.34836762034485, 369.4650342870115, 369.5817009536782, 369.69836762034487, 369.81503428701154, 369.9317009536782, 370.0483676203449, 370.16503428701157, 370.28170095367824, 370.3983676203449, 370.5150342870116, 370.63170095367826, 370.74836762034494, 370.8650342870116, 371.09836762034496]	2021_Feb_04_1402	60.094017253211874	1	1
23	62	FALSE	NN	v	['V', 'Y', 'U', 'G', 'J', 'R', 'K', 'H', 'N', 'T', 'Z', 'A', 'M', 'W', 'E', 'P']	[2245, 2670, 2059, 944, 1029, 1587, 1122, 986, 1335, 1888, 2911, 697, 1224, 2448, 904, 1456]	9	Absent	NA	NA	ABSENT	0.7654750347137451	373.081650018692	375.0954298973083	375.79568099975586	376.1458330154419	379.2022371292114	4.106807231903076	[373.09120297431946, 373.20772790908813, 374.1922719478607, 374.35926508903503, 375.1265399456024, 375.22660303115845, 375.34345507621765, 375.4601340293884, 375.57699704170227, 375.693727016449, 375.81055307388306, 375.9273519515991, 376.04439091682434, 376.1609539985657, 376.2778129577637, 376.3945550918579, 376.5114691257477, 376.62807297706604, 376.745078086853, 376.86186599731445, 376.9785270690918, 377.20223593711853]	[373.09836762034496, 373.21503428701163, 374.19803428701164, 374.36473428701163, 375.11473428701163, 375.2314009536783, 375.348067620345, 375.46473428701165, 375.5814009536783, 375.698067620345, 375.8147342870117, 375.93140095367835, 376.048067620345, 376.1647342870117, 376.28140095367837, 376.39806762034505, 376.5147342870117, 376.6314009536784, 376.74806762034507, 376.86473428701174, 376.9814009536784, 377.21473428701177]	2021_Feb_04_1402	60.094017253211874	1	1
23	63	FALSE	NV	v	['G', 'U', 'H', 'P', 'S', 'N', 'V', 'X', 'A', 'W', 'J', 'C', 'B', 'R', 'M', 'Y']	[944, 2059, 986, 1456, 1731, 1335, 2245, 4000, 697, 2448, 1029, 829, 760, 1587, 1224, 2670]	8	Present	NA	NA	PRESENT	0.2178478240966797	379.2048618793487	381.2116448879242	381.795450925827	382.14549589157104	385.31860303878784	4.1069581508636475	[379.2144150733948, 379.33103108406067, 380.3155131340027, 380.48236107826233, 381.23317193984985, 381.3500211238861, 381.4667909145355, 381.58360409736633, 381.70044803619385, 381.8171241283417, 381.93386602401733, 382.05084896087646, 382.1674461364746, 382.28443813323975, 382.40140104293823, 382.51797795295715, 382.6346080303192, 382.75150299072266, 382.86819410324097, 382.9848849773407, 383.10182094573975, 383.31860303878784]	[379.21473428701177, 379.33140095367844, 380.31440095367844, 380.48110095367844, 381.23110095367844, 381.3477676203451, 381.4644342870118, 381.58110095367846, 381.69776762034513, 381.8144342870118, 381.9311009536785, 382.04776762034516, 382.16443428701183, 382.2811009536785, 382.3977676203452, 382.51443428701185, 382.6311009536785, 382.7477676203452, 382.8644342870119, 382.98110095367855, 383.0977676203452, 383.3311009536786]	2021_Feb_04_1402	60.094017253211874	1	1
23	64	FALSE	AN	v	['R', 'W', 'A', 'M', 'surprise', 'K', 'C', 'J', 'B', 'E', 'N', 'G', 'T', 'P', 'V', 'U']	[1587, 2448, 697, 1224, 'stimAuditory/all_stimAuditory/208.wav', 1122, 829, 1029, 760, 904, 1335, 944, 1888, 1456, 2245, 2059]	8	Absent	stimAuditory/all_stimAuditory/213.wav	stimVisual/all_stimVisual/250.jpg	ABSENT	1.7031002044677734	385.3278729915619	387.32825207710266	387.9117999076843	388.26180386543274	391.43496894836426	4.106716871261597	[385.33742594718933, 385.4543309211731, 386.4386239051819, 386.6054849624634, 387.356281042099, 387.4730041027069, 387.58997106552124, 387.70679998397827, 387.8234610557556, 387.9404580593109, 388.0571529865265, 388.1739559173584, 388.2908470630646, 388.4076340198517, 388.5241630077362, 388.6412470340729, 388.75799798965454, 388.874783039093, 388.9914770126343, 389.1082389354706, 389.20824790000916, 389.43496894836426]	[385.3311009536786, 385.44776762034525, 386.43076762034525, 386.59746762034524, 387.34746762034524, 387.4641342870119, 387.5808009536786, 387.69746762034526, 387.81413428701194, 387.9308009536786, 388.0474676203453, 388.16413428701196, 388.28080095367864, 388.3974676203453, 388.514134287012, 388.63080095367866, 388.74746762034533, 388.864134287012, 388.9808009536787, 389.09746762034536, 389.21413428701203, 389.4474676203454]	2021_Feb_04_1402	60.094017253211874	1	1
23	65	FALSE	NV	v	['S', 'Y', 'V', 'P', 'J', 'Z', 'B', 'K', 'M', 'U', 'T', 'X', 'W', 'R', 'G', 'H']	[1731, 2670, 2245, 1456, 1029, 2911, 760, 1122, 1224, 2059, 1888, 4000, 2448, 1587, 944, 986]	12	Present	NA	NA	PRESENT	0.1155080795288086	391.4345118999481	393.4445719718933	394.49480390548706	394.84520292282104	397.5513420104981	4.106770038604736	[391.44406509399414, 391.5607371330261, 392.5455229282379, 392.7121250629425, 393.46268796920776, 393.5796799659729, 393.6963279247284, 393.81333804130554, 393.93014693260193, 394.0468399524689, 394.1634750366211, 394.2805070877075, 394.3970720767975, 394.5140631198883, 394.63070702552795, 394.7476649284363, 394.86423993110657, 394.98130798339844, 395.097815990448, 395.21481490135193, 395.33141112327576, 395.55133605003357]	[391.4474676203454, 391.56413428701205, 392.54713428701206, 392.71383428701205, 393.46383428701205, 393.5805009536787, 393.6971676203454, 393.81383428701207, 393.93050095367875, 394.0471676203454, 394.1638342870121, 394.28050095367877, 394.39716762034544, 394.5138342870121, 394.6305009536788, 394.74716762034546, 394.86383428701214, 394.9805009536788, 395.0971676203455, 395.21383428701216, 395.33050095367884, 395.5638342870122]	2021_Feb_04_1402	60.094017253211874	1	1
23	66	FALSE	NN	v	['Y', 'S', 'V', 'P', 'Z', 'M', 'C', 'R', 'A', 'J', 'N', 'G', 'T', 'K', 'B', 'E']	[2670, 1731, 2245, 1456, 2911, 1224, 829, 1587, 697, 1029, 1335, 944, 1888, 1122, 760, 904]	10	Absent	NA	NA	ABSENT	0.4002938270568848	397.55764508247375	399.5607199668884	400.3782958984375	400.7279410362244	403.6677029132843	4.106982946395874	[397.5671980381012, 397.6840169429779, 398.66855096817017, 398.835205078125, 399.585923910141, 399.70289397239685, 399.81968212127686, 399.93649101257324, 400.0531470775604, 400.16995096206665, 400.2867980003357, 400.40382194519043, 400.52041006088257, 400.6373460292816, 400.75407004356384, 400.8708031177521, 400.9875400066376, 401.1044490337372, 401.2211899757385, 401.3378040790558, 401.4546239376068, 401.6677029132843]	[397.5638342870122, 397.68050095367886, 398.66350095367886, 398.83020095367885, 399.58020095367885, 399.69686762034553, 399.8135342870122, 399.9302009536789, 400.04686762034555, 400.1635342870122, 400.2802009536789, 400.3968676203456, 400.51353428701225, 400.6302009536789, 400.7468676203456, 400.86353428701227, 400.98020095367895, 401.0968676203456, 401.2135342870123, 401.33020095367897, 401.44686762034564, 401.680200953679]	2021_Feb_04_1402	60.094017253211874	1	1
23	67	FALSE	NV	v	['E', 'T', 'M', 'R', 'C', 'P', 'K', 'A', 'W', 'X', 'H', 'Z', 'N', 'U', 'J', 'G']	[904, 1888, 1224, 1587, 829, 1456, 1122, 697, 2448, 4000, 986, 2911, 1335, 2059, 1029, 944]	10	Present	NA	NA	PRESENT	0.07757806777954102	403.6643509864807	405.6772038936615	406.4957010746002	406.84430599212646	409.7840700149536	4.106866121292114	[403.67390394210815, 403.79041290283203, 404.7748529911041, 404.9418969154358, 405.70918011665344, 405.8092529773712, 405.9260051250458, 406.0428249835968, 406.1596870422363, 406.2765429019928, 406.39337611198425, 406.5100739002228, 406.62683391571045, 406.74386501312256, 406.8603880405426, 406.9774100780487, 407.09430503845215, 407.211021900177, 407.3278820514679, 407.44448709487915, 407.5611820220947, 407.7840690612793]	[403.680200953679, 403.79686762034567, 404.77986762034567, 404.94656762034566, 405.69656762034566, 405.81323428701234, 405.929900953679, 406.0465676203457, 406.16323428701236, 406.27990095367903, 406.3965676203457, 406.5132342870124, 406.62990095367905, 406.74656762034573, 406.8632342870124, 406.9799009536791, 407.09656762034575, 407.2132342870124, 407.3299009536791, 407.4465676203458, 407.56323428701245, 407.7965676203458]	2021_Feb_04_1402	60.094017253211874	1	1
23	68	FALSE	NN	v	['J', 'Y', 'W', 'H', 'M', 'C', 'S', 'T', 'N', 'G', 'E', 'K', 'R', 'B', 'V', 'A']	[1029, 2670, 2448, 986, 1224, 829, 1731, 1888, 1335, 944, 904, 1122, 1587, 760, 2245, 697]	9	Absent	NA	NA	ABSENT	0.321990966796875	409.78753900527954	411.79347586631775	412.49399495124817	412.84438705444336	415.90043592453	4.10696005821228	[409.797091960907, 409.91367292404175, 410.8981990814209, 411.0649471282959, 411.8157420158386, 411.9327070713043, 412.04927706718445, 412.166316986084, 412.28293204307556, 412.3998749256134, 412.51649498939514, 412.6333739757538, 412.75004410743713, 412.86681604385376, 412.9838960170746, 413.1005120277405, 413.2172529697418, 413.33426809310913, 413.45096492767334, 413.56765508651733, 413.6844410896301, 413.9004371166229]	[409.7965676203458, 409.9132342870125, 410.8962342870125, 411.06293428701247, 411.81293428701247, 411.92960095367914, 412.0462676203458, 412.1629342870125, 412.27960095367916, 412.39626762034584, 412.5129342870125, 412.6296009536792, 412.74626762034586, 412.86293428701254, 412.9796009536792, 413.0962676203459, 413.21293428701256, 413.32960095367923, 413.4462676203459, 413.5629342870126, 413.67960095367926, 413.9129342870126]	2021_Feb_04_1402	60.094017253211874	1	1
23	69	FALSE	NN	v	['M', 'A', 'P', 'R', 'Y', 'C', 'T', 'E', 'G', 'J', 'Z', 'H', 'B', 'V', 'S', 'W']	[1224, 697, 1456, 1587, 2670, 829, 1888, 904, 944, 1029, 2911, 986, 760, 2245, 1731, 2448]	10	Absent	NA	NA	ABSENT	0.28743696212768555	415.91047191619873	417.90979194641113	418.7269389629364	419.077024936676	422.01680302619934	4.107011079788208	[415.92002511024475, 416.03685212135315, 417.0215570926666, 417.1714379787445, 417.93907403945923, 418.0559251308441, 418.1727111339569, 418.2893280982971, 418.4060549736023, 418.52285599708557, 418.6397171020508, 418.75672912597656, 418.8733940124512, 418.99009895324707, 419.1069030761719, 419.22392296791077, 419.3405249118805, 419.4574010372162, 419.57429695129395, 419.6907389163971, 419.7909469604492, 420.016802072525]	[415.9129342870126, 416.0296009536793, 417.0126009536793, 417.1793009536793, 417.9293009536793, 418.04596762034595, 418.1626342870126, 418.2793009536793, 418.39596762034597, 418.51263428701265, 418.6293009536793, 418.745967620346, 418.86263428701267, 418.97930095367934, 419.095967620346, 419.2126342870127, 419.32930095367936, 419.44596762034604, 419.5626342870127, 419.6793009536794, 419.79596762034606, 420.0293009536794]	2021_Feb_04_1402	60.094017253211874	1	1
23	70	FALSE	NV	v	['R', 'K', 'A', 'V', 'Y', 'U', 'P', 'Z', 'J', 'E', 'S', 'H', 'C', 'X', 'M', 'T']	[1587, 1122, 697, 2245, 2670, 2059, 1456, 2911, 1029, 904, 1731, 986, 829, 4000, 1224, 1888]	14	Present	NA	NA	PRESENT	0.19592714309692383	422.0172939300537	424.0262620449066	425.3100678920746	425.66007804870605	428.13316893577576	4.106906890869141	[422.02684712409973, 422.143413066864, 423.12783193588257, 423.29479813575745, 424.04562306404114, 424.16229796409607, 424.2789571285248, 424.39602994918823, 424.5125870704651, 424.62953305244446, 424.7461431026459, 424.8631899356842, 424.97994804382324, 425.0967450141907, 425.21320104599, 425.33033299446106, 425.44691491127014, 425.56379890441895, 425.6806290149689, 425.7975890636444, 425.9142849445343, 426.13316893577576]	[422.0293009536794, 422.1459676203461, 423.1289676203461, 423.2956676203461, 424.0456676203461, 424.16233428701275, 424.27900095367943, 424.3956676203461, 424.5123342870128, 424.62900095367945, 424.7456676203461, 424.8623342870128, 424.9790009536795, 425.09566762034615, 425.2123342870128, 425.3290009536795, 425.44566762034617, 425.56233428701285, 425.6790009536795, 425.7956676203462, 425.91233428701287, 426.1456676203462]	2021_Feb_04_1402	60.094017253211874	1	1
23	71	FALSE	NA	v	['M', 'J', 'U', 'G', 'A', 'C', 'H', 'T', 'S', 'P', 'X', 'E', 'R', 'K', 'Y', 'N']	[1224, 1029, 2059, 944, 697, 829, 986, 1888, 1731, 1456, 4000, 904, 1587, 1122, 2670, 1335]	11	Present	NA	NA	PRESENT	0.04155302047729492	428.1402649879456	430.1428129673004	431.0765209197998	431.42642307281494	434.2495369911194	4.10672402381897	[428.149817943573, 428.26671290397644, 429.25116205215454, 429.417827129364, 430.1686520576477, 430.28557991981506, 430.4024109840393, 430.51920795440674, 430.6358389854431, 430.7528250217438, 430.86949610710144, 430.98613810539246, 431.1030490398407, 431.21997809410095, 431.33678698539734, 431.4536340236664, 431.5703821182251, 431.6870529651642, 431.80388593673706, 431.9206020832062, 432.0373110771179, 432.2495379447937]	[428.1456676203462, 428.2623342870129, 429.2453342870129, 429.4120342870129, 430.1620342870129, 430.27870095367956, 430.39536762034624, 430.5120342870129, 430.6287009536796, 430.74536762034626, 430.86203428701293, 430.9787009536796, 431.0953676203463, 431.21203428701295, 431.32870095367963, 431.4453676203463, 431.562034287013, 431.67870095367965, 431.7953676203463, 431.912034287013, 432.0287009536797, 432.262034287013]	2021_Feb_04_1402	60.094017253211874	1	1
23	72	FALSE	NA	v	['P', 'A', 'K', 'B', 'N', 'Z', 'W', 'G', 'X', 'R', 'S', 'M', 'V', 'T', 'C', 'J']	[1456, 697, 1122, 760, 1335, 2911, 2448, 944, 4000, 1587, 1731, 1224, 2245, 1888, 829, 1029]	9	Present	NA	NA	PRESENT	0.2536749839782715	434.2471148967743	436.25900888442993	436.95956087112427	437.3093159198761	440.3659029006958	4.106894016265869	[434.2566680908203, 434.3732349872589, 435.35766196250916, 435.52432894706726, 436.2919590473175, 436.39202904701233, 436.50890612602234, 436.62548995018005, 436.7424030303955, 436.85920691490173, 436.9759039878845, 437.0929160118103, 437.2094991207123, 437.3264319896698, 437.4432120323181, 437.56001901626587, 437.6766390800476, 437.79363107681274, 437.91031193733215, 438.0272400379181, 438.14394998550415, 438.3659029006958]	[434.262034287013, 434.3787009536797, 435.3617009536797, 435.5284009536797, 436.2784009536797, 436.39506762034637, 436.51173428701304, 436.6284009536797, 436.7450676203464, 436.86173428701306, 436.97840095367974, 437.0950676203464, 437.2117342870131, 437.32840095367976, 437.44506762034644, 437.5617342870131, 437.6784009536798, 437.79506762034646, 437.91173428701313, 438.0284009536798, 438.1450676203465, 438.37840095367983]	2021_Feb_04_1402	60.094017253211874	1	1
23	73	FALSE	AA	v	['T', 'Z', 'G', 'A', 'J', 'S', 'P', 'U', 'surprise', 'K', 'H', 'X', 'N', 'R', 'W', 'B']	[1888, 2911, 944, 697, 1029, 1731, 1456, 2059, 'stimAuditory/all_stimAuditory/114.wav', 1122, 986, 4000, 1335, 1587, 2448, 760]	12	Present	stimAuditory/all_stimAuditory/121.wav	stimVisual/all_stimVisual/110.jpg	ABSENT	0.8824000358581543	440.3702030181885	442.3754949569702	443.4259560108185	443.7757999897003	446.4822700023651	4.1067750453948975	[440.3797559738159, 440.49641013145447, 441.48072600364685, 441.64772510528564, 442.39853596687317, 442.5153729915619, 442.6319360733032, 442.74888801574707, 442.8655710220337, 442.98251509666443, 443.0990500450134, 443.21607398986816, 443.3329999446869, 443.44960713386536, 443.5664629936218, 443.68323802948, 443.7999269962311, 443.91671800613403, 444.0336260795593, 444.1504271030426, 444.2672860622406, 444.4822690486908]	[440.37840095367983, 440.4950676203465, 441.4780676203465, 441.6447676203465, 442.3947676203465, 442.5114342870132, 442.62810095367985, 442.7447676203465, 442.8614342870132, 442.97810095367987, 443.09476762034654, 443.2114342870132, 443.3281009536799, 443.44476762034657, 443.56143428701324, 443.6781009536799, 443.7947676203466, 443.91143428701326, 444.02810095367994, 444.1447676203466, 444.2614342870133, 444.49476762034664]	2021_Feb_04_1402	60.094017253211874	1	1
23	74	FALSE	NA	v	['Y', 'S', 'K', 'T', 'G', 'Z', 'C', 'X', 'R', 'N', 'J', 'H', 'B', 'M', 'W', 'A']	[2670, 1731, 1122, 1888, 944, 2911, 829, 4000, 1587, 1335, 1029, 986, 760, 1224, 2448, 697]	8	Present	NA	NA	PRESENT	0.25568199157714844	446.4934458732605	448.4916448593139	449.07550406455994	449.42541098594666	452.5986371040344	4.106992244720459	[446.5029990673065, 446.61986112594604, 447.58724308013916, 447.75406408309937, 448.52163100242615, 448.6386330127716, 448.7552490234375, 448.87216091156006, 448.9888970851898, 449.10566306114197, 449.22231101989746, 449.33930492401123, 449.45615005493164, 449.57276701927185, 449.6893799304962, 449.7895529270172, 449.9064140319824, 450.02324295043945, 450.13997411727905, 450.25681591033936, 450.37367510795593, 450.59863805770874]	[446.49476762034664, 446.6114342870133, 447.5944342870133, 447.7611342870133, 448.5111342870133, 448.62780095368, 448.74446762034665, 448.86113428701333, 448.97780095368, 449.0944676203467, 449.21113428701335, 449.32780095368, 449.4444676203467, 449.5611342870134, 449.67780095368005, 449.7944676203467, 449.9111342870134, 450.02780095368007, 450.14446762034675, 450.2611342870134, 450.3778009536801, 450.61113428701344]	2021_Feb_04_1402	60.094017253211874	1	1
23	75	FALSE	NV	v	['A', 'Y', 'Z', 'M', 'R', 'V', 'E', 'C', 'X', 'T', 'J', 'U', 'K', 'H', 'N', 'P']	[697, 2670, 2911, 1224, 1587, 2245, 904, 829, 4000, 1888, 1029, 2059, 1122, 986, 1335, 1456]	9	Present	NA	NA	PRESENT	0.2201838493347168	452.5996859073639	454.6079270839691	455.3087689876557	455.6585590839386	458.7150030136109	4.107075929641724	[452.6092391014099, 452.72621607780457, 453.7108430862427, 453.8773601055145, 454.6280789375305, 454.74512696266174, 454.86172699928284, 454.9786489009857, 455.09530091285706, 455.2123169898987, 455.32900309562683, 455.445867061615, 455.56252813339233, 455.6793920993805, 455.796138048172, 455.9128580093384, 456.02965211868286, 456.14659690856934, 456.2632849216461, 456.38018107414246, 456.4967999458313, 456.71500301361084]	[452.61113428701344, 452.7278009536801, 453.7108009536801, 453.8775009536801, 454.6275009536801, 454.7441676203468, 454.86083428701346, 454.97750095368013, 455.0941676203468, 455.2108342870135, 455.32750095368016, 455.44416762034683, 455.5608342870135, 455.6775009536802, 455.79416762034685, 455.91083428701353, 456.0275009536802, 456.1441676203469, 456.26083428701355, 456.3775009536802, 456.4941676203469, 456.72750095368025]	2021_Feb_04_1402	60.094017253211874	1	1
23	76	FALSE	NV	v	['U', 'A', 'G', 'Y', 'N', 'W', 'E', 'R', 'Z', 'M', 'S', 'X', 'J', 'B', 'K', 'T']	[2059, 697, 944, 2670, 1335, 2448, 904, 1587, 2911, 1224, 1731, 4000, 1029, 760, 1122, 1888]	12	Present	NA	NA	PRESENT	0.14561915397644043	458.72302293777466	460.72441697120667	461.7747919559479	462.1249809265137	464.83137011528015	4.106953144073486	[458.7325789928436, 458.8494749069214, 459.83391094207764, 460.00053906440735, 460.7513339519501, 460.86829590797424, 460.9851369857788, 461.1020610332489, 461.2186059951782, 461.3354730606079, 461.4521780014038, 461.56896209716797, 461.68595790863037, 461.80238795280457, 461.91919708251953, 462.03621101379395, 462.15291595458984, 462.2696030139923, 462.38666701316833, 462.50324296951294, 462.60327792167664, 462.83137011528015]	[458.72750095368025, 458.8441676203469, 459.8271676203469, 459.9938676203469, 460.7438676203469, 460.8605342870136, 460.97720095368027, 461.09386762034694, 461.2105342870136, 461.3272009536803, 461.44386762034696, 461.56053428701364, 461.6772009536803, 461.793867620347, 461.91053428701366, 462.02720095368034, 462.143867620347, 462.2605342870137, 462.37720095368036, 462.49386762034703, 462.6105342870137, 462.84386762034705]	2021_Feb_04_1402	60.094017253211874	1	1
23	77	FALSE	NA	v	['N', 'H', 'Y', 'K', 'Z', 'A', 'E', 'C', 'V', 'U', 'X', 'S', 'J', 'B', 'R', 'T']	[1335, 986, 2670, 1122, 2911, 697, 904, 829, 2245, 2059, 4000, 1731, 1029, 760, 1587, 1888]	11	Present	NA	NA	PRESENT	0.0861358642578125	464.83002495765686	466.84079003334045	467.7746610641479	468.1246960163117	470.9477369785309	4.10694694519043	[464.8395779132843, 464.95590806007385, 465.94022011756897, 466.10698103904724, 466.8578670024872, 466.97474193573, 467.09162306785583, 467.20847606658936, 467.3250699043274, 467.44197702407837, 467.5585789680481, 467.6755380630493, 467.7921779155731, 467.9091260433197, 468.0257489681244, 468.14252495765686, 468.2594039440155, 468.37625098228455, 468.49298906326294, 468.60970997810364, 468.72668290138245, 468.94773602485657]	[464.84386762034705, 464.96053428701373, 465.94353428701373, 466.1102342870137, 466.8602342870137, 466.9769009536804, 467.0935676203471, 467.21023428701375, 467.3269009536804, 467.4435676203471, 467.56023428701377, 467.67690095368044, 467.7935676203471, 467.9102342870138, 468.02690095368047, 468.14356762034714, 468.2602342870138, 468.3769009536805, 468.49356762034716, 468.61023428701384, 468.7269009536805, 468.96023428701386]	2021_Feb_04_1402	60.094017253211874	1	1
23	78	FALSE	NN	v	['T', 'P', 'M', 'R', 'K', 'N', 'C', 'S', 'J', 'B', 'W', 'Z', 'V', 'Y', 'H', 'U']	[1888, 1456, 1224, 1587, 1122, 1335, 829, 1731, 1029, 760, 2448, 2911, 2245, 2670, 986, 2059]	14	Absent	NA	NA	ABSENT	0.1947648525238037	470.9527349472046	472.95721793174744	474.2408640384674	474.59108805656433	477.064101934433	4.106884002685547	[470.96228790283203, 471.07922101020813, 472.063355922699, 472.23044896125793, 472.98106813430786, 473.0980429649353, 473.2147250175476, 473.3316330909729, 473.44842290878296, 473.5651581287384, 473.681911945343, 473.79861092567444, 473.9154350757599, 474.03212213516235, 474.14906001091003, 474.2657959461212, 474.38295006752014, 474.4993851184845, 474.6162679195404, 474.73307609558105, 474.84985303878784, 475.0641031265259]	[470.96023428701386, 471.07690095368054, 472.05990095368054, 472.22660095368053, 472.97660095368053, 473.0932676203472, 473.2099342870139, 473.32660095368055, 473.4432676203472, 473.5599342870139, 473.6766009536806, 473.79326762034725, 473.9099342870139, 474.0266009536806, 474.1432676203473, 474.25993428701395, 474.3766009536806, 474.4932676203473, 474.60993428701397, 474.72660095368065, 474.8432676203473, 475.07660095368067]	2021_Feb_04_1402	60.094017253211874	1	1
23	79	FALSE	NA	v	['V', 'K', 'A', 'S', 'R', 'B', 'T', 'G', 'Z', 'X', 'U', 'J', 'P', 'M', 'Y', 'H']	[2245, 1122, 697, 1731, 1587, 760, 1888, 944, 2911, 4000, 2059, 1029, 1456, 1224, 2670, 986]	10	Present	NA	NA	PRESENT	0.09592795372009276	477.07620906829834	479.0735230445862	479.8909740447998	480.2406530380249	483.1804699897766	4.10694694519043	[477.0857620239258, 477.185585975647, 478.169842004776, 478.33670806884766, 479.10427713394165, 479.2042760848999, 479.3379089832306, 479.43793201446533, 479.55467891693115, 479.6880600452423, 479.788281917572, 479.9050199985504, 480.02185106277466, 480.1386470794678, 480.2554371356964, 480.3722879886627, 480.48906898498535, 480.6058421134949, 480.7226610183716, 480.8394389152527, 480.9562759399414, 481.1804709434509]	[477.07660095368067, 477.19326762034734, 478.17626762034735, 478.34296762034734, 479.09296762034734, 479.209634287014, 479.3263009536807, 479.44296762034736, 479.55963428701403, 479.6763009536807, 479.7929676203474, 479.90963428701406, 480.02630095368073, 480.1429676203474, 480.2596342870141, 480.37630095368075, 480.49296762034743, 480.6096342870141, 480.7263009536808, 480.84296762034745, 480.9596342870141, 481.1929676203475]	2021_Feb_04_1402	60.094017253211874	1	1
