participant	trial_num	practice	task	condition	RSVP	RAP	probePos	probe_presence	surprise_sound	surprise_img	probe_response	probe_resp_time	first_fixation_time	trial_start_time	surprise_start_time	probe_start_time	trial_end_time	trial_duration	actualEventTimes	plannedEventTimes	date	framerate	marker_vol	RAP_vol
10	1	FALSE	NA	v	['A', 'K', 'C', 'U', 'T', 'G', 'B', 'N', 'J', 'P', 'X', 'M', 'Y', 'Z', 'S', 'R']	[697, 1122, 829, 2059, 1888, 944, 760, 1335, 1029, 1456, 4000, 1224, 2670, 2911, 1731, 1587]	11	Present	NA	NA	PRESENT	0.4753949642181397	2.1457672119140625e-6	1.9993741512298584	2.930835008621216	3.2812211513519287	6.103869915008545	4.1044957637786865	[0.010622978210449219, 0.11032295227050781, 1.0949149131774902, 1.2617039680480957, 2.0290961265563965, 2.129223108291626, 2.2459850311279297, 2.3627870082855225, 2.4796230792999268, 2.5962979793548584, 2.71299409866333, 2.8298730850219727, 2.946702003479004, 3.063581943511963, 3.1802380084991455, 3.2969861030578613, 3.414041042327881, 3.530618906021118, 3.6473801136016846, 3.764190912246704, 3.8811070919036865, 4.103878021240234]	[9.5367431640625e-07, 0.11666762034098306, 1.099667620340983, 1.266367620340983, 2.016367620340983, 2.1330342870076495, 2.249700953674316, 2.366367620340983, 2.4830342870076496, 2.5997009536743163, 2.716367620340983, 2.8330342870076497, 2.9497009536743164, 3.066367620340983, 3.18303428700765, 3.2997009536743165, 3.416367620340983, 3.53303428700765, 3.6497009536743166, 3.7663676203409833, 3.88303428700765, 4.116367620340983]	2021_Jan_19_1423	59.86167446400995	1	1
10	2	FALSE	NV	v	['C', 'M', 'W', 'B', 'N', 'J', 'T', 'S', 'V', 'X', 'A', 'K', 'H', 'Z', 'R', 'E']	[829, 1224, 2448, 760, 1335, 1029, 1888, 1731, 2245, 4000, 697, 1122, 986, 2911, 1587, 904]	10	Present	NA	NA	PRESENT	0.4641249179840088	6.106281042098999	8.112560033798218	8.929383993148804	9.279284000396729	12.22023606300354	4.107676029205322	[6.11690092086792, 6.233683109283447, 7.217968940734863, 7.384939908981323, 8.135569095611572, 8.252444982528687, 8.369184017181396, 8.486058950424194, 8.602844953536987, 8.719660997390747, 8.836472988128662, 8.953237056732178, 9.070174932479858, 9.186814069747925, 9.303438901901245, 9.420277118682861, 9.537048101425171, 9.65394401550293, 9.770612001419067, 9.887411117553711, 10.004285097122192, 10.22023606300354]	[6.116367620340983, 6.23303428700765, 7.216034287007649, 7.382734287007649, 8.132734287007649, 8.249400953674316, 8.366067620340983, 8.48273428700765, 8.599400953674317, 8.716067620340985, 8.832734287007652, 8.949400953674319, 9.066067620340986, 9.182734287007653, 9.29940095367432, 9.416067620340987, 9.532734287007655, 9.649400953674322, 9.766067620340989, 9.882734287007656, 9.999400953674323, 10.232734287007656]	2021_Jan_19_1423	59.86167446400995	1	1
10	3	FALSE	NN	v	['S', 'E', 'B', 'Z', 'U', 'H', 'A', 'N', 'G', 'T', 'Y', 'C', 'J', 'V', 'R', 'K']	[1731, 904, 760, 2911, 2059, 986, 697, 1335, 944, 1888, 2670, 829, 1029, 2245, 1587, 1122]	11	Absent	NA	NA	ABSENT	0.46953701972961426	12.229334115982056	14.228825092315674	15.162323951721191	15.512509107589722	18.336601972579956	4.107776880264282	[12.239953994750977, 12.356779098510742, 13.341270923614502, 13.491131067276001, 14.258888959884644, 14.375715017318726, 14.49233889579773, 14.609307050704956, 14.726035118103027, 14.842807054519653, 14.959357976913452, 15.076417922973633, 15.193067073822021, 15.310044050216675, 15.426784992218018, 15.543567895889282, 15.660535097122192, 15.777040958404541, 15.893999099731445, 16.010740995407104, 16.11082100868225, 16.336601972579956]	[12.232734287007656, 12.349400953674323, 13.332400953674323, 13.499100953674324, 14.249100953674324, 14.365767620340991, 14.482434287007658, 14.599100953674325, 14.715767620340992, 14.83243428700766, 14.949100953674327, 15.065767620340994, 15.182434287007661, 15.299100953674328, 15.415767620340995, 15.532434287007662, 15.64910095367433, 15.765767620340997, 15.882434287007664, 15.999100953674331, 16.115767620340996, 16.34910095367433]	2021_Jan_19_1423	59.86167446400995	1	1
10	4	FALSE	NA	v	['G', 'W', 'P', 'K', 'R', 'M', 'V', 'T', 'Y', 'X', 'U', 'N', 'A', 'J', 'B', 'Z']	[944, 2448, 1456, 1122, 1587, 1224, 2245, 1888, 2670, 4000, 2059, 1335, 697, 1029, 760, 2911]	10	Present	NA	NA	PRESENT	0.3701200485229492	18.33602499961853	20.345283031463623	21.16201400756836	21.512041091918945	24.452969074249268	4.1076860427856445	[18.34664511680603, 18.46315312385559, 19.447930097579956, 19.614341974258423, 20.365190029144287, 20.482028007507324, 20.598835945129395, 20.715723037719727, 20.83225989341736, 20.949228048324585, 21.065869092941284, 21.182761907577515, 21.299665927886963, 21.416476011276245, 21.53307008743286, 21.650022983551025, 21.7668559551239, 21.883686065673828, 22.00023889541626, 22.11726999282837, 22.233922958374023, 22.452969074249268]	[18.34910095367433, 18.465767620340998, 19.448767620341, 19.615467620340997, 20.365467620340997, 20.482134287007664, 20.59880095367433, 20.715467620341, 20.832134287007666, 20.948800953674333, 21.065467620341, 21.182134287007667, 21.298800953674334, 21.415467620341, 21.53213428700767, 21.648800953674336, 21.765467620341003, 21.88213428700767, 21.998800953674337, 22.115467620341004, 22.23213428700767, 22.465467620341006]	2021_Jan_19_1423	59.86167446400995	1	1
10	5	FALSE	NV	v	['G', 'N', 'T', 'Z', 'Y', 'K', 'P', 'B', 'X', 'C', 'E', 'J', 'S', 'V', 'U', 'H']	[944, 1335, 1888, 2911, 2670, 1122, 1456, 760, 4000, 829, 904, 1029, 1731, 2245, 2059, 986]	9	Present	NA	NA	PRESENT	0.3666520118713379	24.45893907546997	26.46152114868164	27.161874055862427	27.512020111083984	30.569336891174316	4.107815742492676	[24.469559907913208, 24.586543083190918, 25.570970058441162, 25.737601041793823, 26.488362073898315, 26.6053409576416, 26.721965074539185, 26.838862895965576, 26.955454111099243, 27.072479963302612, 27.18909192085266, 27.30588412284851, 27.42286491394043, 27.539493083953857, 27.656484127044678, 27.773085117340088, 27.88990592956543, 28.006805896759033, 28.123512983322144, 28.24032711982727, 28.356982946395874, 28.569336891174316]	[24.465467620341006, 24.582134287007673, 25.565134287007673, 25.731834287007672, 26.481834287007672, 26.59850095367434, 26.715167620341006, 26.831834287007673, 26.94850095367434, 27.065167620341008, 27.181834287007675, 27.298500953674342, 27.41516762034101, 27.531834287007676, 27.648500953674343, 27.76516762034101, 27.881834287007678, 27.998500953674345, 28.115167620341012, 28.23183428700768, 28.348500953674346, 28.58183428700768]	2021_Jan_19_1423	59.86167446400995	1	1
10	6	FALSE	NV	v	['V', 'C', 'H', 'P', 'Y', 'R', 'W', 'X', 'M', 'A', 'J', 'S', 'K', 'Z', 'N', 'B']	[2245, 829, 986, 1456, 2670, 1587, 2448, 4000, 1224, 697, 1029, 1731, 1122, 2911, 1335, 760]	8	Present	NA	NA	PRESENT	0.6839079856872559	30.5656840801239	32.578092098236084	33.16140913963318	33.51175093650818	36.68570399284363	4.107611894607544	[30.57630491256714, 30.692902088165283, 31.67711591720581, 31.84416389465332, 32.61170697212219, 32.71159911155701, 32.828675985336304, 32.945252895355225, 33.06211805343628, 33.17882299423218, 33.29553008079529, 33.41250205039978, 33.52928590774536, 33.64605712890625, 33.76275706291199, 33.87963795661926, 33.996411085128784, 34.11329698562622, 34.22993302345276, 34.34683394432068, 34.463464975357056, 34.68570399284363]	[30.58183428700768, 30.698500953674348, 31.681500953674348, 31.848200953674347, 32.59820095367435, 32.71486762034102, 32.831534287007685, 32.94820095367435, 33.06486762034102, 33.181534287007686, 33.29820095367435, 33.41486762034102, 33.53153428700769, 33.648200953674355, 33.76486762034102, 33.88153428700769, 33.998200953674356, 34.11486762034102, 34.23153428700769, 34.34820095367436, 34.464867620341025, 34.69820095367436]	2021_Jan_19_1423	59.86167446400995	1	1
10	7	FALSE	NN	v	['M', 'E', 'Z', 'C', 'K', 'N', 'U', 'P', 'V', 'Y', 'R', 'B', 'T', 'G', 'A', 'J']	[1224, 904, 2911, 829, 1122, 1335, 2059, 1456, 2245, 2670, 1587, 760, 1888, 944, 697, 1029]	12	Absent	NA	NA	ABSENT	0.39246201515197754	36.68883204460144	38.694154024124146	39.744349002838135	40.0946569442749	42.80206990242005	4.107915878295898	[36.699450969696045, 36.81598901748657, 37.80051898956299, 37.96737003326416, 38.718169927597046, 38.83501195907593, 38.951679944992065, 39.06844210624695, 39.18531107902527, 39.30209302902222, 39.418774127960205, 39.53570008277893, 39.65233111381531, 39.76924705505371, 39.88596296310425, 40.00286602973938, 40.11976099014282, 40.2362699508667, 40.35327410697937, 40.46983504295349, 40.586824893951416, 40.802069902420044]	[36.69820095367436, 36.814867620341026, 37.79786762034102, 37.96456762034102, 38.71456762034102, 38.83123428700769, 38.947900953674356, 39.06456762034102, 39.18123428700769, 39.29790095367436, 39.414567620341025, 39.53123428700769, 39.64790095367436, 39.764567620341026, 39.88123428700769, 39.99790095367436, 40.11456762034103, 40.231234287007695, 40.34790095367436, 40.46456762034103, 40.581234287007696, 40.81456762034103]	2021_Jan_19_1423	59.86167446400995	1	1
10	8	FALSE	VV	v	['V', 'B', 'J', 'C', 'P', 'A', 'G', 'U', 'S', 'surprise', 'R', 'W', 'X', 'T', 'Y', 'E']	[2245, 760, 1029, 829, 1456, 697, 944, 2059, 1731, 'stimAuditory/all_stimAuditory/216.wav', 1587, 2448, 4000, 1888, 2670, 904]	13	Present	NA	stimVisual/all_stimVisual/106.jpg	ABSENT	0.6699519157409668	42.811753034591675	44.810532093048096	45.977702140808105	46.32749915122986	48.91843605041504	4.107903957366943	[42.82237410545349, 42.93928289413452, 43.906805992126465, 44.07367300987244, 44.8413519859314, 44.958117961883545, 45.074774980545044, 45.19167995452881, 45.30848407745361, 45.42508292198181, 45.542083978652954, 45.65883803367615, 45.77549505233765, 45.89232397079468, 46.00926089286804, 46.109097957611084, 46.22594904899597, 46.342724084854126, 46.45946407318115, 46.576348066329956, 46.69318699836731, 46.91843605041504]	[42.81456762034103, 42.9312342870077, 43.914234287007694, 44.08093428700769, 44.83093428700769, 44.94760095367436, 45.06426762034103, 45.180934287007695, 45.29760095367436, 45.41426762034103, 45.530934287007696, 45.64760095367436, 45.76426762034103, 45.8809342870077, 45.997600953674365, 46.11426762034103, 46.2309342870077, 46.347600953674366, 46.46426762034103, 46.5809342870077, 46.69760095367437, 46.9309342870077]	2021_Jan_19_1423	59.86167446400995	1	1
10	9	FALSE	NV	v	['P', 'Y', 'N', 'G', 'J', 'M', 'K', 'B', 'C', 'H', 'X', 'U', 'V', 'S', 'Z', 'R']	[1456, 2670, 1335, 944, 1029, 1224, 1122, 760, 829, 986, 4000, 2059, 2245, 1731, 2911, 1587]	11	Present	NA	NA	PRESENT	0.4745049476623535	48.91838312149048	50.9271559715271	51.860576152801514	52.21048092842102	55.03480291366577	4.107646942138672	[48.9290030002594, 49.04590606689453, 50.03043603897095, 50.19689202308655, 50.94773507118225, 51.06454610824585, 51.18140006065369, 51.29814291000366, 51.4148371219635, 51.5317759513855, 51.64833998680115, 51.76534295082092, 51.88216495513916, 51.998944997787476, 52.115631103515625, 52.232364892959595, 52.349231004714966, 52.466180086135864, 52.5827419757843, 52.69979500770569, 52.81653308868408, 53.034801959991455]	[48.9309342870077, 49.04760095367437, 50.030600953674366, 50.197300953674365, 50.947300953674365, 51.06396762034103, 51.1806342870077, 51.297300953674366, 51.41396762034103, 51.5306342870077, 51.64730095367437, 51.763967620341035, 51.8806342870077, 51.99730095367437, 52.113967620341036, 52.2306342870077, 52.34730095367437, 52.46396762034104, 52.580634287007705, 52.69730095367437, 52.81396762034104, 53.04730095367437]	2021_Jan_19_1423	59.86167446400995	1	1
10	10	FALSE	NN	v	['Z', 'S', 'G', 'V', 'T', 'J', 'B', 'H', 'N', 'M', 'A', 'W', 'R', 'Y', 'E', 'P']	[2911, 1731, 944, 2245, 1888, 1029, 760, 986, 1335, 1224, 697, 2448, 1587, 2670, 904, 1456]	12	Absent	NA	NA	ABSENT	0.5679099559783936	55.041424036026	57.04348611831665	58.09401297569275	58.44342398643494	61.15117001533508	4.107683897018433	[55.05204391479492, 55.16902208328247, 56.153326988220215, 56.32020807266235, 57.0708589553833, 57.187894105911255, 57.304548025131226, 57.421303033828735, 57.53818106651306, 57.65485095977783, 57.77155590057373, 57.888564109802246, 58.005197048187256, 58.12220811843872, 58.23889708518982, 58.355830907821655, 58.47264504432678, 58.58903193473816, 58.705873012542725, 58.82267212867737, 58.92285895347595, 59.1511709690094]	[55.04730095367437, 55.16396762034104, 56.14696762034104, 56.313667620341036, 57.063667620341036, 57.1803342870077, 57.29700095367437, 57.41366762034104, 57.530334287007705, 57.64700095367437, 57.76366762034104, 57.880334287007706, 57.99700095367437, 58.11366762034104, 58.23033428700771, 58.347000953674375, 58.46366762034104, 58.58033428700771, 58.697000953674376, 58.81366762034104, 58.93033428700771, 59.163667620341045]	2021_Jan_19_1423	59.86167446400995	1	1
10	11	FALSE	AA	v	['B', 'T', 'C', 'G', 'surprise', 'S', 'E', 'X', 'K', 'J', 'P', 'W', 'R', 'Y', 'U', 'V']	[760, 1888, 829, 944, 'stimAuditory/all_stimAuditory/203.wav', 1731, 904, 4000, 1122, 1029, 1456, 2448, 1587, 2670, 2059, 2245]	8	Present	stimAuditory/all_stimAuditory/216.wav	stimVisual/all_stimVisual/100.jpg	ABSENT	0.5720841884613037	61.14819598197937	63.1597900390625	63.74342107772827	64.09339904785156	67.2675371170044	4.1077470779418945	[61.15881705284119, 61.27555990219116, 62.259851932525635, 62.42679190635681, 63.19420504570007, 63.294214963912964, 63.41090393066406, 63.52775692939758, 63.661125898361206, 63.76135611534119, 63.87810802459717, 63.99504590034485, 64.11167812347412, 64.22855997085571, 64.3452479839325, 64.46209192276001, 64.57890796661377, 64.69575905799866, 64.81233310699463, 64.9293920993805, 65.04603290557861, 65.2675359249115]	[61.163667620341045, 61.28033428700771, 62.26333428700771, 62.43003428700771, 63.18003428700771, 63.296700953674375, 63.41336762034104, 63.53003428700771, 63.646700953674376, 63.76336762034104, 63.88003428700771, 63.99670095367438, 64.11336762034104, 64.2300342870077, 64.34670095367436, 64.46336762034102, 64.58003428700768, 64.69670095367434, 64.813367620341, 64.93003428700766, 65.04670095367432, 65.28003428700765]	2021_Jan_19_1423	59.86167446400995	1	1
10	12	FALSE	NN	v	['H', 'J', 'Y', 'B', 'K', 'P', 'U', 'M', 'E', 'N', 'C', 'T', 'V', 'W', 'A', 'R']	[986, 1029, 2670, 760, 1122, 1456, 2059, 1224, 904, 1335, 829, 1888, 2245, 2448, 697, 1587]	10	Absent	NA	NA	ABSENT	0.5365419387817383	67.27132892608643	69.27617192268372	70.09305906295776	70.44317293167114	73.38390302658081	4.107731103897095	[67.28194904327393, 67.39857602119446, 68.38292193412781, 68.54982399940491, 69.300537109375, 69.41751408576965, 69.53408002853394, 69.6509280204773, 69.76763796806335, 69.88433289527893, 70.00118112564087, 70.11817908287048, 70.23496389389038, 70.3516891002655, 70.46845197677612, 70.58517503738403, 70.70204091072083, 70.81894612312317, 70.9356279373169, 71.05270791053772, 71.16931390762329, 71.3839020729065]	[67.28003428700765, 67.39670095367431, 68.37970095367432, 68.54640095367432, 69.29640095367432, 69.41306762034098, 69.52973428700764, 69.6464009536743, 69.76306762034096, 69.87973428700762, 69.99640095367428, 70.11306762034094, 70.2297342870076, 70.34640095367426, 70.46306762034092, 70.57973428700758, 70.69640095367424, 70.8130676203409, 70.92973428700756, 71.04640095367422, 71.16306762034088, 71.39640095367422]	2021_Jan_19_1423	59.86167446400995	1	1
10	13	FALSE	NV	v	['G', 'R', 'P', 'M', 'Z', 'N', 'H', 'B', 'U', 'W', 'C', 'A', 'T', 'X', 'K', 'V']	[944, 1587, 1456, 1224, 2911, 1335, 986, 760, 2059, 2448, 829, 697, 1888, 4000, 1122, 2245]	14	Present	NA	NA	PRESENT	0.4859530925750733	73.39427208900452	75.39247512817383	76.6762011051178	77.0263991355896	79.50027012825012	4.107795000076294	[73.40489196777344, 73.521812915802, 74.48922610282898, 74.65605092048645, 75.42387294769287, 75.54040598869324, 75.65736699104309, 75.77411198616028, 75.8909900188446, 76.00763607025146, 76.10753107070923, 76.29120707511902, 76.34118700027466, 76.45803809165955, 76.57482099533081, 76.69155597686768, 76.80841493606567, 76.9251549243927, 77.0419409275055, 77.1587541103363, 77.27575397491455, 77.50026893615723]	[73.39640095367422, 73.51306762034088, 74.49606762034088, 74.66276762034089, 75.41276762034089, 75.52943428700755, 75.6461009536742, 75.76276762034087, 75.87943428700753, 75.99610095367419, 76.11276762034085, 76.2294342870075, 76.34610095367417, 76.46276762034083, 76.57943428700749, 76.69610095367415, 76.81276762034081, 76.92943428700747, 77.04610095367413, 77.16276762034079, 77.27943428700745, 77.51276762034078]	2021_Jan_19_1423	59.86167446400995	1	1
10	14	FALSE	NN	v	['U', 'K', 'W', 'V', 'T', 'R', 'J', 'H', 'E', 'A', 'Y', 'C', 'G', 'N', 'P', 'M']	[2059, 1122, 2448, 2245, 1888, 1587, 1029, 986, 904, 697, 2670, 829, 944, 1335, 1456, 1224]	10	Absent	NA	NA	ABSENT	0.658595085144043	79.50081300735474	81.50884509086609	82.32563304901123	82.67567706108093	85.61663603782654	4.107790946960449	[79.51143312454224, 79.62809109687805, 80.61257004737854, 80.77919292449951, 81.53040194511414, 81.6471381187439, 81.7635509967804, 81.88055300712585, 81.99714708328247, 82.114177942276, 82.23082494735718, 82.34770607948303, 82.46431303024292, 82.58131408691406, 82.69800591468811, 82.81486701965332, 82.93151092529297, 83.0483078956604, 83.16515707969666, 83.28189611434937, 83.39881610870361, 83.61663699150085]	[79.51276762034078, 79.62943428700744, 80.61243428700745, 80.77913428700745, 81.52913428700745, 81.64580095367411, 81.76246762034077, 81.87913428700743, 81.99580095367409, 82.11246762034075, 82.22913428700741, 82.34580095367407, 82.46246762034073, 82.57913428700739, 82.69580095367405, 82.81246762034071, 82.92913428700737, 83.04580095367403, 83.16246762034069, 83.27913428700735, 83.39580095367401, 83.62913428700735]	2021_Jan_19_1423	59.86167446400995	1	1
10	15	FALSE	NA	v	['C', 'U', 'Z', 'Y', 'T', 'W', 'J', 'X', 'E', 'G', 'P', 'H', 'K', 'V', 'M', 'S']	[829, 2059, 2911, 2670, 1888, 2448, 1029, 4000, 904, 944, 1456, 986, 1122, 2245, 1224, 1731]	8	Present	NA	NA	PRESENT	0.59214186668396	85.62384295463562	87.62515997886658	88.2087631225586	88.55894804000854	91.73300290107728	4.107842922210693	[85.63446307182312, 85.75149512290955, 86.73576807975769, 86.90242290496826, 87.65328407287598, 87.77014803886414, 87.88686203956604, 88.00363111495972, 88.12043499946594, 88.23719501495361, 88.35395693778992, 88.47069811820984, 88.5876100063324, 88.70426511764526, 88.8212571144104, 88.93800902366638, 89.05465698242188, 89.17151308059692, 89.28842902183533, 89.40521001815796, 89.50518798828125, 89.73300290107727]	[85.62913428700735, 85.745800953674, 86.72880095367401, 86.89550095367402, 87.64550095367402, 87.76216762034068, 87.87883428700734, 87.995500953674, 88.11216762034066, 88.22883428700732, 88.34550095367398, 88.46216762034064, 88.5788342870073, 88.69550095367396, 88.81216762034062, 88.92883428700728, 89.04550095367394, 89.1621676203406, 89.27883428700726, 89.39550095367392, 89.51216762034058, 89.74550095367391]	2021_Jan_19_1423	59.86167446400995	1	1
10	16	FALSE	VA	v	['E', 'J', 'G', 'C', 'H', 'B', 'surprise', 'M', 'Y', 'X', 'U', 'K', 'N', 'R', 'A', 'T']	[904, 1029, 944, 829, 986, 760, 'stimAuditory/all_stimAuditory/118.wav', 1224, 2670, 4000, 2059, 1122, 1335, 1587, 697, 1888]	10	Present	NA	stimVisual/all_stimVisual/214.jpg	PRESENT	0.5003402233123779	91.73072600364684	93.74176597595216	94.55863499641418	94.90846300125122	97.84937000274658	4.107604026794434	[91.74134707450867, 91.85759496688843, 92.842050075531, 93.00876593589783, 93.77639508247375, 93.87661004066467, 93.99319195747375, 94.11016392707825, 94.2267370223999, 94.34360098838806, 94.4773690700531, 94.57733011245728, 94.69391393661499, 94.81089496612549, 94.92750811576843, 95.04446792602539, 95.16113495826721, 95.2781310081482, 95.39475512504578, 95.51143908500671, 95.62837600708008, 95.84937000274658]	[91.74550095367391, 91.86216762034057, 92.84516762034058, 93.01186762034058, 93.76186762034058, 93.87853428700724, 93.9952009536739, 94.11186762034056, 94.22853428700722, 94.34520095367388, 94.46186762034054, 94.5785342870072, 94.69520095367386, 94.81186762034052, 94.92853428700718, 95.04520095367384, 95.1618676203405, 95.27853428700716, 95.39520095367382, 95.51186762034048, 95.62853428700714, 95.86186762034048]	2021_Jan_19_1423	59.86167446400995	1	1
10	17	FALSE	NA	v	['K', 'H', 'B', 'V', 'S', 'W', 'G', 'X', 'P', 'U', 'A', 'T', 'C', 'J', 'E', 'M']	[1122, 986, 760, 2245, 1731, 2448, 944, 4000, 1456, 2059, 697, 1888, 829, 1029, 904, 1224]	8	Present	NA	NA	PRESENT	0.6087870597839355	97.85351610183716	99.85784912109376	100.4415831565857	100.79154300689696	103.9657371044159	4.1078879833221444	[97.86413502693176, 97.98081994056702, 98.96525311470032, 99.13199806213379, 99.88275909423828, 99.99959111213684, 100.11642599105835, 100.23323893547058, 100.34992790222168, 100.4666759967804, 100.58361506462097, 100.70030903816223, 100.81697702407837, 100.93406200408936, 101.05110096931458, 101.16747903823853, 101.28444910049438, 101.40106105804443, 101.51802110671997, 101.6348021030426, 101.75160598754883, 101.9657371044159]	[97.86186762034048, 97.97853428700714, 98.96153428700714, 99.12823428700715, 99.87823428700715, 99.9949009536738, 100.11156762034047, 100.22823428700713, 100.34490095367379, 100.46156762034045, 100.5782342870071, 100.69490095367377, 100.81156762034043, 100.92823428700709, 101.04490095367375, 101.1615676203404, 101.27823428700707, 101.39490095367373, 101.51156762034039, 101.62823428700705, 101.7449009536737, 101.97823428700704]	2021_Jan_19_1423	59.86167446400995	1	1
10	18	FALSE	NA	v	['H', 'M', 'J', 'Z', 'S', 'G', 'E', 'V', 'Y', 'P', 'B', 'X', 'W', 'T', 'U', 'K']	[986, 1224, 1029, 2911, 1731, 944, 904, 2245, 2670, 1456, 760, 4000, 2448, 1888, 2059, 1122]	12	Present	NA	NA	PRESENT	0.6865019798278809	103.97700214385986	105.97438597679138	107.02487802505492	107.3745379447937	110.08210301399232	4.107717037200928	[103.9876229763031, 104.10398697853088, 105.0715799331665, 105.23837804794312, 106.00590491294861, 106.12265491485596, 106.2394540309906, 106.33939504623413, 106.45626997947693, 106.57310509681702, 106.68992209434509, 106.80672812461853, 106.92352795600891, 107.04032802581787, 107.15704989433289, 107.27388405799866, 107.39064311981201, 107.50745391845703, 107.62423992156982, 107.74125790596008, 107.85797905921936, 108.082102060318]	[103.97823428700704, 104.0949009536737, 105.0779009536737, 105.24460095367371, 105.99460095367371, 106.11126762034037, 106.22793428700703, 106.34460095367369, 106.46126762034035, 106.57793428700701, 106.69460095367367, 106.81126762034033, 106.92793428700699, 107.04460095367365, 107.16126762034031, 107.27793428700697, 107.39460095367363, 107.51126762034029, 107.62793428700695, 107.74460095367361, 107.86126762034027, 108.0946009536736]	2021_Jan_19_1423	59.86167446400995	1	1
10	19	FALSE	NA	v	['N', 'S', 'A', 'Z', 'Y', 'E', 'M', 'K', 'G', 'P', 'U', 'R', 'V', 'X', 'J', 'B']	[1335, 1731, 697, 2911, 2670, 904, 1224, 1122, 944, 1456, 2059, 1587, 2245, 4000, 1029, 760]	14	Present	NA	NA	PRESENT	0.3788149356842041	110.08305311203004	112.0905749797821	113.37437295913696	113.7243230342865	116.19846892356873	4.107893943786621	[110.09367394447327, 110.21036410331726, 111.19520092010498, 111.36167192459106, 112.11240911483765, 112.2292890548706, 112.34582591056824, 112.4626829624176, 112.57953691482544, 112.69642806053162, 112.81303405761719, 112.92999601364136, 113.0466730594635, 113.16363000869751, 113.28021001815796, 113.39721012115479, 113.51390290260315, 113.63073992729187, 113.74754905700684, 113.8641951084137, 113.98128890991211, 114.19846892356873]	[110.0946009536736, 110.21126762034027, 111.19426762034027, 111.36096762034028, 112.11096762034028, 112.22763428700694, 112.3443009536736, 112.46096762034026, 112.57763428700692, 112.69430095367358, 112.81096762034024, 112.9276342870069, 113.04430095367356, 113.16096762034022, 113.27763428700688, 113.39430095367354, 113.5109676203402, 113.62763428700686, 113.74430095367352, 113.86096762034018, 113.97763428700684, 114.21096762034017]	2021_Jan_19_1423	59.86167446400995	1	1
10	20	FALSE	NA	v	['T', 'U', 'J', 'A', 'B', 'R', 'S', 'E', 'Z', 'N', 'C', 'M', 'W', 'X', 'V', 'P']	[1888, 2059, 1029, 697, 760, 1587, 1731, 904, 2911, 1335, 829, 1224, 2448, 4000, 2245, 1456]	14	Present	NA	NA	PRESENT	1.2645769119262695	116.20619511604308	118.20710492134094	119.49084997177124	119.84105396270752	122.31483602523804	4.107731103897095	[116.21681594848633, 116.33355903625488, 117.31805109977722, 117.4846761226654, 118.2355809211731, 118.3521990776062, 118.46924090385437, 118.58599901199341, 118.70269989967346, 118.81946301460266, 118.93633890151978, 119.05305790901184, 119.16999292373657, 119.28654193878174, 119.40356993675232, 119.52012705802917, 119.63702607154846, 119.7538230419159, 119.87079501152039, 119.98748111724854, 120.08739900588989, 120.31483602523804]	[116.21096762034017, 116.32763428700683, 117.31063428700683, 117.47733428700684, 118.22733428700684, 118.3440009536735, 118.46066762034016, 118.57733428700682, 118.69400095367348, 118.81066762034014, 118.9273342870068, 119.04400095367346, 119.16066762034012, 119.27733428700678, 119.39400095367344, 119.5106676203401, 119.62733428700676, 119.74400095367342, 119.86066762034008, 119.97733428700674, 120.0940009536734, 120.32733428700674]	2021_Jan_19_1423	59.86167446400995	1	1
10	21	FALSE	NV	v	['B', 'R', 'A', 'V', 'S', 'T', 'P', 'K', 'W', 'G', 'U', 'X', 'H', 'J', 'M', 'Z']	[760, 1587, 697, 2245, 1731, 1888, 1456, 1122, 2448, 944, 2059, 4000, 986, 1029, 1224, 2911]	12	Present	NA	NA	PRESENT	0.49286890029907227	122.31231713294984	124.32363796234132	125.37384009361269	125.72398209571838	128.43120193481445	4.1075639724731445	[122.32293605804443, 122.43974089622498, 123.42417097091675, 123.59097003936768, 124.34177303314209, 124.45857095718384, 124.57527804374695, 124.69211292266846, 124.80887508392334, 124.92565393447876, 125.04261493682861, 125.15938711166382, 125.27620911598206, 125.39316391944885, 125.50977993011475, 125.62648701667786, 125.7432849407196, 125.86009502410889, 125.9768431186676, 126.09366512298584, 126.21071910858154, 126.43120312690735]	[122.32733428700674, 122.4440009536734, 123.4270009536734, 123.5937009536734, 124.3437009536734, 124.46036762034007, 124.57703428700673, 124.69370095367339, 124.81036762034005, 124.9270342870067, 125.04370095367337, 125.16036762034003, 125.27703428700669, 125.39370095367335, 125.51036762034, 125.62703428700667, 125.74370095367333, 125.86036762033999, 125.97703428700665, 126.0937009536733, 126.21036762033997, 126.4437009536733]	2021_Jan_19_1423	59.86167446400995	1	1
10	22	FALSE	NA	v	['P', 'J', 'W', 'M', 'E', 'T', 'Z', 'H', 'B', 'U', 'A', 'K', 'X', 'R', 'Y', 'G']	[1456, 1029, 2448, 1224, 904, 1888, 2911, 986, 760, 2059, 697, 1122, 4000, 1587, 2670, 944]	13	Present	NA	NA	ABSENT	0.5691919326782227	128.4354281425476	130.43992114067078	131.60684204101562	131.95687413215637	134.54756903648376	4.107647895812988	[128.44604802131653, 128.56287002563477, 129.54728198051453, 129.7141330242157, 130.46492505073547, 130.5817050933838, 130.69846606254578, 130.81526589393616, 130.93207812309265, 131.04913902282715, 131.16565799713135, 131.2824740409851, 131.39954805374146, 131.5161850452423, 131.63282299041748, 131.74962210655212, 131.86638808250427, 131.9833528995514, 132.1003189086914, 132.2168209552765, 132.33385109901428, 132.54756999015808]	[128.4437009536733, 128.56036762033997, 129.54336762033998, 129.71006762033997, 130.46006762033997, 130.57673428700664, 130.69340095367332, 130.81006762034, 130.92673428700667, 131.04340095367334, 131.16006762034002, 131.2767342870067, 131.39340095367336, 131.51006762034004, 131.6267342870067, 131.7434009536734, 131.86006762034006, 131.97673428700674, 132.0934009536734, 132.21006762034008, 132.32673428700676, 132.56006762034008]	2021_Jan_19_1423	59.86167446400995	1	1
10	23	FALSE	NV	v	['N', 'C', 'Z', 'J', 'H', 'G', 'U', 'P', 'M', 'Y', 'X', 'R', 'W', 'E', 'V', 'A']	[1335, 829, 2911, 1029, 986, 944, 2059, 1456, 1224, 2670, 4000, 1587, 2448, 904, 2245, 697]	11	Present	NA	NA	PRESENT	0.3348569869995117	134.5585880279541	136.5558099746704	137.48995900154114	137.84003114700317	140.6639358997345	4.108125925064087	[134.56920909881592, 134.66931796073914, 135.65371704101562, 135.82065200805664, 136.58810710906982, 136.6881639957428, 136.8216860294342, 136.92169499397278, 137.03871202468872, 137.15530109405518, 137.2720639705658, 137.38891410827637, 137.50575995445251, 137.62245893478394, 137.73939299583435, 137.85607600212097, 137.9728479385376, 138.0896589756012, 138.20645594596863, 138.32324695587158, 138.43994903564453, 138.6639358997345]	[134.56006762034008, 134.67673428700675, 135.65973428700676, 135.82643428700675, 136.57643428700675, 136.69310095367342, 136.8097676203401, 136.92643428700677, 137.04310095367345, 137.15976762034012, 137.2764342870068, 137.39310095367347, 137.50976762034014, 137.62643428700682, 137.7431009536735, 137.85976762034016, 137.97643428700684, 138.0931009536735, 138.2097676203402, 138.32643428700686, 138.44310095367354, 138.67643428700686]	2021_Jan_19_1423	59.86167446400995	1	1
10	24	FALSE	AV	v	['U', 'W', 'K', 'V', 'surprise', 'T', 'M', 'X', 'G', 'C', 'Z', 'J', 'R', 'B', 'N', 'P']	[2059, 2448, 1122, 2245, 'stimAuditory/all_stimAuditory/104.wav', 1888, 1224, 4000, 944, 829, 2911, 1029, 1587, 760, 1335, 1456]	8	Present	stimAuditory/all_stimAuditory/203.wav	stimVisual/all_stimVisual/200.jpg	PRESENT	0.27550292015075684	140.66503405570984	142.67225408554077	143.25700092315674	143.60629796981812	146.7803020477295	4.108047962188721	[140.67565393447876, 140.7924509048462, 141.7771921157837, 141.94370412826538, 142.69443202018738, 142.8115029335022, 142.9280390739441, 143.04483795166016, 143.16165494918823, 143.27843189239502, 143.3951930999756, 143.51201701164246, 143.6291160583496, 143.745600938797, 143.86238193511963, 143.9792001247406, 144.09599995613098, 144.21278500556946, 144.3295910358429, 144.44642996788025, 144.5630819797516, 144.78030395507812]	[140.67643428700686, 140.79310095367353, 141.77610095367353, 141.94280095367353, 142.69280095367353, 142.8094676203402, 142.92613428700687, 143.04280095367355, 143.15946762034022, 143.2761342870069, 143.39280095367357, 143.50946762034025, 143.62613428700692, 143.7428009536736, 143.85946762034027, 143.97613428700694, 144.09280095367362, 144.2094676203403, 144.32613428700697, 144.44280095367364, 144.5594676203403, 144.79280095367363]	2021_Jan_19_1423	59.86167446400995	1	1
10	25	FALSE	NN	v	['N', 'Y', 'K', 'E', 'M', 'H', 'J', 'U', 'S', 'T', 'C', 'Z', 'W', 'P', 'B', 'V']	[1335, 2670, 1122, 904, 1224, 986, 1029, 2059, 1731, 1888, 829, 2911, 2448, 1456, 760, 2245]	10	Absent	NA	NA	ABSENT	0.4563000202178955	146.7881691455841	148.78890895843506	149.60629200935364	149.95606398582458	152.89667010307312	4.1077611446380615	[146.79878902435303, 146.9157750606537, 147.9008719921112, 148.06781101226807, 148.81754899024963, 148.93444108963013, 149.0512890815735, 149.1680040359497, 149.28498792648315, 149.40174412727356, 149.51873302459717, 149.63534903526306, 149.75228595733643, 149.86900401115417, 149.98564410209656, 150.10255408287048, 150.2191779613495, 150.33625411987305, 150.4531750679016, 150.56958889961243, 150.66975712776184, 150.89667010307312]	[146.79280095367363, 146.9094676203403, 147.8924676203403, 148.0591676203403, 148.8091676203403, 148.92583428700698, 149.04250095367365, 149.15916762034033, 149.275834287007, 149.39250095367368, 149.50916762034035, 149.62583428700702, 149.7425009536737, 149.85916762034037, 149.97583428700705, 150.09250095367372, 150.2091676203404, 150.32583428700707, 150.44250095367374, 150.55916762034042, 150.6758342870071, 150.9091676203404]	2021_Jan_19_1423	59.86167446400995	1	1
10	26	FALSE	NV	v	['T', 'E', 'M', 'C', 'S', 'W', 'A', 'V', 'P', 'U', 'X', 'K', 'B', 'J', 'H', 'Z']	[1888, 904, 1224, 829, 1731, 2448, 697, 2245, 1456, 2059, 4000, 1122, 760, 1029, 986, 2911]	11	Present	NA	NA	PRESENT	0.8450169563293457	152.89479994773865	154.90516996383667	155.83884406089783	156.18884015083313	159.01303696632385	4.107867002487183	[152.90542006492615, 153.0220170021057, 154.0066089630127, 154.17339301109314, 154.92408895492554, 155.04099798202515, 155.15779399871826, 155.27470111846924, 155.39133310317993, 155.50824809074402, 155.62493109703064, 155.7416970729828, 155.85862493515015, 155.97543501853943, 156.09224200248718, 156.20895791053772, 156.3258991241455, 156.44245409965515, 156.55945897102356, 156.6759729385376, 156.79296398162842, 157.01303601264954]	[152.9091676203404, 153.0258342870071, 154.0088342870071, 154.17553428700708, 154.92553428700708, 155.04220095367376, 155.15886762034043, 155.2755342870071, 155.39220095367378, 155.50886762034045, 155.62553428700713, 155.7422009536738, 155.85886762034048, 155.97553428700715, 156.09220095367382, 156.2088676203405, 156.32553428700717, 156.44220095367385, 156.55886762034052, 156.6755342870072, 156.79220095367387, 157.0255342870072]	2021_Jan_19_1423	59.86167446400995	1	1
10	27	FALSE	NA	v	['E', 'T', 'V', 'S', 'B', 'W', 'G', 'J', 'P', 'X', 'M', 'H', 'C', 'R', 'U', 'A']	[904, 1888, 2245, 1731, 760, 2448, 944, 1029, 1456, 4000, 1224, 986, 829, 1587, 2059, 697]	10	Present	NA	NA	ABSENT	0.8015592098236084	159.01783394813538	161.02168202400208	161.8387291431427	162.1885941028595	165.12940311431885	4.1077210903167725	[159.0284550189972, 159.14531803131104, 160.12988710403442, 160.29664707183838, 161.04766607284546, 161.16428899765015, 161.281583070755, 161.39793801307678, 161.51458597183228, 161.63123512268066, 161.74821400642395, 161.86471009254456, 161.98173689842224, 162.09843611717224, 162.21541500091553, 162.33205199241638, 162.44894003868103, 162.5656349658966, 162.68244791030884, 162.79912209510803, 162.91594910621643, 163.12940311431885]	[159.0255342870072, 159.14220095367386, 160.12520095367387, 160.29190095367386, 161.04190095367386, 161.15856762034053, 161.2752342870072, 161.39190095367388, 161.50856762034056, 161.62523428700723, 161.7419009536739, 161.85856762034058, 161.97523428700725, 162.09190095367393, 162.2085676203406, 162.32523428700728, 162.44190095367395, 162.55856762034063, 162.6752342870073, 162.79190095367397, 162.90856762034065, 163.14190095367397]	2021_Jan_19_1423	59.86167446400995	1	1
10	28	FALSE	NA	v	['E', 'G', 'Y', 'B', 'Z', 'R', 'V', 'K', 'X', 'T', 'H', 'P', 'S', 'A', 'J', 'C']	[904, 944, 2670, 760, 2911, 1587, 2245, 1122, 4000, 1888, 986, 1456, 1731, 697, 1029, 829]	9	Present	NA	NA	PRESENT	0.42284607887268066	165.12434005737305	167.1379690170288	167.8380811214447	168.18822693824768	171.24576902389526	4.107800006866455	[165.13495993614197, 165.25173592567444, 166.236398935318, 166.40298199653625, 167.1706099510193, 167.27045011520386, 167.3872790336609, 167.50405502319336, 167.6208689212799, 167.73767590522766, 167.85451006889343, 167.97130799293518, 168.08804893493652, 168.20507311820984, 168.32170701026917, 168.43843007087708, 168.5553469657898, 168.67219591140747, 168.78890109062195, 168.90569496154785, 169.02261304855347, 169.24576902389526]	[165.14190095367397, 165.25856762034064, 166.24156762034065, 166.40826762034064, 167.15826762034064, 167.2749342870073, 167.391600953674, 167.50826762034066, 167.62493428700733, 167.741600953674, 167.85826762034068, 167.97493428700736, 168.09160095367403, 168.2082676203407, 168.32493428700738, 168.44160095367405, 168.55826762034073, 168.6749342870074, 168.79160095367408, 168.90826762034075, 169.02493428700743, 169.25826762034075]	2021_Jan_19_1423	59.86167446400995	1	1
10	29	FALSE	NN	v	['K', 'P', 'V', 'Y', 'Z', 'R', 'N', 'W', 'H', 'G', 'S', 'C', 'J', 'A', 'E', 'B']	[1122, 1456, 2245, 2670, 2911, 1587, 1335, 2448, 986, 944, 1731, 829, 1029, 697, 904, 760]	10	Absent	NA	NA	ABSENT	0.34743618965148926	171.24781608581543	173.25453901290894	174.07140493392944	174.42123007774353	177.36213612556458	4.10759711265564	[171.25843596458435, 171.3750081062317, 172.3593499660492, 172.52611112594604, 173.27680110931396, 173.39382696151733, 173.51065397262573, 173.6272361278534, 173.74420404434204, 173.86086797714233, 173.9776120185852, 174.09455704689026, 174.21129512786865, 174.3279709815979, 174.4449610710144, 174.5619900226593, 174.6784770488739, 174.79516291618347, 174.91200494766235, 175.02882409095764, 175.14549112319946, 175.3621370792389]	[171.25826762034075, 171.37493428700742, 172.35793428700742, 172.52463428700742, 173.27463428700742, 173.3913009536741, 173.50796762034076, 173.62463428700744, 173.7413009536741, 173.8579676203408, 173.97463428700746, 174.09130095367414, 174.2079676203408, 174.32463428700748, 174.44130095367416, 174.55796762034083, 174.6746342870075, 174.79130095367418, 174.90796762034086, 175.02463428700753, 175.1413009536742, 175.37463428700752]	2021_Jan_19_1423	59.86167446400995	1	1
10	30	FALSE	NV	v	['B', 'T', 'S', 'A', 'K', 'G', 'Z', 'W', 'N', 'C', 'X', 'Y', 'U', 'E', 'R', 'J']	[760, 1888, 1731, 697, 1122, 944, 2911, 2448, 1335, 829, 4000, 2670, 2059, 904, 1587, 1029]	11	Present	NA	NA	PRESENT	0.3527371883392334	177.37070512771606	179.37063312530518	180.30475997924805	180.65425610542297	183.4785029888153	4.107869863510132	[177.38132500648499, 177.4982430934906, 178.48269891738892, 178.64945006370544, 179.40014004707336, 179.5167829990387, 179.6338460445404, 179.75044512748718, 179.86716890335083, 179.98412895202637, 180.10101294517517, 180.21766710281372, 180.33438396453857, 180.45118498802185, 180.56801891326904, 180.68478107452393, 180.80174207687378, 180.91841197013855, 181.035502910614, 181.15196895599365, 181.25204706192017, 181.47850394248962]	[177.37463428700752, 177.4913009536742, 178.4743009536742, 178.6410009536742, 179.3910009536742, 179.50766762034087, 179.62433428700754, 179.74100095367422, 179.8576676203409, 179.97433428700757, 180.09100095367424, 180.2076676203409, 180.3243342870076, 180.44100095367426, 180.55766762034094, 180.6743342870076, 180.79100095367428, 180.90766762034096, 181.02433428700763, 181.1410009536743, 181.25766762034098, 181.4910009536743]	2021_Jan_19_1423	59.86167446400995	1	1
10	31	FALSE	NA	v	['Y', 'G', 'W', 'J', 'A', 'E', 'R', 'S', 'P', 'M', 'T', 'X', 'N', 'U', 'H', 'C']	[2670, 944, 2448, 1029, 697, 904, 1587, 1731, 1456, 1224, 1888, 4000, 1335, 2059, 986, 829]	12	Present	NA	NA	PRESENT	0.9011898040771484	183.4769411087036	185.48705196380615	186.53781700134277	186.8874199390411	189.59487009048465	4.107818126678467	[183.48756098747253, 183.60468292236328, 184.5890350341797, 184.75573992729187, 185.50642609596252, 185.6234610080719, 185.7401258945465, 185.8568470478058, 185.97368907928467, 186.09035396575928, 186.207279920578, 186.3240749835968, 186.4408929347992, 186.55745601654053, 186.67449712753296, 186.79111289978027, 186.9081289768219, 187.02502298355103, 187.14161896705627, 187.2582700252533, 187.37518906593323, 187.59487104415894]	[183.4910009536743, 183.60766762034098, 184.59066762034098, 184.75736762034097, 185.50736762034097, 185.62403428700765, 185.74070095367432, 185.857367620341, 185.97403428700767, 186.09070095367434, 186.20736762034102, 186.3240342870077, 186.44070095367437, 186.55736762034104, 186.67403428700771, 186.7907009536744, 186.90736762034106, 187.02403428700774, 187.1407009536744, 187.25736762034109, 187.37403428700776, 187.60736762034108]	2021_Jan_19_1423	59.86167446400995	1	1
10	32	FALSE	NA	v	['Y', 'S', 'J', 'H', 'N', 'E', 'U', 'W', 'C', 'V', 'T', 'G', 'K', 'X', 'B', 'A']	[2670, 1731, 1029, 986, 1335, 904, 2059, 2448, 829, 2245, 1888, 944, 1122, 4000, 760, 697]	14	Present	NA	NA	ABSENT	0.3778898715972901	189.6002550125122	191.603413105011	192.8871030807495	193.23697113990784	195.71123600006104	4.107822895050049	[189.61087489128113, 189.7278220653534, 190.71226501464844, 190.8790729045868, 191.6298429965973, 191.7463939189911, 191.86303210258484, 191.9800980091095, 192.09693598747253, 192.2135090827942, 192.33035707473755, 192.44712591171265, 192.56407189369202, 192.68091297149658, 192.7977180480957, 192.9143989086151, 193.03115892410278, 193.14788603782654, 193.26481103897095, 193.38160610198975, 193.4981551170349, 193.71123695373535]	[189.60736762034108, 189.72403428700775, 190.70703428700776, 190.87373428700775, 191.62373428700775, 191.74040095367442, 191.8570676203411, 191.97373428700777, 192.09040095367445, 192.20706762034112, 192.3237342870078, 192.44040095367447, 192.55706762034114, 192.67373428700782, 192.7904009536745, 192.90706762034117, 193.02373428700784, 193.14040095367451, 193.2570676203412, 193.37373428700786, 193.49040095367454, 193.72373428700786]	2021_Jan_19_1423	59.86167446400995	1	1
10	33	FALSE	NA	v	['H', 'B', 'P', 'G', 'C', 'K', 'E', 'W', 'U', 'S', 'A', 'X', 'Y', 'R', 'V', 'T']	[986, 760, 1456, 944, 829, 1122, 904, 2448, 2059, 1731, 697, 4000, 2670, 1587, 2245, 1888]	12	Present	NA	NA	ABSENT	1.0710039138793943	195.7065391540527	197.7195019721985	198.77000093460083	199.1202981472015	201.82760310173035	4.10810112953186	[195.71715903282166, 195.83400297164917, 196.81861805915833, 196.98528409004211, 197.7526969909668, 197.852844953537, 197.9695599079132, 198.08658909797668, 198.2031168937683, 198.31992411613464, 198.43689489364624, 198.5537281036377, 198.67047905921936, 198.787113904953, 198.90407991409302, 199.02071809768677, 199.13772702217102, 199.254252910614, 199.37125706672668, 199.48812294006348, 199.60480999946594, 199.82760190963745]	[195.72373428700786, 195.84040095367453, 196.82340095367454, 196.99010095367453, 197.74010095367453, 197.8567676203412, 197.97343428700788, 198.09010095367455, 198.20676762034122, 198.3234342870079, 198.44010095367457, 198.55676762034125, 198.67343428700792, 198.7901009536746, 198.90676762034127, 199.02343428700794, 199.14010095367462, 199.2567676203413, 199.37343428700797, 199.49010095367464, 199.60676762034132, 199.84010095367464]	2021_Jan_19_1423	59.86167446400995	1	1
10	34	FALSE	NN	v	['B', 'S', 'Y', 'A', 'M', 'J', 'Z', 'V', 'E', 'T', 'G', 'P', 'K', 'N', 'C', 'R']	[760, 1731, 2670, 697, 1224, 1029, 2911, 2245, 904, 1888, 944, 1456, 1122, 1335, 829, 1587]	10	Absent	NA	NA	ABSENT	0.37973809242248535	201.830069065094	203.8363721370697	204.65342807769775	205.0032470226288	207.94396901130676	4.1075968742370605	[201.84068989753723, 201.95717597007751, 202.9417290687561, 203.108549118042, 203.85922193527222, 203.9759509563446, 204.09292197227478, 204.20972895622253, 204.32649207115173, 204.44331192970276, 204.56019711494446, 204.6767189502716, 204.79375100135803, 204.9104459285736, 205.02733707427979, 205.14409494400024, 205.26068711280823, 205.37746500968933, 205.49413394927979, 205.61115789413452, 205.7279450893402, 205.94396901130676]	[201.84010095367464, 201.9567676203413, 202.9397676203413, 203.1064676203413, 203.8564676203413, 203.97313428700798, 204.08980095367465, 204.20646762034133, 204.323134287008, 204.43980095367468, 204.55646762034135, 204.67313428700803, 204.7898009536747, 204.90646762034137, 205.02313428700805, 205.13980095367472, 205.2564676203414, 205.37313428700807, 205.48980095367475, 205.60646762034142, 205.7231342870081, 205.9564676203414]	2021_Jan_19_1423	59.86167446400995	1	1
10	35	FALSE	NN	v	['N', 'R', 'M', 'B', 'S', 'V', 'K', 'J', 'P', 'G', 'W', 'Z', 'C', 'E', 'Y', 'T']	[1335, 1587, 1224, 760, 1731, 2245, 1122, 1029, 1456, 944, 2448, 2911, 829, 904, 2670, 1888]	9	Absent	NA	NA	ABSENT	0.3210868835449219	207.953045129776	209.95270609855652	210.65280199050903	211.0033519268036	214.0603370666504	4.107630968093872	[207.96366596221924, 208.0803201198578, 209.06474995613098, 209.23167610168457, 209.98237204551697, 210.0992729663849, 210.21612906455994, 210.33280897140503, 210.44939589500427, 210.56641912460327, 210.68302702903748, 210.79991793632507, 210.91683793067932, 211.0338490009308, 211.1504180431366, 211.26729011535645, 211.3839819431305, 211.5006880760193, 211.61750102043152, 211.734393119812, 211.83436107635498, 212.06033611297607]	[207.9564676203414, 208.0731342870081, 209.0561342870081, 209.22283428700808, 209.97283428700808, 210.08950095367476, 210.20616762034143, 210.3228342870081, 210.43950095367478, 210.55616762034145, 210.67283428700813, 210.7895009536748, 210.90616762034148, 211.02283428700815, 211.13950095367483, 211.2561676203415, 211.37283428700817, 211.48950095367485, 211.60616762034152, 211.7228342870082, 211.83950095367487, 212.0728342870082]	2021_Jan_19_1423	59.86167446400995	1	1
10	36	FALSE	NN	v	['J', 'T', 'W', 'G', 'Z', 'E', 'V', 'U', 'C', 'A', 'N', 'K', 'B', 'P', 'Y', 'S']	[1029, 1888, 2448, 944, 2911, 904, 2245, 2059, 829, 697, 1335, 1122, 760, 1456, 2670, 1731]	11	Absent	NA	NA	ABSENT	0.6374211311340332	214.0593159198761	216.06896996498108	217.0024859905243	217.3528151512146	220.1767029762268	4.1077330112457275	[214.06993699073792, 214.1869580745697, 215.1711540222168, 215.33814001083374, 216.0886950492859, 216.20572900772095, 216.3224380016327, 216.43915796279907, 216.55609703063965, 216.6727910041809, 216.78954696655273, 216.90650391578674, 217.02319598197937, 217.14011597633362, 217.25676202774048, 217.373615026474, 217.49035811424255, 217.60702800750732, 217.72403812408447, 217.8406720161438, 217.95759510993958, 218.17670392990112]	[214.0728342870082, 214.18950095367487, 215.17250095367487, 215.33920095367486, 216.08920095367486, 216.20586762034154, 216.3225342870082, 216.43920095367488, 216.55586762034156, 216.67253428700823, 216.7892009536749, 216.90586762034158, 217.02253428700826, 217.13920095367493, 217.2558676203416, 217.37253428700828, 217.48920095367495, 217.60586762034163, 217.7225342870083, 217.83920095367498, 217.95586762034165, 218.18920095367497]	2021_Jan_19_1423	59.86167446400995	1	1
10	37	FALSE	NA	v	['K', 'J', 'Z', 'C', 'G', 'P', 'U', 'E', 'V', 'A', 'S', 'Y', 'X', 'B', 'T', 'R']	[1122, 1029, 2911, 829, 944, 1456, 2059, 904, 2245, 697, 1731, 2670, 4000, 760, 1888, 1587]	13	Present	NA	NA	ABSENT	0.6501319408416748	220.1826379299164	222.18531608581543	223.35232400894165	223.7025461196899	226.29307007789612	4.1077539920806885	[220.19325804710388, 220.30998396873474, 221.29449796676636, 221.46139693260193, 222.2119870185852, 222.3286759853363, 222.4456009864807, 222.56235790252686, 222.6792449951172, 222.79586911201477, 222.91276693344116, 223.0294370651245, 223.1462631225586, 223.26321601867676, 223.38004398345947, 223.49661302566528, 223.61336207389832, 223.7302849292755, 223.84690809249878, 223.96387600898743, 224.08040809631348, 224.2930691242218]	[220.18920095367497, 220.30586762034164, 221.28886762034165, 221.45556762034164, 222.20556762034164, 222.3222342870083, 222.438900953675, 222.55556762034166, 222.67223428700834, 222.788900953675, 222.90556762034169, 223.02223428700836, 223.13890095367503, 223.2555676203417, 223.37223428700838, 223.48890095367506, 223.60556762034173, 223.7222342870084, 223.83890095367508, 223.95556762034175, 224.07223428700843, 224.30556762034175]	2021_Jan_19_1423	59.86167446400995	1	1
10	38	FALSE	NA	v	['Y', 'A', 'T', 'S', 'B', 'E', 'Z', 'G', 'X', 'P', 'V', 'U', 'W', 'N', 'K', 'H']	[2670, 697, 1888, 1731, 760, 904, 2911, 944, 4000, 1456, 2245, 2059, 2448, 1335, 1122, 986]	9	Present	NA	NA	ABSENT	0.5916378498077393	226.2888669967651	228.3013560771942	229.00257802009585	229.35196495056152	232.40943694114685	4.108080863952637	[226.29948711395264, 226.41627192497253, 227.4009621143341, 227.56759405136108, 228.33512902259827, 228.4350779056549, 228.5519380569458, 228.66865611076355, 228.78558206558228, 228.90236902236938, 229.0191149711609, 229.1359260082245, 229.2528100013733, 229.36946511268616, 229.48636603355408, 229.60306096076965, 229.71991896629333, 229.8365020751953, 229.95349311828613, 230.07027912139893, 230.1870789527893, 230.40943598747253]	[226.30556762034175, 226.42223428700842, 227.40523428700843, 227.57193428700842, 228.32193428700842, 228.4386009536751, 228.55526762034177, 228.67193428700844, 228.78860095367511, 228.9052676203418, 229.02193428700846, 229.13860095367514, 229.2552676203418, 229.3719342870085, 229.48860095367516, 229.60526762034183, 229.7219342870085, 229.83860095367518, 229.95526762034186, 230.07193428700853, 230.1886009536752, 230.42193428700853]	2021_Jan_19_1423	59.86167446400995	1	1
10	39	FALSE	NN	v	['Z', 'Y', 'W', 'M', 'E', 'V', 'G', 'B', 'P', 'J', 'A', 'N', 'U', 'K', 'H', 'S']	[2911, 2670, 2448, 1224, 904, 2245, 944, 760, 1456, 1029, 697, 1335, 2059, 1122, 986, 1731]	8	Absent	NA	NA	ABSENT	0.5640869140625	232.4125120639801	234.41803908348083	235.00161600112915	235.3520359992981	238.52580404281616	4.107764959335327	[232.42313289642334, 232.5396339893341, 233.52397990226746, 233.69092392921448, 234.44158697128296, 234.5582139492035, 234.67524409294128, 234.79194593429565, 234.9087529182434, 235.02551293373108, 235.14237093925476, 235.25896692276, 235.37595295906067, 235.49250602722168, 235.6095108985901, 235.72626209259033, 235.84310698509216, 235.95968294143677, 236.07665610313416, 236.19345498085022, 236.3101351261139, 236.52580308914185]	[232.42193428700853, 232.5386009536752, 233.5216009536752, 233.6883009536752, 234.4383009536752, 234.55496762034187, 234.67163428700854, 234.78830095367522, 234.9049676203419, 235.02163428700857, 235.13830095367524, 235.25496762034192, 235.3716342870086, 235.48830095367526, 235.60496762034194, 235.7216342870086, 235.8383009536753, 235.95496762034196, 236.07163428700864, 236.1883009536753, 236.30496762034198, 236.5383009536753]	2021_Jan_19_1423	59.86167446400995	1	1
10	40	FALSE	NV	v	['Z', 'M', 'R', 'S', 'B', 'K', 'Y', 'J', 'V', 'W', 'G', 'N', 'X', 'U', 'E', 'P']	[2911, 1224, 1587, 1731, 760, 1122, 2670, 1029, 2245, 2448, 944, 1335, 4000, 2059, 904, 1456]	13	Present	NA	NA	PRESENT	0.4091300964355469	238.53552913665771	240.5344240665436	241.70165705680847	242.0514600276947	244.64216995239255	4.107745885848999	[238.54614901542664, 238.6626980304718, 239.63023710250854, 239.79712891578674, 240.56477808952332, 240.68160605430603, 240.79815912246704, 240.91509699821472, 241.0318329334259, 241.14857006072998, 241.26546096801758, 241.38210201263428, 241.4988670349121, 241.61588597297668, 241.73269605636597, 241.84937000274658, 241.94921898841858, 242.08328795433044, 242.1997730731964, 242.29974699020386, 242.41665410995483, 242.64216995239258]	[238.5383009536753, 238.65496762034198, 239.63796762034198, 239.80466762034197, 240.55466762034197, 240.67133428700865, 240.78800095367532, 240.904667620342, 241.02133428700867, 241.13800095367534, 241.25466762034202, 241.3713342870087, 241.48800095367537, 241.60466762034204, 241.72133428700872, 241.8380009536754, 241.95466762034206, 242.07133428700874, 242.1880009536754, 242.3046676203421, 242.42133428700876, 242.65466762034208]	2021_Jan_19_1423	59.86167446400995	1	1
10	41	FALSE	NV	v	['W', 'V', 'H', 'A', 'Y', 'K', 'G', 'R', 'C', 'M', 'J', 'U', 'X', 'N', 'E', 'B']	[2448, 2245, 986, 697, 2670, 1122, 944, 1587, 829, 1224, 1029, 2059, 4000, 1335, 904, 760]	13	Present	NA	NA	PRESENT	0.4377889633178711	244.64161610603333	246.65088891983032	247.81751894950867	248.16771697998047	250.7585370540619	4.107648134231567	[244.65223693847656, 244.76918697357178, 245.75366401672363, 245.92042207717896, 246.67110991477966, 246.78781294822693, 246.90475702285767, 247.02140498161316, 247.1383810043335, 247.25519704818726, 247.37189602851868, 247.48876810073853, 247.60562896728516, 247.72228908538818, 247.83922410011292, 247.95570611953735, 248.0724539756775, 248.18927812576294, 248.30632090568542, 248.42305898666382, 248.5396909713745, 248.7585370540619]	[244.65466762034208, 244.77133428700876, 245.75433428700876, 245.92103428700875, 246.67103428700875, 246.78770095367543, 246.9043676203421, 247.02103428700877, 247.13770095367545, 247.25436762034212, 247.3710342870088, 247.48770095367547, 247.60436762034215, 247.72103428700882, 247.8377009536755, 247.95436762034217, 248.07103428700884, 248.18770095367552, 248.3043676203422, 248.42103428700887, 248.53770095367554, 248.77103428700886]	2021_Jan_19_1423	59.86167446400995	1	1
10	42	FALSE	AA	v	['E', 'N', 'Y', 'Z', 'surprise', 'B', 'T', 'X', 'A', 'R', 'V', 'U', 'P', 'J', 'C', 'G']	[904, 1335, 2670, 2911, 'stimAuditory/all_stimAuditory/205.wav', 760, 1888, 4000, 697, 1587, 2245, 2059, 1456, 1029, 829, 944]	8	Present	stimAuditory/all_stimAuditory/118.wav	stimVisual/all_stimVisual/117.jpg	PRESENT	0.3872649669647217	250.7649109363556	252.76695895195007	253.3506860733032	253.7007191181183	256.874902009964	4.107943058013916	[250.7755320072174, 250.89213800430298, 251.87675189971924, 252.04359912872314, 252.7941029071808, 252.91094589233398, 253.0279040336609, 253.14475989341736, 253.26134490966797, 253.37825894355774, 253.49488806724548, 253.61167311668396, 253.7285759449005, 253.84561800956726, 253.96240091323853, 254.07911109924316, 254.19568705558777, 254.31258392333984, 254.42919898033142, 254.54626202583313, 254.6461100578308, 254.874902009964]	[250.77103428700886, 250.88770095367553, 251.87070095367554, 252.03740095367553, 252.78740095367553, 252.9040676203422, 253.02073428700888, 253.13740095367555, 253.25406762034223, 253.3707342870089, 253.48740095367558, 253.60406762034225, 253.72073428700892, 253.8374009536756, 253.95406762034227, 254.07073428700895, 254.18740095367562, 254.3040676203423, 254.42073428700897, 254.53740095367564, 254.65406762034232, 254.88740095367564]	2021_Jan_19_1423	59.86167446400995	1	1
10	43	FALSE	NN	v	['Y', 'K', 'B', 'E', 'Z', 'N', 'A', 'V', 'T', 'M', 'U', 'C', 'J', 'P', 'H', 'S']	[2670, 1122, 760, 904, 2911, 1335, 697, 2245, 1888, 1224, 2059, 829, 1029, 1456, 986, 1731]	8	Absent	NA	NA	ABSENT	0.791658878326416	256.8712079524994	258.8834550380707	259.46720600128174	259.8174021244049	262.9912700653076	4.1078150272369385	[256.8818290233612, 256.9987950325012, 257.98304295539856, 258.1498351097107, 258.9172999858856, 259.0175709724426, 259.13433289527893, 259.2511579990387, 259.36772990226746, 259.4845681190491, 259.60148096084595, 259.7184069156647, 259.8351171016693, 259.9518311023712, 260.0687370300293, 260.185271024704, 260.3021879196167, 260.4187910556793, 260.535845041275, 260.65252590179443, 260.7693591117859, 260.9912700653076]	[256.88740095367564, 257.0040676203423, 257.9870676203423, 258.1537676203423, 258.9037676203423, 259.020434287009, 259.13710095367566, 259.25376762034233, 259.370434287009, 259.4871009536757, 259.60376762034235, 259.720434287009, 259.8371009536757, 259.9537676203424, 260.07043428700905, 260.1871009536757, 260.3037676203424, 260.4204342870091, 260.53710095367575, 260.6537676203424, 260.7704342870091, 261.00376762034244]	2021_Jan_19_1423	59.86167446400995	1	1
10	44	FALSE	NN	v	['C', 'T', 'W', 'P', 'E', 'Y', 'J', 'B', 'A', 'S', 'M', 'H', 'G', 'U', 'V', 'R']	[829, 1888, 2448, 1456, 904, 2670, 1029, 760, 697, 1731, 1224, 986, 944, 2059, 2245, 1587]	12	Absent	NA	NA	ABSENT	0.4841489791870117	262.9946811199188	264.9999101161957	266.05038499832153	266.4001579284668	269.10763692855835	4.107726812362671	[263.0053029060364, 263.1219120025635, 264.10622811317444, 264.2730031013489, 265.02390003204346, 265.14062309265137, 265.25734996795654, 265.3741500377655, 265.49088501930237, 265.60763907432556, 265.7247381210327, 265.8414430618286, 265.9582760334015, 266.07488894462585, 266.191899061203, 266.30859112739563, 266.42534589767456, 266.5422320365906, 266.65882396698, 266.7756440639496, 266.892452955246, 267.10763692855835]	[263.00376762034244, 263.1204342870091, 264.1034342870091, 264.2701342870091, 265.0201342870091, 265.1368009536758, 265.25346762034246, 265.37013428700914, 265.4868009536758, 265.6034676203425, 265.72013428700916, 265.83680095367583, 265.9534676203425, 266.0701342870092, 266.18680095367586, 266.30346762034253, 266.4201342870092, 266.5368009536759, 266.65346762034255, 266.7701342870092, 266.8868009536759, 267.12013428700925]	2021_Jan_19_1423	59.86167446400995	1	1
10	45	FALSE	NV	v	['H', 'E', 'B', 'J', 'W', 'N', 'Y', 'R', 'X', 'C', 'S', 'G', 'V', 'A', 'K', 'U']	[986, 904, 760, 1029, 2448, 1335, 2670, 1587, 4000, 829, 1731, 944, 2245, 697, 1122, 2059]	9	Present	NA	NA	ABSENT	0.6494700908660889	269.11766815185547	271.11600399017334	271.81654596328735	272.1664390563965	275.22400403022766	4.108000040054321	[269.1282880306244, 269.2450349330902, 270.2125999927521, 270.37930607795715, 271.1469929218292, 271.2636740207672, 271.38061904907227, 271.49757289886475, 271.61424589157104, 271.73101806640625, 271.8476459980011, 271.9646611213684, 272.0816140174866, 272.19804096221924, 272.2981081008911, 272.41478300094604, 272.5483920574188, 272.6484670639038, 272.7652750015259, 272.8820149898529, 272.9989800453186, 273.22400307655334]	[269.12013428700925, 269.2368009536759, 270.21980095367593, 270.3865009536759, 271.1365009536759, 271.2531676203426, 271.36983428700927, 271.48650095367594, 271.6031676203426, 271.7198342870093, 271.83650095367597, 271.95316762034264, 272.0698342870093, 272.186500953676, 272.30316762034266, 272.41983428700934, 272.536500953676, 272.6531676203427, 272.76983428700936, 272.88650095367603, 273.0031676203427, 273.23650095367606]	2021_Jan_19_1423	59.86167446400995	1	1
10	46	FALSE	NV	v	['V', 'T', 'G', 'B', 'P', 'Y', 'M', 'X', 'N', 'W', 'S', 'C', 'K', 'Z', 'R', 'A']	[2245, 1888, 944, 760, 1456, 2670, 1224, 4000, 1335, 2448, 1731, 829, 1122, 2911, 1587, 697]	8	Present	NA	NA	ABSENT	1.1739790439605713	275.22389101982117	277.2326560020447	277.81647515296936	278.16625905036926	281.34036898612976	4.107712984085083	[275.234512090683, 275.35143399238586, 276.33590292930603, 276.5026090145111, 277.25342202186584, 277.37028408050537, 277.48714995384216, 277.6036820411682, 277.72055292129517, 277.83733010292053, 277.9543740749359, 278.07104897499084, 278.1879069805145, 278.3046250343323, 278.42139410972595, 278.5381360054016, 278.65498399734497, 278.7716898918152, 278.8885500431061, 279.0053539276123, 279.12192010879517, 279.34036898612976]	[275.23650095367606, 275.35316762034273, 276.33616762034274, 276.5028676203427, 277.2528676203427, 277.3695342870094, 277.4862009536761, 277.60286762034275, 277.7195342870094, 277.8362009536761, 277.9528676203428, 278.06953428700945, 278.1862009536761, 278.3028676203428, 278.41953428700947, 278.53620095367614, 278.6528676203428, 278.7695342870095, 278.88620095367617, 279.00286762034284, 279.1195342870095, 279.35286762034286]	2021_Jan_19_1423	59.86167446400995	1	1
10	47	FALSE	NV	v	['G', 'J', 'B', 'K', 'A', 'Z', 'Y', 'X', 'N', 'M', 'V', 'W', 'T', 'P', 'S', 'C']	[944, 1029, 760, 1122, 697, 2911, 2670, 4000, 1335, 1224, 2245, 2448, 1888, 1456, 1731, 829]	8	Present	NA	NA	PRESENT	0.42744898796081543	281.3472671508789	283.3489320278168	283.9326391220093	284.2823920249939	287.4567370414734	4.107805013656616	[281.3578870296478, 281.47491812705994, 282.45920300483704, 282.62575101852417, 283.3765199184418, 283.49326610565186, 283.6100869178772, 283.72705698013306, 283.8438150882721, 283.96056604385376, 284.07733702659607, 284.19427394866943, 284.311017036438, 284.42782711982727, 284.54445600509644, 284.66132497787476, 284.7780420780182, 284.8948550224304, 285.01162791252136, 285.12851095199585, 285.22839093208313, 285.4567360877991]	[281.35286762034286, 281.46953428700954, 282.45253428700954, 282.61923428700953, 283.36923428700953, 283.4859009536762, 283.6025676203429, 283.71923428700956, 283.83590095367623, 283.9525676203429, 284.0692342870096, 284.18590095367625, 284.3025676203429, 284.4192342870096, 284.5359009536763, 284.65256762034295, 284.7692342870096, 284.8859009536763, 285.002567620343, 285.11923428700965, 285.2359009536763, 285.46923428700967]	2021_Jan_19_1423	59.86167446400995	1	1
10	48	FALSE	NV	v	['A', 'Z', 'C', 'B', 'N', 'U', 'H', 'M', 'K', 'S', 'G', 'X', 'Y', 'T', 'R', 'E']	[697, 2911, 829, 760, 1335, 2059, 986, 1224, 1122, 1731, 944, 4000, 2670, 1888, 1587, 904]	12	Present	NA	NA	ABSENT	0.944133996963501	287.45351815223694	289.4655170440674	290.51588797569275	290.86549711227417	293.5731029510498	4.107585906982422	[287.46413803100586, 287.58108592033386, 288.56527495384216, 288.7321789264679, 289.4999260902405, 289.5996570587158, 289.7166419029236, 289.83326601982117, 289.95026898384094, 290.0668489933014, 290.1839220523834, 290.30048990249634, 290.4174470901489, 290.53403091430664, 290.650906085968, 290.7676010131836, 290.88435912132263, 291.0012900829315, 291.11817502975464, 291.23489594459534, 291.3517470359802, 291.5731029510498]	[287.46923428700967, 287.58590095367634, 288.56890095367635, 288.73560095367634, 289.48560095367634, 289.602267620343, 289.7189342870097, 289.83560095367636, 289.95226762034304, 290.0689342870097, 290.1856009536764, 290.30226762034306, 290.41893428700973, 290.5356009536764, 290.6522676203431, 290.76893428700976, 290.88560095367643, 291.0022676203431, 291.1189342870098, 291.23560095367645, 291.3522676203431, 291.5856009536765]	2021_Jan_19_1423	59.86167446400995	1	1
10	49	FALSE	NV	v	['B', 'V', 'G', 'P', 'K', 'Z', 'T', 'R', 'N', 'E', 'J', 'A', 'H', 'X', 'W', 'C']	[760, 2245, 944, 1456, 1122, 2911, 1888, 1587, 1335, 904, 1029, 697, 986, 4000, 2448, 829]	14	Present	NA	NA	ABSENT	0.8364481925964355	293.57684111595154	295.58157110214233	296.86559104919434	297.2152941226959	299.6894700527191	4.107898950576782	[293.58746099472046, 293.70399498939514, 294.6885209083557, 294.8553988933563, 295.60612297058105, 295.7229120731354, 295.83977603912354, 295.95655703544617, 296.07340002059937, 296.19013595581055, 296.3069770336151, 296.4238169193268, 296.54058599472046, 296.6574819087982, 296.77395009994507, 296.8909389972687, 297.00757098197937, 297.12441897392273, 297.24115204811096, 297.35797905921936, 297.47529101371765, 297.6894700527191]	[293.5856009536765, 293.70226762034315, 294.68526762034315, 294.85196762034315, 295.60196762034315, 295.7186342870098, 295.8353009536765, 295.95196762034317, 296.06863428700984, 296.1853009536765, 296.3019676203432, 296.41863428700987, 296.53530095367654, 296.6519676203432, 296.7686342870099, 296.88530095367656, 297.00196762034324, 297.1186342870099, 297.2353009536766, 297.35196762034326, 297.46863428700993, 297.7019676203433]	2021_Jan_19_1423	59.86167446400995	1	1
10	50	FALSE	NA	v	['K', 'V', 'P', 'R', 'U', 'Y', 'G', 'E', 'H', 'X', 'W', 'Z', 'S', 'T', 'J', 'C']	[1122, 2245, 1456, 1587, 2059, 2670, 944, 904, 986, 4000, 2448, 2911, 1731, 1888, 1029, 829]	10	Present	NA	NA	ABSENT	0.8818941116333008	299.69996404647827	301.6979899406433	302.515123128891	302.8650300502777	305.80583596229553	4.107846021652222	[299.7105851173401, 299.8273639678955, 300.7948110103607, 300.9617099761963, 301.7292330265045, 301.8463490009308, 301.96303391456604, 302.0801179409027, 302.1965010166168, 302.31342101097107, 302.41328406333923, 302.5469229221344, 302.64688897132874, 302.76358008384705, 302.880322933197, 302.9971299171448, 303.1139090061188, 303.23071789741516, 303.3475420475006, 303.4642720222473, 303.581326007843, 303.80583596229553]	[299.7019676203433, 299.81863428700996, 300.80163428700996, 300.96833428700995, 301.71833428700995, 301.8350009536766, 301.9516676203433, 302.06833428701, 302.18500095367665, 302.3016676203433, 302.41833428701, 302.5350009536767, 302.65166762034335, 302.76833428701, 302.8850009536767, 303.00166762034337, 303.11833428701004, 303.2350009536767, 303.3516676203434, 303.46833428701007, 303.58500095367674, 303.8183342870101]	2021_Jan_19_1423	59.86167446400995	1	1
10	51	FALSE	NV	v	['U', 'M', 'A', 'Y', 'N', 'B', 'P', 'J', 'R', 'S', 'T', 'V', 'X', 'C', 'H', 'K']	[2059, 1224, 697, 2670, 1335, 760, 1456, 1029, 1587, 1731, 1888, 2245, 4000, 829, 986, 1122]	13	Present	NA	NA	ABSENT	0.6704599857330322	305.8063499927521	307.8145270347595	308.98165011405945	309.33137011528015	311.92220306396484	4.107676029205322	[305.8169710636139, 305.9336431026459, 306.9182069301605, 307.0847749710083, 307.83567690849304, 307.9524350166321, 308.0694761276245, 308.1861250400543, 308.30302810668945, 308.4197199344635, 308.53643703460693, 308.65328001976013, 308.7700490951538, 308.88683009147644, 309.00375294685364, 309.12053894996643, 309.23719096183777, 309.3538451194763, 309.4707350730896, 309.5876429080963, 309.7044370174408, 309.92220306396484]	[305.8183342870101, 305.93500095367676, 306.91800095367677, 307.08470095367676, 307.83470095367676, 307.95136762034343, 308.0680342870101, 308.1847009536768, 308.30136762034346, 308.41803428701013, 308.5347009536768, 308.6513676203435, 308.76803428701015, 308.8847009536768, 309.0013676203435, 309.1180342870102, 309.23470095367685, 309.3513676203435, 309.4680342870102, 309.5847009536769, 309.70136762034355, 309.9347009536769]	2021_Jan_19_1423	59.86167446400995	1	1
10	52	FALSE	NV	v	['N', 'U', 'W', 'E', 'S', 'H', 'B', 'P', 'A', 'X', 'K', 'Z', 'R', 'C', 'Y', 'T']	[1335, 2059, 2448, 904, 1731, 986, 760, 1456, 697, 4000, 1122, 2911, 1587, 829, 2670, 1888]	10	Present	NA	NA	PRESENT	0.39567017555236816	311.9293739795685	313.930428981781	314.7475781440735	315.09758710861206	318.0385699272156	4.10814094543457	[311.9399950504303, 312.0572700500488, 313.04112792015076, 313.2081320285797, 313.9589331150055, 314.07566690444946, 314.19252610206604, 314.3092610836029, 314.4260609149933, 314.54293608665466, 314.6595630645752, 314.77662205696106, 314.89313197135925, 315.0100688934326, 315.12664890289307, 315.2434320449829, 315.36036109924316, 315.47716093063354, 315.5940489768982, 315.7108750343323, 315.81075501441956, 316.0385699272156]	[311.9347009536769, 312.05136762034357, 313.0343676203436, 313.20106762034357, 313.95106762034357, 314.06773428701024, 314.1844009536769, 314.3010676203436, 314.41773428701026, 314.53440095367694, 314.6510676203436, 314.7677342870103, 314.88440095367696, 315.00106762034363, 315.1177342870103, 315.234400953677, 315.35106762034366, 315.46773428701033, 315.584400953677, 315.7010676203437, 315.81773428701035, 316.0510676203437]	2021_Jan_19_1423	59.86167446400995	1	1
10	53	FALSE	NV	v	['U', 'E', 'B', 'K', 'W', 'Y', 'M', 'N', 'T', 'S', 'X', 'H', 'Z', 'C', 'V', 'P']	[2059, 904, 760, 1122, 2448, 2670, 1224, 1335, 1888, 1731, 4000, 986, 2911, 829, 2245, 1456]	11	Present	NA	NA	ABSENT	0.7596728801727295	318.03593492507935	320.0469961166382	320.98088693618774	321.3307089805603	324.15493607521057	4.107939958572388	[318.04655599594116, 318.1632010936737, 319.14768290519714, 319.31457805633545, 320.06514596939087, 320.1819679737091, 320.29898500442505, 320.4156620502472, 320.5325379371643, 320.6492540836334, 320.7661061286926, 320.8828740119934, 320.9995949268341, 321.11654591560364, 321.2330570220947, 321.35002994537354, 321.46667408943176, 321.5836100578308, 321.700306892395, 321.81721591949463, 321.9340739250183, 322.1549370288849]	[318.0510676203437, 318.1677342870104, 319.1507342870104, 319.31743428701037, 320.06743428701037, 320.18410095367705, 320.3007676203437, 320.4174342870104, 320.53410095367707, 320.65076762034374, 320.7674342870104, 320.8841009536771, 321.00076762034377, 321.11743428701044, 321.2341009536771, 321.3507676203438, 321.46743428701046, 321.58410095367714, 321.7007676203438, 321.8174342870105, 321.93410095367716, 322.1674342870105]	2021_Jan_19_1423	59.86167446400995	1	1
10	54	FALSE	NV	v	['P', 'V', 'E', 'N', 'W', 'M', 'S', 'X', 'H', 'B', 'C', 'G', 'A', 'U', 'Z', 'K']	[1456, 2245, 904, 1335, 2448, 1224, 1731, 4000, 986, 760, 829, 944, 697, 2059, 2911, 1122]	8	Present	NA	NA	ABSENT	0.7888469696044922	324.15917110443115	326.163535118103	326.7470200061798	327.0969841480255	330.271301984787	4.10776686668396	[324.1697909832001, 324.2864589691162, 325.2707769870758, 325.4377770423889, 326.18846106529236, 326.3052730560303, 326.4221351146698, 326.53884410858154, 326.6555371284485, 326.7725410461426, 326.889121055603, 327.0060861110687, 327.12289810180664, 327.23951411247253, 327.3564999103546, 327.4731459617615, 327.58979296684265, 327.70674896240234, 327.82338309288025, 327.9401481151581, 328.0570731163025, 328.271301984787]	[324.1674342870105, 324.2841009536772, 325.2671009536772, 325.4338009536772, 326.1838009536772, 326.30046762034385, 326.4171342870105, 326.5338009536772, 326.6504676203439, 326.76713428701055, 326.8838009536772, 327.0004676203439, 327.1171342870106, 327.23380095367725, 327.3504676203439, 327.4671342870106, 327.58380095367727, 327.70046762034394, 327.8171342870106, 327.9338009536773, 328.05046762034397, 328.2838009536773]	2021_Jan_19_1423	59.86167446400995	1	1
10	55	FALSE	NA	v	['B', 'Z', 'W', 'H', 'J', 'Y', 'K', 'T', 'S', 'G', 'P', 'M', 'X', 'U', 'N', 'E']	[760, 2911, 2448, 986, 1029, 2670, 1122, 1888, 1731, 944, 1456, 1224, 4000, 2059, 1335, 904]	13	Present	NA	NA	PRESENT	0.2899138927459717	330.2822449207306	332.2796449661255	333.44666600227356	333.79669094085693	336.3876690864563	4.1080241203308105	[330.2928650379181, 330.3927390575409, 331.3773190975189, 331.5439600944519, 332.31174206733704, 332.411484003067, 332.54516100883484, 332.6451280117035, 332.76201605796814, 332.8787090778351, 332.9955720901489, 333.1123490333557, 333.2290449142456, 333.3458459377289, 333.46270990371704, 333.57952094078064, 333.69625902175903, 333.81300592422485, 333.92978596687317, 334.04669094085693, 334.1636071205139, 334.3876700401306]	[330.2838009536773, 330.400467620344, 331.383467620344, 331.550167620344, 332.300167620344, 332.41683428701066, 332.53350095367733, 332.650167620344, 332.7668342870107, 332.88350095367736, 333.00016762034403, 333.1168342870107, 333.2335009536774, 333.35016762034405, 333.4668342870107, 333.5835009536774, 333.7001676203441, 333.81683428701075, 333.9335009536774, 334.0501676203441, 334.1668342870108, 334.4001676203441]	2021_Jan_19_1423	59.86167446400995	1	1
10	56	FALSE	VV	v	['B', 'R', 'A', 'N', 'H', 'surprise', 'V', 'U', 'X', 'G', 'E', 'K', 'S', 'C', 'Z', 'P']	[760, 1587, 697, 1335, 986, 'stimAuditory/all_stimAuditory/107.wav', 2245, 2059, 4000, 944, 904, 1122, 1731, 829, 2911, 1456]	9	Present	NA	stimVisual/all_stimVisual/209.jpg	PRESENT	0.278764009475708	336.3887300491333	338.396192073822	339.09677815437317	339.4464919567108	342.50403594970703	4.10784387588501	[336.3993511199951, 336.51593804359436, 337.5002701282501, 337.66716504096985, 338.41802501678467, 338.5347809791565, 338.65155506134033, 338.76846504211426, 338.8850929737091, 339.01856207847595, 339.118812084198, 339.23573899269104, 339.3522050380707, 339.4690730571747, 339.58579897880554, 339.70275497436523, 339.81951904296875, 339.9363820552826, 340.05301308631897, 340.1699240207672, 340.2866780757904, 340.50403594970703]	[336.4001676203441, 336.5168342870108, 337.4998342870108, 337.6665342870108, 338.4165342870108, 338.53320095367746, 338.64986762034414, 338.7665342870108, 338.8832009536775, 338.99986762034416, 339.11653428701084, 339.2332009536775, 339.3498676203442, 339.46653428701086, 339.58320095367753, 339.6998676203442, 339.8165342870109, 339.93320095367756, 340.04986762034423, 340.1665342870109, 340.2832009536776, 340.5165342870109]	2021_Jan_19_1423	59.86167446400995	1	1
10	57	FALSE	NN	v	['Y', 'Z', 'B', 'T', 'P', 'S', 'E', 'K', 'J', 'N', 'U', 'M', 'R', 'H', 'W', 'C']	[2670, 2911, 760, 1888, 1456, 1731, 904, 1122, 1029, 1335, 2059, 1224, 1587, 986, 2448, 829]	14	Absent	NA	NA	ABSENT	0.40396690368652344	342.5121729373932	344.5126631259918	345.7962679862976	346.1462891101837	348.62040305137634	4.1077399253845215	[342.5227930545807, 342.639328956604, 343.6233539581299, 343.79029393196106, 344.5410370826721, 344.6580879688263, 344.7748100757599, 344.891606092453, 345.00830698013306, 345.1252489089966, 345.24191904067993, 345.35886311531067, 345.4755439758301, 345.59225511550903, 345.7090799808502, 345.82591104507446, 345.94268107414246, 346.059690952301, 346.1762731075287, 346.29302501678467, 346.39324402809143, 346.62040400505066]	[342.5165342870109, 342.6332009536776, 343.6162009536776, 343.7829009536776, 344.5329009536776, 344.64956762034427, 344.76623428701095, 344.8829009536776, 344.9995676203443, 345.11623428701097, 345.23290095367764, 345.3495676203443, 345.466234287011, 345.58290095367767, 345.69956762034434, 345.816234287011, 345.9329009536777, 346.04956762034436, 346.16623428701104, 346.2829009536777, 346.3995676203444, 346.63290095367773]	2021_Jan_19_1423	59.86167446400995	1	1
10	58	FALSE	NA	v	['N', 'G', 'Z', 'S', 'M', 'A', 'T', 'J', 'P', 'X', 'R', 'U', 'K', 'W', 'B', 'C']	[1335, 944, 2911, 1731, 1224, 697, 1888, 1029, 1456, 4000, 1587, 2059, 1122, 2448, 760, 829]	10	Present	NA	NA	PRESENT	0.35251498222351074	348.61832904815674	350.6289439201355	351.44579005241394	351.7958610057831	354.73676896095276	4.107825040817261	[348.62895011901855, 348.74550008773804, 349.72981810569763, 349.8969359397888, 350.64749002456665, 350.7644670009613, 350.88126492500305, 350.99789690971375, 351.11469292640686, 351.2316439151764, 351.34853410720825, 351.4651429653168, 351.58179211616516, 351.69872212409973, 351.81542897224426, 351.9322829246521, 352.0493221282959, 352.16593194007874, 352.28276109695435, 352.39961290359497, 352.5162329673767, 352.7367699146271]	[348.63290095367773, 348.7495676203444, 349.7325676203444, 349.8992676203444, 350.6492676203444, 350.7659342870111, 350.88260095367775, 350.9992676203444, 351.1159342870111, 351.2326009536778, 351.34926762034445, 351.4659342870111, 351.5826009536778, 351.6992676203445, 351.81593428701115, 351.9326009536778, 352.0492676203445, 352.16593428701117, 352.28260095367784, 352.3992676203445, 352.5159342870112, 352.74926762034454]	2021_Jan_19_1423	59.86167446400995	1	1
10	59	FALSE	AA	v	['K', 'M', 'Z', 'V', 'surprise', 'C', 'U', 'X', 'H', 'A', 'S', 'N', 'E', 'Y', 'P', 'R']	[1122, 1224, 2911, 2245, 'stimAuditory/all_stimAuditory/113.wav', 829, 2059, 4000, 986, 697, 1731, 1335, 904, 2670, 1456, 1587]	8	Present	stimAuditory/all_stimAuditory/104.wav	stimVisual/all_stimVisual/224.jpg	ABSENT	0.652921199798584	354.7413070201874	356.7451241016388	357.3288049697876	357.6789491176605	360.85313606262207	4.108011960983276	[354.7519268989563, 354.86877608299255, 355.8531401157379, 356.02000308036804, 356.77067399024963, 356.8876280784607, 357.0044000148773, 357.1210939884186, 357.2378399372101, 357.35485100746155, 357.4719591140747, 357.5881290435791, 357.70510506629944, 357.82167410850525, 357.938570022583, 358.0554950237274, 358.1722459793091, 358.28908801078796, 358.4058790206909, 358.52251410484314, 358.63944697380066, 358.85313606262207]	[354.74926762034454, 354.8659342870112, 355.8489342870112, 356.0156342870112, 356.7656342870112, 356.8823009536779, 356.99896762034456, 357.11563428701123, 357.2323009536779, 357.3489676203446, 357.46563428701126, 357.58230095367793, 357.6989676203446, 357.8156342870113, 357.93230095367795, 358.0489676203446, 358.1656342870113, 358.282300953678, 358.39896762034465, 358.5156342870113, 358.632300953678, 358.86563428701135]	2021_Jan_19_1423	59.86167446400995	1	1
10	60	FALSE	NA	v	['K', 'J', 'T', 'Z', 'C', 'P', 'H', 'Y', 'X', 'R', 'N', 'A', 'W', 'U', 'E', 'G']	[1122, 1029, 1888, 2911, 829, 1456, 986, 2670, 4000, 1587, 1335, 697, 2448, 2059, 904, 944]	9	Present	NA	NA	PRESENT	0.4264190196990967	360.84770607948303	362.8616111278534	363.5619580745697	363.9117159843445	366.9695029258728	4.107891798019409	[360.85832595825195, 360.9751880168915, 361.9594180583954, 362.12675499916077, 362.89382100105286, 362.99388694763184, 363.11074590682983, 363.2275359630585, 363.3442509174347, 363.4610710144043, 363.5778241157532, 363.69456696510315, 363.81134390830994, 363.9281060695648, 364.04495310783386, 364.1617259979248, 364.2787411212921, 364.3954780101776, 364.51214504241943, 364.62915110588074, 364.7457981109619, 364.9695019721985]	[360.86563428701135, 360.982300953678, 361.965300953678, 362.132000953678, 362.882000953678, 362.9986676203447, 363.11533428701136, 363.23200095367804, 363.3486676203447, 363.4653342870114, 363.58200095367806, 363.69866762034474, 363.8153342870114, 363.9320009536781, 364.04866762034476, 364.16533428701143, 364.2820009536781, 364.3986676203448, 364.51533428701146, 364.63200095367813, 364.7486676203448, 364.98200095367815]	2021_Jan_19_1423	59.86167446400995	1	1
10	61	FALSE	NN	v	['Y', 'R', 'J', 'A', 'V', 'T', 'S', 'G', 'P', 'C', 'N', 'B', 'Z', 'E', 'H', 'W']	[2670, 1587, 1029, 697, 2245, 1888, 1731, 944, 1456, 829, 1335, 760, 2911, 904, 986, 2448]	10	Absent	NA	NA	ABSENT	0.45480895042419434	366.9707860946655	368.9779930114746	369.7948999404907	370.1452651023865	373.0858690738678	4.1078760623931885	[366.98140597343445, 367.09826707839966, 368.08262300491333, 368.24951910972595, 369.0002830028534, 369.11711406707764, 369.23395895957947, 369.350781917572, 369.46744894981384, 369.5843539237976, 369.7009770870209, 369.81772208213806, 369.9344599246979, 370.0515229701996, 370.1681001186371, 370.2851679325104, 370.4017059803009, 370.5187609195709, 370.6354260444641, 370.75223898887634, 370.8689479827881, 371.0858700275421]	[366.98200095367815, 367.0986676203448, 368.08166762034483, 368.2483676203448, 368.9983676203448, 369.1150342870115, 369.23170095367817, 369.34836762034485, 369.4650342870115, 369.5817009536782, 369.69836762034487, 369.81503428701154, 369.9317009536782, 370.0483676203449, 370.16503428701157, 370.28170095367824, 370.3983676203449, 370.5150342870116, 370.63170095367826, 370.74836762034494, 370.8650342870116, 371.09836762034496]	2021_Jan_19_1423	59.86167446400995	1	1
10	62	FALSE	AN	v	['J', 'B', 'H', 'Z', 'G', 'U', 'E', 'K', 'P', 'W', 'surprise', 'M', 'N', 'V', 'R', 'T']	[1029, 760, 986, 2911, 944, 2059, 904, 1122, 1456, 2448, 'stimAuditory/all_stimAuditory/224.wav', 1224, 1335, 2245, 1587, 1888]	14	Absent	stimAuditory/all_stimAuditory/205.wav	stimVisual/all_stimVisual/118.jpg	ABSENT	0.3561849594116211	373.09441113471985	375.09444212913513	376.3780701160431	376.7278740406037	379.2022368907929	4.107794761657715	[373.1050319671631, 373.2216041088104, 374.20590710639954, 374.37261390686035, 375.123428106308, 375.24029898643494, 375.35694694519043, 375.47393703460693, 375.59058690071106, 375.70747208595276, 375.82416009902954, 375.9408071041107, 376.05775809288025, 376.17463397979736, 376.2913269996643, 376.40807008743286, 376.5250949859619, 376.6416850090027, 376.75851702690125, 376.87520003318787, 376.97535610198975, 377.20223689079285]	[373.09836762034496, 373.21503428701163, 374.19803428701164, 374.36473428701163, 375.11473428701163, 375.2314009536783, 375.348067620345, 375.46473428701165, 375.5814009536783, 375.698067620345, 375.8147342870117, 375.93140095367835, 376.048067620345, 376.1647342870117, 376.28140095367837, 376.39806762034505, 376.5147342870117, 376.6314009536784, 376.74806762034507, 376.86473428701174, 376.9814009536784, 377.21473428701177]	2021_Jan_19_1423	59.86167446400995	1	1
10	63	FALSE	NV	v	['R', 'C', 'B', 'N', 'M', 'T', 'Z', 'P', 'U', 'X', 'E', 'A', 'H', 'W', 'K', 'J']	[1587, 829, 760, 1335, 1224, 1888, 2911, 1456, 2059, 4000, 904, 697, 986, 2448, 1122, 1029]	10	Present	NA	NA	PRESENT	0.4088258743286133	379.2006080150604	381.21070313453674	382.0279541015625	382.3777151107788	385.31860399246216	4.107900857925415	[379.21122908592224, 379.3278970718384, 380.3121991157532, 380.4792649745941, 381.22980999946594, 381.34662795066833, 381.46349692344666, 381.5803349018097, 381.6972289085388, 381.81383204460144, 381.93071389198303, 382.0476059913635, 382.1640920639038, 382.2810380458832, 382.39766001701355, 382.5145900249481, 382.6313009262085, 382.748300075531, 382.86500000953674, 382.98182702064514, 383.0989279747009, 383.31860303878784]	[379.21473428701177, 379.33140095367844, 380.31440095367844, 380.48110095367844, 381.23110095367844, 381.3477676203451, 381.4644342870118, 381.58110095367846, 381.69776762034513, 381.8144342870118, 381.9311009536785, 382.04776762034516, 382.16443428701183, 382.2811009536785, 382.3977676203452, 382.51443428701185, 382.6311009536785, 382.7477676203452, 382.8644342870119, 382.98110095367855, 383.0977676203452, 383.3311009536786]	2021_Jan_19_1423	59.86167446400995	1	1
10	64	FALSE	NV	v	['P', 'C', 'V', 'R', 'T', 'U', 'W', 'S', 'X', 'Z', 'A', 'Y', 'N', 'M', 'K', 'B']	[1456, 829, 2245, 1587, 1888, 2059, 2448, 1731, 4000, 2911, 697, 2670, 1335, 1224, 1122, 760]	9	Present	NA	NA	PRESENT	0.3010549545288086	385.3235399723053	387.3270111083984	388.0274641513825	388.3774340152741	391.43496894836426	4.10795783996582	[385.3341600894928, 385.45125102996826, 386.43560791015625, 386.6023290157318, 387.35293102264404, 387.4698660373688, 387.5866379737854, 387.70366406440735, 387.82033705711365, 387.9371609687805, 388.053827047348, 388.1706631183624, 388.2872910499573, 388.40420603752136, 388.5209228992462, 388.6378479003906, 388.75462007522583, 388.8714249134064, 388.98818802833557, 389.1050660610199, 389.2216100692749, 389.43496799468994]	[385.3311009536786, 385.44776762034525, 386.43076762034525, 386.59746762034524, 387.34746762034524, 387.4641342870119, 387.5808009536786, 387.69746762034526, 387.81413428701194, 387.9308009536786, 388.0474676203453, 388.16413428701196, 388.28080095367864, 388.3974676203453, 388.514134287012, 388.63080095367866, 388.74746762034533, 388.864134287012, 388.9808009536787, 389.09746762034536, 389.21413428701203, 389.4474676203454]	2021_Jan_19_1423	59.86167446400995	1	1
10	65	FALSE	NA	v	['G', 'Y', 'C', 'B', 'R', 'H', 'W', 'K', 'X', 'A', 'P', 'S', 'E', 'J', 'V', 'Z']	[944, 2670, 829, 760, 1587, 986, 2448, 1122, 4000, 697, 1456, 1731, 904, 1029, 2245, 2911]	9	Present	NA	NA	ABSENT	0.35452914237976074	391.4299919605255	393.4435589313507	394.1437020301819	394.4940221309662	397.5513370037079	4.107778072357178	[391.440612077713, 391.5574119091034, 392.54174399375916, 392.7087309360504, 393.4764199256897, 393.57625102996826, 393.69297790527344, 393.8098590373993, 393.92654395103455, 394.04338002204895, 394.1600799560547, 394.27692890167236, 394.393630027771, 394.51047110557556, 394.62733697891235, 394.7442750930786, 394.86079001426697, 394.97793412208557, 395.09443402290344, 395.21142196655273, 395.3281559944153, 395.5513401031494]	[391.4474676203454, 391.56413428701205, 392.54713428701206, 392.71383428701205, 393.46383428701205, 393.5805009536787, 393.6971676203454, 393.81383428701207, 393.93050095367875, 394.0471676203454, 394.1638342870121, 394.28050095367877, 394.39716762034544, 394.5138342870121, 394.6305009536788, 394.74716762034546, 394.86383428701214, 394.9805009536788, 395.0971676203455, 395.21383428701216, 395.33050095367884, 395.5638342870122]	2021_Jan_19_1423	59.86167446400995	1	1
10	66	FALSE	NA	v	['H', 'G', 'E', 'Y', 'S', 'U', 'N', 'R', 'K', 'P', 'X', 'Z', 'A', 'T', 'C', 'V']	[986, 944, 904, 2670, 1731, 2059, 1335, 1587, 1122, 1456, 4000, 2911, 697, 1888, 829, 2245]	11	Present	NA	NA	ABSENT	0.30306506156921387	397.5532820224762	399.55981707572937	400.4936900138855	400.8433690071106	403.6677029132843	4.107885837554932	[397.5639019012451, 397.6806569099426, 398.665048122406, 398.8319261074066, 399.58253502845764, 399.69949102401733, 399.81634998321533, 399.9331920146942, 400.04981207847595, 400.16667008399963, 400.28329491615295, 400.40024995803833, 400.516930103302, 400.6339099407196, 400.7504839897156, 400.86722803115845, 400.98442697525024, 401.10099506378174, 401.2177269458771, 401.3343679904938, 401.4514889717102, 401.6677029132843]	[397.5638342870122, 397.68050095367886, 398.66350095367886, 398.83020095367885, 399.58020095367885, 399.69686762034553, 399.8135342870122, 399.9302009536789, 400.04686762034555, 400.1635342870122, 400.2802009536789, 400.3968676203456, 400.51353428701225, 400.6302009536789, 400.7468676203456, 400.86353428701227, 400.98020095367895, 401.0968676203456, 401.2135342870123, 401.33020095367897, 401.44686762034564, 401.680200953679]	2021_Jan_19_1423	59.86167446400995	1	1
10	67	FALSE	VA	v	['N', 'Y', 'A', 'H', 'J', 'B', 'R', 'surprise', 'U', 'K', 'X', 'V', 'E', 'P', 'G', 'C']	[1335, 2670, 697, 986, 1029, 760, 1587, 'stimAuditory/all_stimAuditory/210.wav', 2059, 1122, 4000, 2245, 904, 1456, 944, 829]	11	Present	NA	stimVisual/all_stimVisual/101.jpg	PRESENT	0.3245830535888672	403.6767361164093	405.6763589382171	406.61000299453735	406.9600410461426	409.7840700149536	4.10771107673645	[403.68735694885254, 403.8038511276245, 404.7882080078125, 404.9550430774689, 405.7059381008148, 405.8227689266205, 405.93939900398254, 406.0562210083008, 406.1730499267578, 406.2895998954773, 406.406485080719, 406.52313899993896, 406.6400110721588, 406.7567570209503, 406.8735649585724, 406.9904410839081, 407.10737204551697, 407.2241599559784, 407.3409399986267, 407.45758605003357, 407.5576751232147, 407.784068107605]	[403.680200953679, 403.79686762034567, 404.77986762034567, 404.94656762034566, 405.69656762034566, 405.81323428701234, 405.929900953679, 406.0465676203457, 406.16323428701236, 406.27990095367903, 406.3965676203457, 406.5132342870124, 406.62990095367905, 406.74656762034573, 406.8632342870124, 406.9799009536791, 407.09656762034575, 407.2132342870124, 407.3299009536791, 407.4465676203458, 407.56323428701245, 407.7965676203458]	2021_Jan_19_1423	59.86167446400995	1	1
10	68	FALSE	NA	v	['R', 'J', 'C', 'V', 'B', 'Z', 'M', 'G', 'K', 'T', 'Y', 'N', 'X', 'U', 'A', 'H']	[1587, 1029, 829, 2245, 760, 2911, 1224, 944, 1122, 1888, 2670, 1335, 4000, 2059, 697, 986]	13	Present	NA	NA	ABSENT	0.9928429126739502	409.7829451560974	411.79259300231934	412.95975708961487	413.30949211120605	415.90043592453	4.107842922210693	[409.79356598854065, 409.9103260040283, 410.8946349620819, 411.0613000392914, 411.8120698928833, 411.9291660785675, 412.0459198951721, 412.16270995140076, 412.2793860435486, 412.3961079120636, 412.5130319595337, 412.6297469139099, 412.746395111084, 412.86340403556824, 412.98002195358276, 413.09732699394226, 413.213613986969, 413.3305170536041, 413.4473080635071, 413.56417894363403, 413.6810779571533, 413.90043592453003]	[409.7965676203458, 409.9132342870125, 410.8962342870125, 411.06293428701247, 411.81293428701247, 411.92960095367914, 412.0462676203458, 412.1629342870125, 412.27960095367916, 412.39626762034584, 412.5129342870125, 412.6296009536792, 412.74626762034586, 412.86293428701254, 412.9796009536792, 413.0962676203459, 413.21293428701256, 413.32960095367923, 413.4462676203459, 413.5629342870126, 413.67960095367926, 413.9129342870126]	2021_Jan_19_1423	59.86167446400995	1	1
10	69	FALSE	NV	v	['Z', 'R', 'N', 'E', 'W', 'P', 'U', 'H', 'C', 'K', 'G', 'X', 'B', 'S', 'Y', 'V']	[2911, 1587, 1335, 904, 2448, 1456, 2059, 986, 829, 1122, 944, 4000, 760, 1731, 2670, 2245]	12	Present	NA	NA	PRESENT	0.405627965927124	415.9059140682221	417.90898513793945	418.95941495895386	419.3093910217285	422.01680302619934	4.107817888259888	[415.91653394699097, 416.0334289073944, 417.01773500442505, 417.1846809387207, 417.9352560043335, 418.0521960258484, 418.1688950061798, 418.2859699726105, 418.4025719165802, 418.5192070007324, 418.63595390319824, 418.75301599502563, 418.8697578907013, 418.9863610267639, 419.1033239364624, 419.2199399471283, 419.33703112602234, 419.45380091667175, 419.570396900177, 419.6872639656067, 419.80407309532166, 420.016802072525]	[415.9129342870126, 416.0296009536793, 417.0126009536793, 417.1793009536793, 417.9293009536793, 418.04596762034595, 418.1626342870126, 418.2793009536793, 418.39596762034597, 418.51263428701265, 418.6293009536793, 418.745967620346, 418.86263428701267, 418.97930095367934, 419.095967620346, 419.2126342870127, 419.32930095367936, 419.44596762034604, 419.5626342870127, 419.6793009536794, 419.79596762034606, 420.0293009536794]	2021_Jan_19_1423	59.86167446400995	1	1
10	70	FALSE	NN	v	['H', 'W', 'U', 'M', 'T', 'Z', 'S', 'G', 'A', 'R', 'E', 'K', 'J', 'Y', 'C', 'B']	[986, 2448, 2059, 1224, 1888, 2911, 1731, 944, 697, 1587, 904, 1122, 1029, 2670, 829, 760]	14	Absent	NA	NA	ABSENT	1.026658058166504	422.0122880935669	424.02524614334106	425.30921506881714	425.6589241027832	428.13316893577576	4.107922792434692	[422.0229079723358, 422.1397020816803, 423.1246380805969, 423.29101490974426, 424.0585811138153, 424.1586170196533, 424.27530694007874, 424.3920741081238, 424.5088710784912, 424.6257920265198, 424.7425260543823, 424.8593599796295, 424.9760069847107, 425.0929479598999, 425.20982003211975, 425.3265960216522, 425.4432370662689, 425.56023693084717, 425.6768789291382, 425.79372906684875, 425.9103949069977, 426.13317012786865]	[422.0293009536794, 422.1459676203461, 423.1289676203461, 423.2956676203461, 424.0456676203461, 424.16233428701275, 424.27900095367943, 424.3956676203461, 424.5123342870128, 424.62900095367945, 424.7456676203461, 424.8623342870128, 424.9790009536795, 425.09566762034615, 425.2123342870128, 425.3290009536795, 425.44566762034617, 425.56233428701285, 425.6790009536795, 425.7956676203462, 425.91233428701287, 426.1456676203462]	2021_Jan_19_1423	59.86167446400995	1	1
10	71	FALSE	NN	v	['J', 'R', 'U', 'A', 'B', 'Y', 'E', 'P', 'C', 'S', 'Z', 'H', 'W', 'T', 'N', 'K']	[1029, 1587, 2059, 697, 760, 2670, 904, 1456, 829, 1731, 2911, 986, 2448, 1888, 1335, 1122]	8	Absent	NA	NA	ABSENT	0.5432639122009277	428.1357159614563	430.1417019367218	430.72566509246826	431.07522892951965	434.2495369911194	4.107835054397583	[428.14634895324707, 428.2628870010376, 429.247435092926, 429.4140739440918, 430.1649329662323, 430.2819039821625, 430.39854407310486, 430.51529812812805, 430.63212394714355, 430.7486879825592, 430.8656630516052, 430.9825789928436, 431.0991699695587, 431.21615409851074, 431.3329119682312, 431.4496409893036, 431.566486120224, 431.6831729412079, 431.800076007843, 431.9169850349426, 432.0335659980774, 432.2495369911194]	[428.1456676203462, 428.2623342870129, 429.2453342870129, 429.4120342870129, 430.1620342870129, 430.27870095367956, 430.39536762034624, 430.5120342870129, 430.6287009536796, 430.74536762034626, 430.86203428701293, 430.9787009536796, 431.0953676203463, 431.21203428701295, 431.32870095367963, 431.4453676203463, 431.562034287013, 431.67870095367965, 431.7953676203463, 431.912034287013, 432.0287009536797, 432.262034287013]	2021_Jan_19_1423	59.86167446400995	1	1
10	72	FALSE	NV	v	['N', 'C', 'V', 'S', 'B', 'G', 'Z', 'R', 'W', 'X', 'P', 'Y', 'K', 'A', 'M', 'U']	[1335, 829, 2245, 1731, 760, 944, 2911, 1587, 2448, 4000, 1456, 2670, 1122, 697, 1224, 2059]	10	Present	NA	NA	PRESENT	0.44460415840148926	434.25901103019714	436.2581470012665	437.0755169391632	437.42515802383423	440.3659029006958	4.107755899429321	[434.26963090896606, 434.3859899044037, 435.3704891204834, 435.5205159187317, 436.2880699634552, 436.40483689308167, 436.52179312705994, 436.6385431289673, 436.7553050518036, 436.8719289302826, 436.9888319969177, 437.10563492774963, 437.2225549221039, 437.3390429019928, 437.45597195625305, 437.5726959705353, 437.6896240711212, 437.80634689331055, 437.92318391799927, 438.039911031723, 438.13996505737305, 438.3659029006958]	[434.262034287013, 434.3787009536797, 435.3617009536797, 435.5284009536797, 436.2784009536797, 436.39506762034637, 436.51173428701304, 436.6284009536797, 436.7450676203464, 436.86173428701306, 436.97840095367974, 437.0950676203464, 437.2117342870131, 437.32840095367976, 437.44506762034644, 437.5617342870131, 437.6784009536798, 437.79506762034646, 437.91173428701313, 438.0284009536798, 438.1450676203465, 438.37840095367983]	2021_Jan_19_1423	59.86167446400995	1	1
10	73	FALSE	NN	v	['A', 'W', 'S', 'N', 'Z', 'P', 'E', 'H', 'Y', 'R', 'J', 'U', 'T', 'B', 'K', 'M']	[697, 2448, 1731, 1335, 2911, 1456, 904, 986, 2670, 1587, 1029, 2059, 1888, 760, 1122, 1224]	14	Absent	NA	NA	ABSENT	0.5690610408782959	440.36532402038574	442.3745501041413	443.6581380367279	444.00808596611023	446.4822700023651	4.107719898223877	[440.37594389915466, 440.49265909194946, 441.4768440723419, 441.64377212524414, 442.394483089447, 442.51132011413574, 442.62813091278076, 442.745069026947, 442.8615839481354, 442.97850608825684, 443.0953109264374, 443.21219301223755, 443.3288540840149, 443.4458110332489, 443.5624520778656, 443.67935705184937, 443.79598689079285, 443.91270899772644, 444.0299470424652, 444.1462891101837, 444.2632191181183, 444.4822700023651]	[440.37840095367983, 440.4950676203465, 441.4780676203465, 441.6447676203465, 442.3947676203465, 442.5114342870132, 442.62810095367985, 442.7447676203465, 442.8614342870132, 442.97810095367987, 443.09476762034654, 443.2114342870132, 443.3281009536799, 443.44476762034657, 443.56143428701324, 443.6781009536799, 443.7947676203466, 443.91143428701326, 444.02810095367994, 444.1447676203466, 444.2614342870133, 444.49476762034664]	2021_Jan_19_1423	59.86167446400995	1	1
10	74	FALSE	NV	v	['P', 'W', 'M', 'E', 'S', 'R', 'H', 'K', 'T', 'X', 'Z', 'C', 'N', 'A', 'U', 'B']	[1456, 2448, 1224, 904, 1731, 1587, 986, 1122, 1888, 4000, 2911, 829, 1335, 697, 2059, 760]	10	Present	NA	NA	ABSENT	0.6056618690490723	446.4882879257202	448.4906940460205	449.30795192718506	449.6576421260834	452.59863591194153	4.1079418659210205	[446.4989080429077, 446.61582589149475, 447.60011100769043, 447.7668809890747, 448.5176320075989, 448.63461089134216, 448.75149512290955, 448.8679220676422, 448.9847629070282, 449.1015179157257, 449.21820998191833, 449.3352289199829, 449.4521601200104, 449.5689160823822, 449.68555998802185, 449.8022289276123, 449.91917610168457, 450.03585600852966, 450.1528570652008, 450.26963901519775, 450.38645005226135, 450.59863805770874]	[446.49476762034664, 446.6114342870133, 447.5944342870133, 447.7611342870133, 448.5111342870133, 448.62780095368, 448.74446762034665, 448.86113428701333, 448.97780095368, 449.0944676203467, 449.21113428701335, 449.32780095368, 449.4444676203467, 449.5611342870134, 449.67780095368005, 449.7944676203467, 449.9111342870134, 450.02780095368007, 450.14446762034675, 450.2611342870134, 450.3778009536801, 450.61113428701344]	2021_Jan_19_1423	59.86167446400995	1	1
10	75	FALSE	NN	v	['U', 'T', 'N', 'W', 'M', 'K', 'A', 'G', 'P', 'Z', 'R', 'S', 'Y', 'C', 'J', 'E']	[2059, 1888, 1335, 2448, 1224, 1122, 697, 944, 1456, 2911, 1587, 1731, 2670, 829, 1029, 904]	10	Absent	NA	NA	ABSENT	0.6668989658355713	452.59461998939514	454.607008934021	455.42405104637146	455.774218082428	458.7150020599365	4.107993125915527	[452.60524010658264, 452.72212195396423, 453.70641112327576, 453.87344789505005, 454.6412260532379, 454.74103593826294, 454.8576169013977, 454.9745681285858, 455.0911281108856, 455.20814394950867, 455.3247299194336, 455.4417209625244, 455.55833411216736, 455.6752390861511, 455.7919809818268, 455.9087641239166, 456.02543210983276, 456.1425199508667, 456.2591350078583, 456.37588691711426, 456.4927248954773, 456.71500301361084]	[452.61113428701344, 452.7278009536801, 453.7108009536801, 453.8775009536801, 454.6275009536801, 454.7441676203468, 454.86083428701346, 454.97750095368013, 455.0941676203468, 455.2108342870135, 455.32750095368016, 455.44416762034683, 455.5608342870135, 455.6775009536802, 455.79416762034685, 455.91083428701353, 456.0275009536802, 456.1441676203469, 456.26083428701355, 456.3775009536802, 456.4941676203469, 456.72750095368025]	2021_Jan_19_1423	59.86167446400995	1	1
10	76	FALSE	VA	v	['E', 'A', 'H', 'R', 'K', 'C', 'J', 'W', 'surprise', 'N', 'G', 'X', 'U', 'Y', 'P', 'T']	[904, 697, 986, 1587, 1122, 829, 1029, 2448, 'stimAuditory/all_stimAuditory/206.wav', 1335, 944, 4000, 2059, 2670, 1456, 1888]	12	Present	NA	stimVisual/all_stimVisual/150.jpg	PRESENT	0.511538028717041	458.7177789211273	460.72364807128906	461.7741379737854	462.1239941120148	464.83136892318726	4.107720851898193	[458.72843503952026, 458.84527611732483, 459.82975792884827, 459.9963450431824, 460.74727606773376, 460.8642039299011, 460.9808599948883, 461.0976710319519, 461.21448397636414, 461.33121609687805, 461.4479250907898, 461.564640045166, 461.68147802352905, 461.79827404022217, 461.9152019023895, 462.032133102417, 462.1488800048828, 462.2654778957367, 462.3824739456177, 462.49899196624756, 462.61588406562805, 462.83137011528015]	[458.72750095368025, 458.8441676203469, 459.8271676203469, 459.9938676203469, 460.7438676203469, 460.8605342870136, 460.97720095368027, 461.09386762034694, 461.2105342870136, 461.3272009536803, 461.44386762034696, 461.56053428701364, 461.6772009536803, 461.793867620347, 461.91053428701366, 462.02720095368034, 462.143867620347, 462.2605342870137, 462.37720095368036, 462.49386762034703, 462.6105342870137, 462.84386762034705]	2021_Jan_19_1423	59.86167446400995	1	1
10	77	FALSE	NV	v	['C', 'A', 'H', 'U', 'K', 'N', 'W', 'B', 'Y', 'R', 'X', 'T', 'M', 'S', 'J', 'P']	[829, 697, 986, 2059, 1122, 1335, 2448, 760, 2670, 1587, 4000, 1888, 1224, 1731, 1029, 1456]	11	Present	NA	NA	ABSENT	0.42889404296875	464.8411650657654	466.8398070335388	467.7734620571137	468.1238090991974	470.94773602485657	4.107928991317749	[464.8517858982086, 464.96879601478577, 465.93592500686646, 466.10279607772827, 466.87050104141235, 466.98719096183777, 467.1039140224457, 467.2207250595093, 467.3375930786133, 467.45432710647583, 467.57104992866516, 467.68802094459534, 467.80480790138245, 467.92151498794556, 468.03828597068787, 468.15503692626953, 468.2549660205841, 468.3718318939209, 468.48872590065, 468.60545802116394, 468.7223160266876, 468.94773602485657]	[464.84386762034705, 464.96053428701373, 465.94353428701373, 466.1102342870137, 466.8602342870137, 466.9769009536804, 467.0935676203471, 467.21023428701375, 467.3269009536804, 467.4435676203471, 467.56023428701377, 467.67690095368044, 467.7935676203471, 467.9102342870138, 468.02690095368047, 468.14356762034714, 468.2602342870138, 468.3769009536805, 468.49356762034716, 468.61023428701384, 468.7269009536805, 468.96023428701386]	2021_Jan_19_1423	59.86167446400995	1	1
10	78	FALSE	NV	v	['J', 'G', 'C', 'Y', 'H', 'Z', 'R', 'A', 'M', 'K', 'U', 'S', 'E', 'X', 'W', 'N']	[1029, 944, 829, 2670, 986, 2911, 1587, 697, 1224, 1122, 2059, 1731, 904, 4000, 2448, 1335]	14	Present	NA	NA	ABSENT	0.9053070545196532	470.947401046753	472.9560971260071	474.2405080795288	474.5900230407715	477.0641031265259	4.108006000518799	[470.95802092552185, 471.07491302490234, 472.05929589271545, 472.22619009017944, 472.9768319129944, 473.0937819480896, 473.21033811569214, 473.3272650241852, 473.4440019130707, 473.56092500686646, 473.67755603790283, 473.7944700717926, 473.9111740589142, 474.0283350944519, 474.1447579860687, 474.2616629600525, 474.3783710002899, 474.49512696266174, 474.61190700531006, 474.72881412506104, 474.8455491065979, 475.0641031265259]	[470.96023428701386, 471.07690095368054, 472.05990095368054, 472.22660095368053, 472.97660095368053, 473.0932676203472, 473.2099342870139, 473.32660095368055, 473.4432676203472, 473.5599342870139, 473.6766009536806, 473.79326762034725, 473.9099342870139, 474.0266009536806, 474.1432676203473, 474.25993428701395, 474.3766009536806, 474.4932676203473, 474.60993428701397, 474.72660095368065, 474.8432676203473, 475.07660095368067]	2021_Jan_19_1423	59.86167446400995	1	1
10	79	FALSE	NV	v	['W', 'K', 'C', 'P', 'Y', 'S', 'Z', 'U', 'M', 'J', 'X', 'R', 'B', 'H', 'N', 'T']	[2448, 1122, 829, 1456, 2670, 1731, 2911, 2059, 1224, 1029, 4000, 1587, 760, 986, 1335, 1888]	11	Present	NA	NA	PRESENT	0.4308538436889648	477.0706081390381	479.07262992858887	480.00626397132874	480.3561661243439	483.1804690361023	4.107839107513428	[477.08123993873596, 477.19818806648254, 478.1824700832367, 478.34915590286255, 479.0999491214752, 479.2166829109192, 479.33377408981323, 479.4504680633545, 479.56721901893616, 479.68397092819214, 479.80075311660767, 479.917603969574, 480.03421902656555, 480.15098690986633, 480.2678060531616, 480.3846740722656, 480.50147008895874, 480.6182520389557, 480.73514008522034, 480.8518979549408, 480.95186495780945, 481.1804709434509]	[477.07660095368067, 477.19326762034734, 478.17626762034735, 478.34296762034734, 479.09296762034734, 479.209634287014, 479.3263009536807, 479.44296762034736, 479.55963428701403, 479.6763009536807, 479.7929676203474, 479.90963428701406, 480.02630095368073, 480.1429676203474, 480.2596342870141, 480.37630095368075, 480.49296762034743, 480.6096342870141, 480.7263009536808, 480.84296762034745, 480.9596342870141, 481.1929676203475]	2021_Jan_19_1423	59.86167446400995	1	1
