participant	trial_num	practice	task	condition	RSVP	RAP	probePos	probe_presence	surprise_sound	surprise_img	probe_response	probe_resp_time	first_fixation_time	trial_start_time	surprise_start_time	probe_start_time	trial_end_time	trial_duration	actualEventTimes	plannedEventTimes	date	framerate	marker_vol	RAP_vol
10	1	FALSE	NA	a	['U', 'Z', 'H', 'B', 'C', 'P', 'J', 'X', 'R', 'S', 'E', 'N', 'G', 'Y', 'K', 'W']	[2059, 2911, 986, 760, 829, 1456, 1029, 4000, 1587, 1731, 904, 1335, 944, 2670, 1122, 2448]	8	Present	NA	NA	PRESENT	0.29343080520629883	2.86102294921875e-6	2.0006070137023926	2.5839491684898195	2.9339513142370315	6.103869199752808	4.103262186050415	[0.009200096130371094, 0.12576508522033691, 1.0871891975402832, 1.2600560188293457, 2.0275089740753174, 2.1278531551361084, 2.2446470260620117, 2.3612220287323, 2.4780080318450928, 2.5949130058288574, 2.7117550373077393, 2.8284339904785156, 2.9454751014709473, 3.0620691776275635, 3.1791131496429443, 3.295600175857544, 3.412278175354004, 3.5292551517486572, 3.6458890438079834, 3.7628581523895264, 3.879608154296875, 4.103870153427124]	[1.1920928955078125e-06, 0.11666785875289551, 1.0996678587528954, 1.2663678587528955, 2.0163678587528953, 2.1330345254128953, 2.2497011920728953, 2.3663678587328953, 2.4830345253928954, 2.5997011920528954, 2.7163678587128954, 2.8330345253728955, 2.9497011920328955, 3.0663678586928955, 3.1830345253528955, 3.2997011920128956, 3.4163678586728956, 3.5330345253328956, 3.6497011919928957, 3.7663678586528957, 3.8830345253128957, 4.116367858646229]	2021_Jan_19_1449	60.14460042731979	1	0.375
10	2	FALSE	NN	a	['M', 'G', 'N', 'E', 'K', 'C', 'Z', 'T', 'J', 'P', 'S', 'R', 'V', 'W', 'U', 'H']	[1224, 944, 1335, 904, 1122, 829, 2911, 1888, 1029, 1456, 1731, 1587, 2245, 2448, 2059, 986]	12	Absent	NA	NA	ABSENT	0.31380295753479004	6.106178045272827	8.113744020462036	9.163751888215147	9.513754987636675	12.22023606300354	4.106492042541504	[6.1153740882873535, 6.232213973999023, 7.203561067581177, 7.38316798210144, 8.134051084518433, 8.250838041305542, 8.367563009262085, 8.4845130443573, 8.601452112197876, 8.718085050582886, 8.8347749710083, 8.951717138290405, 9.068554162979126, 9.185359001159668, 9.30193305015564, 9.418802976608276, 9.53561806678772, 9.652472972869873, 9.769150972366333, 9.886198043823242, 10.002655029296875, 10.22023606300354]	[6.116367858646229, 6.233034525306229, 7.216034525306228, 7.382734525306228, 8.132734525306228, 8.249401191966228, 8.366067858626229, 8.48273452528623, 8.59940119194623, 8.71606785860623, 8.83273452526623, 8.949401191926231, 9.066067858586232, 9.182734525246232, 9.299401191906233, 9.416067858566233, 9.532734525226234, 9.649401191886234, 9.766067858546235, 9.882734525206235, 9.999401191866236, 10.232734525199568]	2021_Jan_19_1449	60.14460042731979	1	0.375
10	3	FALSE	NV	a	['E', 'N', 'P', 'Y', 'R', 'U', 'K', 'X', 'S', 'G', 'J', 'A', 'H', 'W', 'V', 'C']	[904, 1335, 1456, 2670, 1587, 2059, 1122, 4000, 1731, 944, 1029, 697, 986, 2448, 2245, 829]	8	Present	NA	NA	PRESENT	0.2873399257659912	12.2293438911438	14.23026990890503	14.813610394762405	15.163612302091035	18.336604118347168	4.106334209442139	[12.23854112625122, 12.35524296760559, 13.319928169250488, 13.50645112991333, 14.25729513168335, 14.37415599822998, 14.490888118743896, 14.607720136642456, 14.724342107772827, 14.84131908416748, 14.941220998764038, 15.058089017868042, 15.17479419708252, 15.291490077972412, 15.408307075500488, 15.525079011917114, 15.641895055770874, 15.7586669921875, 15.875547170639038, 15.992396116256714, 16.109151124954224, 16.336604118347168]	[12.232734525199568, 12.349401191859569, 13.332401191859569, 13.49910119185957, 14.24910119185957, 14.36576785851957, 14.48243452517957, 14.599101191839571, 14.715767858499571, 14.832434525159572, 14.949101191819572, 15.065767858479573, 15.182434525139573, 15.299101191799574, 15.415767858459574, 15.532434525119575, 15.649101191779575, 15.765767858439576, 15.882434525099576, 15.999101191759577, 16.115767858419577, 16.34910119175291]	2021_Jan_19_1449	60.14460042731979	1	0.375
10	4	FALSE	NA	a	['M', 'E', 'K', 'W', 'J', 'N', 'Z', 'P', 'H', 'R', 'Y', 'X', 'G', 'C', 'A', 'U']	[1224, 904, 1122, 2448, 1029, 1335, 2911, 1456, 986, 1587, 2670, 4000, 944, 829, 697, 2059]	12	Present	NA	NA	PRESENT	0.4838428497314453	18.33577585220337	20.346422910690308	21.396431016861996	21.746431970516312	24.452969074249268	4.10654616355896	[18.344972133636475, 18.4616060256958, 19.436294078826904, 19.612985134124756, 20.363888025283813, 20.480437994003296, 20.59718608856201, 20.714048147201538, 20.830981969833374, 20.947662115097046, 21.064563035964966, 21.18126916885376, 21.297986030578613, 21.41488814353943, 21.531355142593384, 21.64854907989502, 21.765130043029785, 21.881975173950195, 21.998727083206177, 22.11555314064026, 22.232295036315918, 22.452970027923584]	[18.34910119175291, 18.46576785841291, 19.44876785841291, 19.61546785841291, 20.36546785841291, 20.482134525072908, 20.598801191732907, 20.715467858392905, 20.832134525052904, 20.948801191712903, 21.0654678583729, 21.1821345250329, 21.2988011916929, 21.415467858352898, 21.532134525012896, 21.648801191672895, 21.765467858332894, 21.882134524992892, 21.99880119165289, 22.11546785831289, 22.23213452497289, 22.465467858306223]	2021_Jan_19_1449	60.14460042731979	1	0.375
10	5	FALSE	NN	a	['K', 'P', 'M', 'R', 'V', 'C', 'Z', 'N', 'B', 'A', 'H', 'Y', 'J', 'E', 'S', 'G']	[1122, 1456, 1224, 1587, 2245, 829, 2911, 1335, 760, 697, 986, 2670, 1029, 904, 1731, 944]	14	Absent	NA	NA	ABSENT	0.36817407608032227	24.45898389816284	26.4629168510437	27.74625733686107	28.096259244189707	30.569337129592896	4.106420278549194	[24.468183040618896, 24.584851026535034, 25.552659034729004, 25.735970973968506, 26.48691701889038, 26.603804111480713, 26.72033715248108, 26.83741807937622, 26.95401406288147, 27.07099199295044, 27.18759298324585, 27.304598093032837, 27.421173095703125, 27.537962198257446, 27.654839038848877, 27.771641969680786, 27.888395071029663, 28.00497317314148, 28.122109174728394, 28.238555192947388, 28.355602979660034, 28.569337129592896]	[24.465467858306223, 24.58213452496622, 25.565134524966222, 25.73183452496622, 26.48183452496622, 26.59850119162622, 26.715167858286218, 26.831834524946217, 26.948501191606216, 27.065167858266214, 27.181834524926213, 27.29850119158621, 27.41516785824621, 27.53183452490621, 27.648501191566208, 27.765167858226206, 27.881834524886205, 27.998501191546204, 28.115167858206203, 28.2318345248662, 28.3485011915262, 28.581834524859534]	2021_Jan_19_1449	60.14460042731979	1	0.375
10	6	FALSE	NN	a	['P', 'K', 'W', 'M', 'Y', 'G', 'R', 'V', 'E', 'T', 'H', 'C', 'U', 'Z', 'B', 'S']	[1456, 1122, 2448, 1224, 2670, 944, 1587, 2245, 904, 1888, 986, 829, 2059, 2911, 760, 1731]	9	Absent	NA	NA	ABSENT	0.54982590675354	30.582190990448	32.57921385765076	33.279221963842446	33.62922291749676	36.68570399284363	4.106490135192871	[30.591389179229736, 30.69125509262085, 31.66903805732727, 31.84256410598755, 32.59326696395874, 32.71005916595459, 32.827089071273804, 32.943679094314575, 33.060418128967285, 33.17726397514343, 33.294005155563354, 33.410804986953735, 33.52783703804016, 33.64445209503174, 33.761043071746826, 33.87801003456116, 33.99469614028931, 34.11164903640747, 34.22823715209961, 34.3452091217041, 34.46193718910217, 34.68570399284363]	[30.581834524859534, 30.698501191519533, 31.681501191519533, 31.848201191519532, 32.598201191519536, 32.71486785817954, 32.83153452483954, 32.94820119149954, 33.064867858159545, 33.18153452481955, 33.29820119147955, 33.41486785813955, 33.531534524799554, 33.648201191459556, 33.76486785811956, 33.88153452477956, 33.99820119143956, 34.114867858099565, 34.23153452475957, 34.34820119141957, 34.46486785807957, 34.698201191412906]	2021_Jan_19_1449	60.14460042731979	1	0.375
10	7	FALSE	NA	a	['C', 'S', 'U', 'P', 'T', 'Z', 'G', 'N', 'E', 'R', 'J', 'M', 'X', 'Y', 'A', 'B']	[829, 1731, 2059, 1456, 1888, 2911, 944, 1335, 904, 1587, 1029, 1224, 4000, 2670, 697, 760]	13	Present	NA	NA	PRESENT	0.1460859775543213	36.68862295150757	38.69558882713318	39.86226264629055	40.212264553619185	42.80206918716431	4.106480360031128	[36.69782018661499, 36.814335107803345, 37.78539514541626, 37.96549606323242, 38.71638202667236, 38.83330297470093, 38.95016598701477, 39.066920042037964, 39.183712005615234, 39.30057501792908, 39.41730213165283, 39.53395318984985, 39.65071702003479, 39.767683029174805, 39.88468408584595, 40.00122117996216, 40.117818117141724, 40.234862089157104, 40.35152196884155, 40.46841907501221, 40.58519697189331, 40.80207109451294]	[36.698201191412906, 36.81486785807291, 37.797867858072905, 37.964567858072904, 38.714567858072904, 38.831234524732906, 38.94790119139291, 39.06456785805291, 39.18123452471291, 39.297901191372915, 39.41456785803292, 39.53123452469292, 39.64790119135292, 39.764567858012924, 39.88123452467293, 39.99790119133293, 40.11456785799293, 40.23123452465293, 40.347901191312936, 40.46456785797294, 40.58123452463294, 40.814567857966274]	2021_Jan_19_1449	60.14460042731979	1	0.375
10	8	FALSE	NV	a	['H', 'T', 'C', 'M', 'B', 'R', 'V', 'K', 'W', 'Y', 'S', 'X', 'N', 'G', 'J', 'U']	[986, 1888, 829, 1224, 760, 1587, 2245, 1122, 2448, 2670, 1731, 4000, 1335, 944, 1029, 2059]	12	Present	NA	NA	PRESENT	0.3915481567382813	42.811765909194946	44.811842918396	45.86184983247479	46.211851978222	48.918437004089355	4.106594085693359	[42.82096219062805, 42.937777042388916, 43.90176010131836, 44.08884000778198, 44.839577198028564, 44.939664125442505, 45.05650496482849, 45.173180103302, 45.289977073669434, 45.406846046447754, 45.523630142211914, 45.6404550075531, 45.757150173187256, 45.87396502494812, 45.99067211151123, 46.10755896568298, 46.22436213493347, 46.34113907814026, 46.458070039749146, 46.574658155441284, 46.69150400161743, 46.918437004089355]	[42.814567857966274, 42.93123452462628, 43.91423452462627, 44.08093452462627, 44.83093452462627, 44.947601191286275, 45.06426785794628, 45.18093452460628, 45.29760119126628, 45.41426785792628, 45.530934524586286, 45.64760119124629, 45.76426785790629, 45.88093452456629, 45.997601191226295, 46.1142678578863, 46.2309345245463, 46.3476011912063, 46.464267857866304, 46.580934524526306, 46.69760119118631, 46.93093452451964]	2021_Jan_19_1449	60.14460042731979	1	0.375
10	9	FALSE	NN	a	['R', 'K', 'A', 'B', 'H', 'C', 'Z', 'U', 'S', 'E', 'J', 'V', 'G', 'M', 'T', 'W']	[1587, 1122, 697, 760, 986, 829, 2911, 2059, 1731, 904, 1029, 2245, 944, 1224, 1888, 2448]	9	Absent	NA	NA	ABSENT	0.3080580234527588	48.91824984550476	50.92805099487305	51.62805790897184	51.97806005471905	55.03480315208435	4.106752157211304	[48.927446126937866, 49.04421615600586, 50.01812815666199, 50.19563698768616, 50.94597506523132, 51.062769174575806, 51.179768085479736, 51.29659819602966, 51.41322302818298, 51.52985215187073, 51.646841049194336, 51.76384115219116, 51.880431175231934, 51.9971661567688, 52.11405396461487, 52.230772972106934, 52.347419023513794, 52.464380979537964, 52.58100914955139, 52.698333978652954, 52.81486415863037, 53.03480315208435]	[48.93093452451964, 49.047601191179645, 50.03060119117964, 50.19730119117964, 50.94730119117964, 51.06396785783964, 51.180634524499645, 51.29730119115965, 51.41396785781965, 51.53063452447965, 51.647301191139654, 51.763967857799656, 51.88063452445966, 51.99730119111966, 52.11396785777966, 52.230634524439665, 52.34730119109967, 52.46396785775967, 52.58063452441967, 52.697301191079674, 52.81396785773968, 53.04730119107301]	2021_Jan_19_1449	60.14460042731979	1	0.375
10	10	FALSE	VV	a	['B', 'N', 'V', 'E', 'T', 'surprise', 'R', 'K', 'X', 'J', 'A', 'U', 'Y', 'P', 'H', 'G']	[760, 1335, 2245, 904, 1888, 'stimAuditory/all_stimAuditory/121.wav', 1587, 1122, 4000, 1029, 697, 2059, 2670, 1456, 986, 944]	9	Present	NA	NA	ABSENT	0.6243488788604736	55.04117298126221	57.04461598396301	57.744622898061806	58.09462504380902	61.15116906166077	4.106553077697754	[55.05036902427673, 55.16769003868103, 56.13449311256409, 56.31838607788086, 57.069207191467285, 57.186169147491455, 57.30272698402405, 57.41976499557495, 57.53659415245056, 57.653215169906616, 57.77023410797119, 57.88681101799011, 58.00376915931702, 58.12034010887146, 58.23708510398865, 58.35379719734192, 58.47079014778137, 58.5874559879303, 58.704368114471436, 58.8210551738739, 58.9380521774292, 59.15116906166077]	[55.04730119107301, 55.16396785773301, 56.14696785773301, 56.31366785773301, 57.06366785773301, 57.18033452439301, 57.29700119105301, 57.413667857713016, 57.53033452437302, 57.64700119103302, 57.76366785769302, 57.880334524353025, 57.99700119101303, 58.11366785767303, 58.23033452433303, 58.34700119099303, 58.463667857653036, 58.58033452431304, 58.69700119097304, 58.81366785763304, 58.930334524293045, 59.16366785762638]	2021_Jan_19_1449	60.14460042731979	1	0.375
10	11	FALSE	NV	a	['W', 'P', 'H', 'C', 'R', 'K', 'J', 'N', 'A', 'Y', 'E', 'X', 'V', 'M', 'T', 'G']	[2448, 1456, 986, 829, 1587, 1122, 1029, 1335, 697, 2670, 904, 4000, 2245, 1224, 1888, 944]	12	Present	NA	NA	PRESENT	0.31795787811279297	61.147570848464966	63.16105794906616	64.21106486314495	64.56106700889217	67.26753616333008	4.106478214263916	[61.15676712989807, 61.27360701560974, 62.250861167907715, 62.42494010925293, 63.17561602592468, 63.29250717163086, 63.40943217277527, 63.52619409561157, 63.642983198165894, 63.75971603393555, 63.876495122909546, 63.993247985839844, 64.10990309715271, 64.22690916061401, 64.34349203109741, 64.46037197113037, 64.57710599899292, 64.69399499893188, 64.81072616577148, 64.92771005630493, 65.04438018798828, 65.2675371170044]	[61.16366785762638, 61.28033452428638, 62.26333452428638, 62.43003452428638, 63.18003452428638, 63.29670119094638, 63.41336785760638, 63.530034524266384, 63.646701190926386, 63.76336785758639, 63.88003452424639, 63.99670119090639, 64.11336785756639, 64.23003452422638, 64.34670119088638, 64.46336785754637, 64.58003452420637, 64.69670119086636, 64.81336785752636, 64.93003452418635, 65.04670119084635, 65.28003452417968]	2021_Jan_19_1449	60.14460042731979	1	0.375
10	12	FALSE	NN	a	['S', 'N', 'B', 'G', 'Y', 'U', 'J', 'V', 'W', 'P', 'C', 'H', 'Z', 'K', 'A', 'E']	[1731, 1335, 760, 944, 2670, 2059, 1029, 2245, 2448, 1456, 829, 986, 2911, 1122, 697, 904]	9	Absent	NA	NA	ABSENT	0.6263442039489746	67.27089190483093	69.27746200561523	69.97746987338834	70.32747201913556	73.38390302658081	4.106441020965576	[67.28008913993835, 67.39686107635498, 68.36722898483276, 68.54812407493591, 69.29877400398254, 69.41569304466248, 69.53240013122559, 69.64933013916016, 69.76609206199646, 69.88315200805664, 69.99979305267334, 70.11630511283875, 70.2333071231842, 70.35007810592651, 70.46663808822632, 70.58348107337952, 70.70028114318848, 70.8169641494751, 70.9339849948883, 71.05055117607117, 71.16790413856506, 71.38390302658081]	[67.28003452417968, 67.39670119083968, 68.37970119083968, 68.54640119083969, 69.29640119083969, 69.41306785749968, 69.52973452415968, 69.64640119081967, 69.76306785747967, 69.87973452413966, 69.99640119079966, 70.11306785745965, 70.22973452411965, 70.34640119077964, 70.46306785743964, 70.57973452409963, 70.69640119075963, 70.81306785741963, 70.92973452407962, 71.04640119073962, 71.16306785739961, 71.39640119073294]	2021_Jan_19_1449	60.14460042731979	1	0.375
10	13	FALSE	NA	a	['Y', 'C', 'Z', 'V', 'P', 'T', 'M', 'J', 'N', 'H', 'X', 'W', 'S', 'R', 'K', 'E']	[2670, 829, 2911, 2245, 1456, 1888, 1224, 1029, 1335, 986, 4000, 2448, 1731, 1587, 1122, 904]	11	Present	NA	NA	PRESENT	0.15186810493469238	73.39408302307129	75.39390802383423	76.32724922492734	76.67725137067455	79.5002691745758	4.106361150741577	[73.40327906608582, 73.51989698410034, 74.48359298706055, 74.67148900032043, 75.42207503318787, 75.52200412750244, 75.63881206512451, 75.7556619644165, 75.8724730014801, 75.98919606208801, 76.10605812072754, 76.22267198562622, 76.33949708938599, 76.45628619194031, 76.57337403297424, 76.68992400169373, 76.80696606636047, 76.9236581325531, 77.04030799865723, 77.15731406211853, 77.27390503883362, 77.5002691745758]	[73.39640119073294, 73.51306785739294, 74.49606785739294, 74.66276785739295, 75.41276785739295, 75.52943452405295, 75.64610119071294, 75.76276785737294, 75.87943452403293, 75.99610119069293, 76.11276785735292, 76.22943452401292, 76.34610119067291, 76.4627678573329, 76.5794345239929, 76.6961011906529, 76.81276785731289, 76.92943452397289, 77.04610119063288, 77.16276785729288, 77.27943452395287, 77.5127678572862]	2021_Jan_19_1449	60.14460042731979	1	0.375
10	14	FALSE	NA	a	['R', 'U', 'P', 'K', 'J', 'C', 'S', 'V', 'A', 'Z', 'X', 'M', 'H', 'W', 'T', 'E']	[1587, 2059, 1456, 1122, 1029, 829, 1731, 2245, 697, 2911, 4000, 1224, 986, 2448, 1888, 904]	11	Present	NA	NA	PRESENT	0.22020602226257324	79.50061202049255	81.51020288467407	82.44354432418577	82.7935462315144	85.61663699150085	4.106434106826782	[79.50980806350708, 79.62652206420898, 80.59995818138123, 80.77811598777771, 81.5282711982727, 81.64543509483337, 81.76204800605774, 81.87899112701416, 81.9956259727478, 82.11253619194031, 82.22941017150879, 82.34597706794739, 82.46266913414001, 82.57942199707031, 82.69621896743774, 82.8131890296936, 82.92991018295288, 83.04681515693665, 83.16348814964294, 83.28028798103333, 83.39722418785095, 83.61663699150085]	[79.5127678572862, 79.6294345239462, 80.6124345239462, 80.77913452394621, 81.52913452394621, 81.6458011906062, 81.7624678572662, 81.8791345239262, 81.99580119058619, 82.11246785724619, 82.22913452390618, 82.34580119056618, 82.46246785722617, 82.57913452388617, 82.69580119054616, 82.81246785720616, 82.92913452386615, 83.04580119052615, 83.16246785718614, 83.27913452384614, 83.39580119050613, 83.62913452383947]	2021_Jan_19_1449	60.14460042731979	1	0.375
10	15	FALSE	NA	a	['P', 'R', 'G', 'K', 'H', 'E', 'U', 'X', 'V', 'T', 'N', 'Z', 'A', 'J', 'S', 'Y']	[1456, 1587, 944, 1122, 986, 904, 2059, 4000, 2245, 1888, 1335, 2911, 697, 1029, 1731, 2670]	8	Present	NA	NA	PRESENT	0.2408740520477295	85.62371397018433	87.62650299072266	88.20984419183577	88.55984633758298	91.73300409317017	4.10650110244751	[85.63291001319885, 85.74976801872253, 86.7163290977478, 86.90069913864136, 87.65162515640259, 87.76827812194824, 87.88540005683899, 88.00198698043823, 88.11877608299255, 88.23566102981567, 88.35223817825317, 88.46917605400085, 88.58598709106445, 88.70278906822205, 88.81954503059387, 88.93639397621155, 89.05325508117676, 89.17052006721497, 89.28682398796082, 89.40342402458191, 89.52028298377991, 89.73300409317017]	[85.62913452383947, 85.74580119049946, 86.72880119049947, 86.89550119049947, 87.64550119049947, 87.76216785715947, 87.87883452381946, 87.99550119047946, 88.11216785713945, 88.22883452379945, 88.34550119045944, 88.46216785711944, 88.57883452377943, 88.69550119043943, 88.81216785709942, 88.92883452375942, 89.04550119041942, 89.16216785707941, 89.2788345237394, 89.3955011903994, 89.5121678570594, 89.74550119039273]	2021_Jan_19_1449	60.14460042731979	1	0.375
10	16	FALSE	AA	a	['C', 'B', 'P', 'U', 'S', 'E', 'K', 'V', 'Z', 'surprise', 'J', 'R', 'X', 'A', 'Y', 'N']	[829, 760, 1456, 2059, 1731, 904, 1122, 2245, 2911, 'stimAuditory/all_stimAuditory/117.wav', 1029, 1587, 4000, 697, 2670, 1335]	13	Present	stimAuditory/all_stimAuditory/121.wav	NA	ABSENT	0.4702119827270508	91.73004603385924	93.742794990539565	94.90946857127834	95.25947071702556	97.84937000274658	4.106575012207031	[91.73925518989563, 91.85602617263794, 92.8326940536499, 93.00735211372375, 93.75799298286438, 93.87497305870056, 93.9916000366211, 94.10855197906494, 94.22519302368164, 94.34209513664246, 94.45870518684387, 94.57568502426147, 94.69225811958313, 94.80934309959412, 94.92593598365784, 95.04266309738159, 95.15956902503967, 95.27653503417969, 95.39319801330566, 95.51005005836487, 95.6267020702362, 95.84937000274658]	[91.74550119039273, 91.86216785705273, 92.84516785705273, 93.01186785705274, 93.76186785705274, 93.87853452371273, 93.99520119037273, 94.11186785703272, 94.22853452369272, 94.34520119035271, 94.4618678570127, 94.5785345236727, 94.6952011903327, 94.81186785699269, 94.92853452365269, 95.04520119031268, 95.16186785697268, 95.27853452363267, 95.39520119029267, 95.51186785695266, 95.62853452361266, 95.86186785694599]	2021_Jan_19_1449	60.14460042731979	1	0.375
10	17	FALSE	NV	a	['U', 'P', 'H', 'T', 'J', 'V', 'R', 'X', 'Z', 'S', 'Y', 'W', 'N', 'E', 'G', 'M']	[2059, 1456, 986, 1888, 1029, 2245, 1587, 4000, 2911, 1731, 2670, 2448, 1335, 904, 944, 1224]	8	Present	NA	NA	PRESENT	0.1546030044555664	97.85338306427002	99.85905599594116	100.44239624337996	100.79239838912716	103.96573615074158	4.106680154800415	[97.86258006095886, 97.97931599617004, 98.94906210899353, 99.13058304786682, 99.88158106803894, 99.99816608428955, 100.11497211456299, 100.23175716400146, 100.34841799736023, 100.4653069972992, 100.58182907104492, 100.69857215881348, 100.81553411483765, 100.93222308158875, 101.04921317100525, 101.16611003875732, 101.28291606903076, 101.399423122406, 101.51635503768921, 101.63297200202942, 101.74991512298584, 101.9657371044159]	[97.86186785694599, 97.97853452360599, 98.96153452360599, 99.128234523606, 99.878234523606, 99.99490119026599, 100.11156785692599, 100.22823452358598, 100.34490119024598, 100.46156785690597, 100.57823452356597, 100.69490119022596, 100.81156785688596, 100.92823452354595, 101.04490119020595, 101.16156785686594, 101.27823452352594, 101.39490119018593, 101.51156785684593, 101.62823452350592, 101.74490119016592, 101.97823452349925]	2021_Jan_19_1449	60.14460042731979	1	0.375
10	18	FALSE	NA	a	['G', 'Y', 'V', 'E', 'R', 'J', 'C', 'S', 'M', 'K', 'U', 'P', 'A', 'X', 'T', 'Z']	[944, 2670, 2245, 904, 1587, 1029, 829, 1731, 1224, 1122, 2059, 1456, 697, 4000, 1888, 2911]	14	Present	NA	NA	PRESENT	0.376039981842041	103.9762749671936	105.97558784484865	107.258928330666	107.60893023799464	110.08210301399232	4.106515169143677	[103.98547196388245, 104.10254311561584, 105.06542801856995, 105.2367331981659, 106.00452709197998, 106.10451412200928, 106.22120308876038, 106.33799004554749, 106.4550211429596, 106.57170701026917, 106.68831896781921, 106.80523300170898, 106.92192006111145, 107.0388650894165, 107.15548801422119, 107.27240705490112, 107.38907504081726, 107.50601410865784, 107.62266802787781, 107.73961901664734, 107.85628819465637, 108.08210301399231]	[103.97823452349925, 104.09490119015925, 105.07790119015925, 105.24460119015926, 105.99460119015926, 106.11126785681925, 106.22793452347925, 106.34460119013924, 106.46126785679924, 106.57793452345923, 106.69460119011923, 106.81126785677922, 106.92793452343922, 107.04460119009921, 107.16126785675921, 107.2779345234192, 107.3946011900792, 107.5112678567392, 107.62793452339919, 107.74460119005919, 107.86126785671918, 108.09460119005251]	2021_Jan_19_1449	60.14460042731979	1	0.375
10	19	FALSE	NV	a	['H', 'K', 'V', 'U', 'G', 'T', 'C', 'Z', 'R', 'S', 'N', 'B', 'X', 'Y', 'A', 'M']	[986, 1122, 2245, 2059, 944, 1888, 829, 2911, 1587, 1731, 1335, 760, 4000, 2670, 697, 1224]	13	Present	NA	NA	PRESENT	0.12451696395874023	110.08324003219604	112.09185004234314	113.25852457675624	113.60852672250346	116.19847011566162	4.1066200733184814	[110.09243702888489, 110.2088520526886, 111.18179607391357, 111.36011600494385, 112.11084413528442, 112.22779703140259, 112.34455513954163, 112.4613151550293, 112.57798600196838, 112.69494605064392, 112.81167101860046, 112.92842411994934, 113.04513716697693, 113.16199207305908, 113.27882599830627, 113.39539504051208, 113.51245999336243, 113.62891507148743, 113.74607300758362, 113.86267399787903, 113.97952103614807, 114.19847011566162]	[110.09460119005251, 110.21126785671251, 111.19426785671251, 111.36096785671252, 112.11096785671252, 112.22763452337252, 112.34430119003251, 112.4609678566925, 112.5776345233525, 112.6943011900125, 112.81096785667249, 112.92763452333249, 113.04430118999248, 113.16096785665248, 113.27763452331247, 113.39430118997247, 113.51096785663246, 113.62763452329246, 113.74430118995245, 113.86096785661245, 113.97763452327244, 114.21096785660578]	2021_Jan_19_1449	60.14460042731979	1	0.375
10	20	FALSE	NN	a	['E', 'T', 'M', 'J', 'S', 'B', 'H', 'C', 'V', 'G', 'U', 'R', 'N', 'A', 'K', 'W']	[904, 1888, 1224, 1029, 1731, 760, 986, 829, 2245, 944, 2059, 1587, 1335, 697, 1122, 2448]	8	Absent	NA	NA	ABSENT	0.2020359039306641	116.20590806007384	118.20815587043762	118.79149730996932	119.14149921729796	122.31483697891235	4.1066811084747314	[116.21510410308838, 116.33209419250488, 117.29815816879272, 117.48321509361267, 118.23395609855652, 118.35074019432068, 118.46773600578308, 118.58451199531555, 118.7012209892273, 118.81785202026367, 118.93486213684082, 119.05145597457886, 119.1688301563263, 119.2850821018219, 119.40200614929199, 119.51864314079285, 119.63567805290222, 119.75218915939331, 119.86924505233765, 119.98594117164612, 120.10269212722778, 120.31483697891235]	[116.21096785660578, 116.32763452326577, 117.31063452326578, 117.47733452326578, 118.22733452326578, 118.34400118992578, 118.46066785658577, 118.57733452324577, 118.69400118990576, 118.81066785656576, 118.92733452322575, 119.04400118988575, 119.16066785654574, 119.27733452320574, 119.39400118986573, 119.51066785652573, 119.62733452318572, 119.74400118984572, 119.86066785650571, 119.97733452316571, 120.0940011898257, 120.32733452315904]	2021_Jan_19_1449	60.14460042731979	1	0.375
10	21	FALSE	NV	a	['H', 'Z', 'Y', 'G', 'P', 'E', 'J', 'C', 'B', 'S', 'X', 'N', 'V', 'A', 'R', 'W']	[986, 2911, 2670, 944, 1456, 904, 1029, 829, 760, 1731, 4000, 1335, 2245, 697, 1587, 2448]	11	Present	NA	NA	PRESENT	0.6383171081542969	122.31244587898254	124.3247230052948	125.25806420638791	125.60806635213513	128.43120312690735	4.106480121612549	[122.32164216041565, 122.43843412399292, 123.41452717781067, 123.58961009979248, 124.34038400650024, 124.45734000205994, 124.57400798797607, 124.69086813926697, 124.80765104293823, 124.92454600334167, 125.0410430431366, 125.15809512138367, 125.27474117279053, 125.39170408248901, 125.50849199295044, 125.62528204917908, 125.74194097518921, 125.85872507095337, 125.9754581451416, 126.09238719940186, 126.20916509628296, 126.43120408058167]	[122.32733452315904, 122.44400118981903, 123.42700118981904, 123.59370118981904, 124.34370118981904, 124.46036785647904, 124.57703452313903, 124.69370118979903, 124.81036785645902, 124.92703452311902, 125.04370118977901, 125.16036785643901, 125.277034523099, 125.393701189759, 125.510367856419, 125.62703452307899, 125.74370118973899, 125.86036785639898, 125.97703452305898, 126.09370118971897, 126.21036785637897, 126.4437011897123]	2021_Jan_19_1449	60.14460042731979	1	0.375
10	22	FALSE	NA	a	['Z', 'H', 'J', 'N', 'R', 'A', 'G', 'K', 'C', 'X', 'E', 'W', 'P', 'S', 'B', 'V']	[2911, 986, 1029, 1335, 1587, 697, 944, 1122, 829, 4000, 904, 2448, 1456, 1731, 760, 2245]	10	Present	NA	NA	PRESENT	0.29093289375305176	128.43583297729492	130.4410629272461	131.25773650800488	131.6077386537521	134.54756903648376	4.106506109237671	[128.44502997398376, 128.5616991519928, 129.5308940410614, 129.7128369808197, 130.46396112442017, 130.58060598373413, 130.69731998443604, 130.81413006782532, 130.93088603019714, 131.04750418663025, 131.1644811630249, 131.28102898597717, 131.39815711975098, 131.51463508605957, 131.6315779685974, 131.7482771873474, 131.8651111125946, 131.98183417320251, 132.0988461971283, 132.21559119224548, 132.33243918418884, 132.54756999015808]	[128.4437011897123, 128.5603678563723, 129.5433678563723, 129.7100678563723, 130.4600678563723, 130.5767345230323, 130.69340118969228, 130.81006785635228, 130.92673452301227, 131.04340118967227, 131.16006785633226, 131.27673452299226, 131.39340118965225, 131.51006785631225, 131.62673452297224, 131.74340118963224, 131.86006785629223, 131.97673452295223, 132.09340118961222, 132.21006785627222, 132.3267345229322, 132.56006785626553]	2021_Jan_19_1449	60.14460042731979	1	0.375
10	23	FALSE	NN	a	['J', 'P', 'G', 'H', 'Y', 'R', 'B', 'S', 'M', 'N', 'T', 'V', 'U', 'E', 'C', 'W']	[1029, 1456, 944, 986, 2670, 1587, 760, 1731, 1224, 1335, 1888, 2245, 2059, 904, 829, 2448]	13	Absent	NA	NA	ABSENT	0.43219590187072754	134.5588140487671	136.5573558807373	137.7240296998947	138.0740316072233	140.6639370918274	4.106581211090088	[134.56801104545593, 134.68490409851074, 135.6472611427307, 135.8191921710968, 136.58685398101807, 136.68681812286377, 136.80355715751648, 136.92034816741943, 137.03741812705994, 137.15408205986023, 137.27067399024963, 137.3877511024475, 137.50430703163147, 137.62122511863708, 137.73794507980347, 137.85467219352722, 137.9715051651001, 138.08835005760193, 138.20513200759888, 138.32200503349304, 138.43879318237305, 138.6639380455017]	[134.56006785626553, 134.67673452292553, 135.65973452292553, 135.82643452292552, 136.57643452292552, 136.69310118958552, 136.80976785624551, 136.9264345229055, 137.0431011895655, 137.1597678562255, 137.2764345228855, 137.3931011895455, 137.50976785620549, 137.62643452286548, 137.74310118952548, 137.85976785618547, 137.97643452284547, 138.09310118950546, 138.20976785616546, 138.32643452282545, 138.44310118948545, 138.67643452281877]	2021_Jan_19_1449	60.14460042731979	1	0.375
10	24	FALSE	NN	a	['B', 'P', 'C', 'U', 'Z', 'S', 'E', 'T', 'J', 'R', 'W', 'V', 'K', 'A', 'M', 'Y']	[760, 1456, 829, 2059, 2911, 1731, 904, 1888, 1029, 1587, 2448, 2245, 1122, 697, 1224, 2670]	12	Absent	NA	NA	ABSENT	0.3167250156402588	140.6655490398407	142.67367506027222	143.72368197435102	144.07368388167964	146.7803030014038	4.106627941131592	[140.67474603652954, 140.79130601882935, 141.76362800598145, 141.94253206253052, 142.6932671070099, 142.8101770877838, 142.92679119110107, 143.0437400341034, 143.16036009788513, 143.277193069458, 143.394061088562, 143.51082801818848, 143.62753105163574, 143.74440908432007, 143.86118817329407, 143.97789096832275, 144.0948121547699, 144.21163296699524, 144.3283030986786, 144.44519114494324, 144.56194019317627, 144.7803041934967]	[140.67643452281877, 140.79310118947876, 141.77610118947877, 141.94280118947876, 142.69280118947876, 142.80946785613875, 142.92613452279875, 143.04280118945874, 143.15946785611874, 143.27613452277873, 143.39280118943873, 143.50946785609872, 143.62613452275872, 143.7428011894187, 143.8594678560787, 143.9761345227387, 144.0928011893987, 144.2094678560587, 144.3261345227187, 144.44280118937868, 144.55946785603868, 144.792801189372]	2021_Jan_19_1449	60.14460042731979	1	0.375
10	25	FALSE	VA	a	['T', 'M', 'E', 'K', 'S', 'B', 'C', 'R', 'surprise', 'J', 'U', 'X', 'W', 'H', 'P', 'Y']	[1888, 1224, 904, 1122, 1731, 760, 829, 1587, 'stimAuditory/all_stimAuditory/212.wav', 1029, 2059, 4000, 2448, 986, 1456, 2670]	12	Present	NA	NA	PRESENT	0.3464081287384033	146.7886040210724	148.79002499580383	149.84003286355696	150.19003500930415	152.89667010307312	4.106645107269287	[146.7978000640869, 146.91436004638672, 147.87999320030212, 148.06566500663757, 148.81644201278687, 148.93308901786804, 149.05020904541016, 149.16716408729553, 149.28370213508606, 149.40044403076172, 149.51721119880676, 149.63373017311096, 149.75075006484985, 149.86771702766418, 149.98424100875854, 150.10101008415222, 150.21799111366272, 150.3178961277008, 150.43471002578735, 150.55142402648926, 150.66825318336487, 150.89667010307312]	[146.792801189372, 146.909467856032, 147.892467856032, 148.059167856032, 148.809167856032, 148.92583452269199, 149.04250118935198, 149.15916785601198, 149.27583452267197, 149.39250118933197, 149.50916785599196, 149.62583452265196, 149.74250118931195, 149.85916785597195, 149.97583452263194, 150.09250118929194, 150.20916785595193, 150.32583452261193, 150.44250118927192, 150.55916785593192, 150.6758345225919, 150.90916785592523]	2021_Jan_19_1449	60.14460042731979	1	0.375
10	26	FALSE	NA	a	['W', 'M', 'E', 'P', 'V', 'A', 'S', 'X', 'T', 'N', 'H', 'C', 'J', 'G', 'Y', 'U']	[2448, 1224, 904, 1456, 2245, 697, 1731, 4000, 1888, 1335, 986, 829, 1029, 944, 2670, 2059]	8	Present	NA	NA	PRESENT	0.4704668521881103	152.8947958946228	154.90647196769714	155.48981221513594	155.83981436088314	159.01303601264954	4.106564044952393	[152.9039921760559, 153.02091002464294, 153.99636101722717, 154.17209601402283, 154.9227809906006, 155.03979802131653, 155.15648317337036, 155.27344608306885, 155.389976978302, 155.50689005851746, 155.6235010623932, 155.74064111709595, 155.85716915130615, 155.97406816482544, 156.09077715873718, 156.20763611793518, 156.32435512542725, 156.4412260055542, 156.55804109573364, 156.67478799819946, 156.79164505004883, 157.01303696632385]	[152.90916785592523, 153.02583452258523, 154.00883452258523, 154.17553452258522, 154.92553452258522, 155.04220118924522, 155.1588678559052, 155.2755345225652, 155.3922011892252, 155.5088678558852, 155.6255345225452, 155.7422011892052, 155.85886785586518, 155.97553452252518, 156.09220118918518, 156.20886785584517, 156.32553452250517, 156.44220118916516, 156.55886785582516, 156.67553452248515, 156.79220118914515, 157.02553452247847]	2021_Jan_19_1449	60.14460042731979	1	0.375
10	27	FALSE	NN	a	['H', 'U', 'R', 'T', 'W', 'Y', 'K', 'M', 'S', 'P', 'E', 'Z', 'C', 'J', 'A', 'B']	[986, 2059, 1587, 1888, 2448, 2670, 1122, 1224, 1731, 1456, 904, 2911, 829, 1029, 697, 760]	12	Absent	NA	NA	ABSENT	0.5391380786895752	159.01804399490356	161.02290201187134	162.07290892595014	162.42291083327876	165.12940406799316	4.106502056121826	[159.0272400379181, 159.14409518241882, 160.11272597312927, 160.29553413391113, 161.04597306251526, 161.16272902488708, 161.27969908714294, 161.39654803276062, 161.5132930278778, 161.6298360824585, 161.74673509597778, 161.86356902122498, 161.9804241657257, 162.0970230102539, 162.2140281200409, 162.33073806762695, 162.4475860595703, 162.5643870830536, 162.68109798431396, 162.7979290485382, 162.91477608680725, 163.12940311431885]	[159.02553452247847, 159.14220118913846, 160.12520118913847, 160.29190118913846, 161.04190118913846, 161.15856785579845, 161.27523452245845, 161.39190118911844, 161.50856785577844, 161.62523452243843, 161.74190118909843, 161.85856785575842, 161.97523452241842, 162.0919011890784, 162.2085678557384, 162.3252345223984, 162.4419011890584, 162.5585678557184, 162.6752345223784, 162.79190118903838, 162.90856785569838, 163.1419011890317]	2021_Jan_19_1449	60.14460042731979	1	0.375
10	28	FALSE	NV	a	['H', 'G', 'R', 'Y', 'B', 'N', 'J', 'M', 'P', 'E', 'U', 'K', 'X', 'T', 'C', 'S']	[986, 944, 1587, 2670, 760, 1335, 1029, 1224, 1456, 904, 2059, 1122, 4000, 1888, 829, 1731]	13	Present	NA	NA	PRESENT	0.35231900215148926	165.1413049697876	167.1391270160675	168.30580155048062	168.65580369622782	171.24576902389526	4.106642007827759	[165.15050101280212, 165.26735496520996, 166.2290940284729, 166.40157008171082, 167.16941118240356, 167.26935005187988, 167.38600206375122, 167.50292301177979, 167.61954617500305, 167.73648715019226, 167.85314512252808, 167.96986413002014, 168.0866801738739, 168.2036371231079, 168.32037019729614, 168.4370629787445, 168.55396103858948, 168.67084503173828, 168.78759217262268, 168.90421414375305, 169.02128100395203, 169.24576902389526]	[165.1419011890317, 165.2585678556917, 166.2415678556917, 166.4082678556917, 167.1582678556917, 167.27493452235169, 167.39160118901168, 167.50826785567168, 167.62493452233167, 167.74160118899167, 167.85826785565166, 167.97493452231166, 168.09160118897165, 168.20826785563165, 168.32493452229164, 168.44160118895164, 168.55826785561163, 168.67493452227163, 168.79160118893162, 168.90826785559162, 169.0249345222516, 169.25826785558493]	2021_Jan_19_1449	60.14460042731979	1	0.375
10	29	FALSE	NN	a	['J', 'T', 'G', 'P', 'R', 'S', 'W', 'M', 'A', 'B', 'H', 'N', 'Z', 'V', 'U', 'Y']	[1029, 1888, 944, 1456, 1587, 1731, 2448, 1224, 697, 760, 986, 1335, 2911, 2245, 2059, 2670]	9	Absent	NA	NA	ABSENT	0.28505396842956543	171.2479169368744	173.25561499595642	173.9556219100552	174.30562405580244	177.3621370792389	4.106522083282471	[171.2571141719818, 171.3738021850586, 172.3454601764679, 172.52500200271606, 173.27559113502502, 173.3926739692688, 173.50931310653687, 173.62604999542236, 173.74287009239197, 173.85949897766113, 173.9764289855957, 174.09327912330627, 174.20994114875793, 174.32668805122375, 174.44358897209167, 174.56024718284607, 174.67724204063416, 174.79381203651428, 174.9108121395111, 175.02743005752563, 175.14430499076843, 175.3621370792389]	[171.25826785558493, 171.37493452224493, 172.35793452224493, 172.52463452224492, 173.27463452224492, 173.39130118890492, 173.5079678555649, 173.6246345222249, 173.7413011888849, 173.8579678555449, 173.9746345222049, 174.0913011888649, 174.20796785552488, 174.32463452218488, 174.44130118884488, 174.55796785550487, 174.67463452216487, 174.79130118882486, 174.90796785548486, 175.02463452214485, 175.14130118880485, 175.37463452213817]	2021_Jan_19_1449	60.14460042731979	1	0.375
10	30	FALSE	NN	a	['Z', 'E', 'P', 'H', 'W', 'U', 'R', 'J', 'T', 'S', 'C', 'M', 'Y', 'N', 'A', 'G']	[2911, 904, 1456, 986, 2448, 2059, 1587, 1029, 1888, 1731, 829, 1224, 2670, 1335, 697, 944]	8	Absent	NA	NA	ABSENT	0.5064489841461182	177.37083792686462	179.37187504768372	179.9552152951225	180.30521720245113	183.4785029888153	4.106627941131592	[177.38003396987915, 177.49665808677673, 178.46182703971863, 178.6481590270996, 179.39887619018555, 179.51557898521423, 179.63254809379578, 179.74919605255127, 179.8659200668335, 179.9827811717987, 180.0995659828186, 180.21634817123413, 180.33302307128906, 180.43314719200134, 180.5498960018158, 180.66671800613403, 180.7834391593933, 180.9005241394043, 181.01705503463745, 181.1338291168213, 181.2507300376892, 181.4785029888153]	[177.37463452213817, 177.49130118879816, 178.47430118879817, 178.64100118879816, 179.39100118879816, 179.50766785545815, 179.62433452211815, 179.74100118877814, 179.85766785543814, 179.97433452209813, 180.09100118875813, 180.20766785541812, 180.32433452207812, 180.4410011887381, 180.5576678553981, 180.6743345220581, 180.7910011887181, 180.9076678553781, 181.0243345220381, 181.14100118869808, 181.25766785535808, 181.4910011886914]	2021_Jan_19_1449	60.14460042731979	1	0.375
10	31	FALSE	NV	a	['E', 'G', 'Y', 'S', 'N', 'Z', 'C', 'P', 'H', 'K', 'X', 'W', 'B', 'R', 'V', 'M']	[904, 944, 2670, 1731, 1335, 2911, 829, 1456, 986, 1122, 4000, 2448, 760, 1587, 2245, 1224]	11	Present	NA	NA	PRESENT	0.35077404975891113	183.47741293907168	185.4884648323059	186.4218062718176	186.77180817914623	189.59487009048465	4.106405258178711	[183.48660898208618, 183.6034209728241, 184.57819414138794, 184.7545599937439, 185.5052809715271, 185.62211108207703, 185.73892307281494, 185.85546112060547, 185.9723629951477, 186.0891671180725, 186.20597505569458, 186.32259917259216, 186.43949604034424, 186.55627012252808, 186.67320203781128, 186.79015111923218, 186.906898021698, 187.02349615097046, 187.14044404029846, 187.2571051120758, 187.3740041255951, 187.5948691368103]	[183.4910011886914, 183.6076678553514, 184.5906678553514, 184.7573678553514, 185.5073678553514, 185.62403452201139, 185.74070118867138, 185.85736785533138, 185.97403452199137, 186.09070118865137, 186.20736785531136, 186.32403452197136, 186.44070118863135, 186.55736785529135, 186.67403452195134, 186.79070118861134, 186.90736785527133, 187.02403452193133, 187.14070118859132, 187.25736785525132, 187.3740345219113, 187.60736785524463]	2021_Jan_19_1449	60.14460042731979	1	0.375
10	32	FALSE	NA	a	['P', 'G', 'U', 'B', 'Z', 'N', 'M', 'Y', 'V', 'T', 'J', 'W', 'X', 'E', 'A', 'C']	[1456, 944, 2059, 760, 2911, 1335, 1224, 2670, 2245, 1888, 1029, 2448, 4000, 904, 697, 829]	13	Present	NA	NA	PRESENT	1.627331018447876	189.60032892227173	191.6045918464661	192.77126757297208	193.1212706723936	195.71123719215393	4.106645345687866	[189.60952615737915, 189.72645616531372, 190.69456315040588, 190.8778920173645, 191.62843918800354, 191.74527502059937, 191.86203002929688, 191.97860717773438, 192.09563899040222, 192.21229314804077, 192.32919216156006, 192.44598603248596, 192.5628809928894, 192.67945504188538, 192.79648518562317, 192.9131350517273, 193.0298249721527, 193.14669513702393, 193.2634081840515, 193.3803060054779, 193.49707412719727, 193.71123719215393]	[189.60736785524463, 189.72403452190463, 190.70703452190463, 190.87373452190462, 191.62373452190462, 191.74040118856462, 191.8570678552246, 191.9737345218846, 192.0904011885446, 192.2070678552046, 192.3237345218646, 192.4404011885246, 192.55706785518458, 192.67373452184458, 192.79040118850457, 192.90706785516457, 193.02373452182457, 193.14040118848456, 193.25706785514456, 193.37373452180455, 193.49040118846455, 193.72373452179787]	2021_Jan_19_1449	60.14460042731979	1	0.375
10	33	FALSE	NV	a	['A', 'H', 'E', 'J', 'U', 'P', 'G', 'Y', 'Z', 'T', 'K', 'R', 'X', 'N', 'B', 'M']	[697, 986, 904, 1029, 2059, 1456, 944, 2670, 2911, 1888, 1122, 1587, 4000, 1335, 760, 1224]	13	Present	NA	NA	ABSENT	1.3286900520324707	195.72355794906616	197.72107982635495	198.88775459918668	199.2377565065153	201.82760310173035	4.106523275375366	[195.7327539920807, 195.83274507522583, 196.81092715263367, 196.98396396636963, 197.73472905158997, 197.8516800403595, 197.96830701828003, 198.08522701263428, 198.201984167099, 198.31885719299316, 198.43553709983826, 198.55228519439697, 198.66914916038513, 198.7861201763153, 198.90279006958008, 199.0196750164032, 199.1365029811859, 199.25307416915894, 199.36999106407166, 199.48674511909485, 199.6035521030426, 199.82760310173035]	[195.72373452179787, 195.84040118845786, 196.82340118845786, 196.99010118845786, 197.74010118845786, 197.85676785511785, 197.97343452177785, 198.09010118843784, 198.20676785509784, 198.32343452175783, 198.44010118841783, 198.55676785507782, 198.67343452173782, 198.7901011883978, 198.9067678550578, 199.0234345217178, 199.1401011883778, 199.2567678550378, 199.3734345216978, 199.49010118835778, 199.60676785501778, 199.8401011883511]	2021_Jan_19_1449	60.14460042731979	1	0.375
10	34	FALSE	AV	a	['E', 'K', 'U', 'Z', 'R', 'B', 'W', 'A', 'surprise', 'P', 'N', 'X', 'M', 'C', 'G', 'H']	[904, 1122, 2059, 2911, 1587, 760, 2448, 697, 'stimAuditory/all_stimAuditory/219.wav', 1456, 1335, 4000, 1224, 829, 944, 986]	12	Present	stimAuditory/all_stimAuditory/117.wav	NA	PRESENT	0.5173389911651611	201.8300700187683	203.83726286888125	204.8872700213786	205.23727192870723	207.94396901130676	4.106706142425537	[201.83926606178284, 201.95601415634155, 202.9272940158844, 203.1072061061859, 203.85804414749146, 203.9747190475464, 204.091637134552, 204.20822715759277, 204.32526302337646, 204.4420680999756, 204.55889701843262, 204.67541813850403, 204.79245805740356, 204.90901517868042, 205.0257911682129, 205.1427459716797, 205.25963497161865, 205.37625217437744, 205.49315404891968, 205.6098861694336, 205.7268409729004, 205.94396901130676]	[201.8401011883511, 201.9567678550111, 202.9397678550111, 203.1064678550111, 203.8564678550111, 203.97313452167108, 204.08980118833108, 204.20646785499108, 204.32313452165107, 204.43980118831107, 204.55646785497106, 204.67313452163106, 204.78980118829105, 204.90646785495105, 205.02313452161104, 205.13980118827104, 205.25646785493103, 205.37313452159103, 205.48980118825102, 205.60646785491102, 205.723134521571, 205.95646785490433]	2021_Jan_19_1449	60.14460042731979	1	0.375
10	35	FALSE	NV	a	['Z', 'W', 'K', 'H', 'Y', 'R', 'N', 'M', 'T', 'S', 'X', 'G', 'J', 'C', 'V', 'A']	[2911, 2448, 1122, 986, 2670, 1587, 1335, 1224, 1888, 1731, 4000, 944, 1029, 829, 2245, 697]	11	Present	NA	NA	PRESENT	0.24242305755615232	207.95326495170593	209.95382404327393	210.88716524436705	211.23716739011425	214.06033611297607	4.106512069702148	[207.96246218681335, 208.07910919189453, 209.04365801811218, 209.2305030822754, 209.98151206970215, 210.09806108474731, 210.21466708183289, 210.3146870136261, 210.43152809143066, 210.54834413528442, 210.6651690006256, 210.7819221019745, 210.89891600608826, 211.01544904708862, 211.13223314285278, 211.24904608726501, 211.36587715148926, 211.48285818099976, 211.59942317008972, 211.716322183609, 211.83324599266052, 212.0603370666504]	[207.95646785490433, 208.07313452156433, 209.05613452156433, 209.22283452156432, 209.97283452156432, 210.08950118822432, 210.2061678548843, 210.3228345215443, 210.4395011882043, 210.5561678548643, 210.6728345215243, 210.7895011881843, 210.90616785484428, 211.02283452150428, 211.13950118816427, 211.25616785482427, 211.37283452148426, 211.48950118814426, 211.60616785480426, 211.72283452146425, 211.83950118812425, 212.07283452145757]	2021_Jan_19_1449	60.14460042731979	1	0.375
10	36	FALSE	NV	a	['S', 'Y', 'P', 'J', 'E', 'U', 'K', 'W', 'R', 'X', 'M', 'H', 'Z', 'C', 'V', 'N']	[1731, 2670, 1456, 1029, 904, 2059, 1122, 2448, 1587, 4000, 1224, 986, 2911, 829, 2245, 1335]	10	Present	NA	NA	PRESENT	0.2789878845214844	214.0595920085907	216.0701010227203	216.88677555715344	217.23677770290067	220.1767029762268	4.10660195350647	[214.06879019737244, 214.18568205833435, 215.16003012657166, 215.33675599098206, 216.08760714530945, 216.20433712005615, 216.3211431503296, 216.43804597854614, 216.55479407310486, 216.67170000076294, 216.78844904899597, 216.90511012077332, 217.0221471786499, 217.13876509666443, 217.25573897361755, 217.372318983078, 217.48927211761475, 217.60590815544128, 217.72288703918457, 217.83948612213135, 217.9564290046692, 218.17670512199402]	[214.07283452145757, 214.18950118811756, 215.17250118811756, 215.33920118811756, 216.08920118811756, 216.20586785477755, 216.32253452143755, 216.43920118809754, 216.55586785475754, 216.67253452141753, 216.78920118807753, 216.90586785473752, 217.02253452139752, 217.1392011880575, 217.2558678547175, 217.3725345213775, 217.4892011880375, 217.6058678546975, 217.7225345213575, 217.83920118801748, 217.95586785467748, 218.1892011880108]	2021_Jan_19_1449	60.14460042731979	1	0.375
10	37	FALSE	NA	a	['H', 'C', 'S', 'E', 'W', 'G', 'M', 'P', 'K', 'X', 'J', 'T', 'B', 'N', 'V', 'U']	[986, 829, 1731, 904, 2448, 944, 1224, 1456, 1122, 4000, 1029, 1888, 760, 1335, 2245, 2059]	10	Present	NA	NA	PRESENT	0.5159060955047607	220.18281602859497	222.18664383888245	223.00331861173413	223.3533205190628	226.29307007789612	4.106426239013672	[220.1920130252838, 220.30880904197693, 221.27639603614807, 221.4604480266571, 222.2108771800995, 222.32751417160034, 222.44430303573608, 222.56102299690247, 222.67805099487305, 222.79471802711487, 222.91148400306702, 223.02834701538086, 223.14520406723022, 223.2618911266327, 223.378653049469, 223.49559807777405, 223.61228013038635, 223.72936415672302, 223.84592700004578, 223.9628131389618, 224.07962703704834, 224.29307103157043]	[220.1892011880108, 220.3058678546708, 221.2888678546708, 221.4555678546708, 222.2055678546708, 222.32223452133078, 222.43890118799078, 222.55556785465077, 222.67223452131077, 222.78890118797077, 222.90556785463076, 223.02223452129076, 223.13890118795075, 223.25556785461075, 223.37223452127074, 223.48890118793074, 223.60556785459073, 223.72223452125073, 223.83890118791072, 223.95556785457072, 224.0722345212307, 224.30556785456403]	2021_Jan_19_1449	60.14460042731979	1	0.375
10	38	FALSE	NN	a	['N', 'S', 'E', 'V', 'W', 'Z', 'C', 'R', 'M', 'K', 'B', 'A', 'Y', 'G', 'T', 'H']	[1335, 1731, 904, 2245, 2448, 2911, 829, 1587, 1224, 1122, 760, 697, 2670, 944, 1888, 986]	14	Absent	NA	NA	PRESENT	0.5208961963653564	226.28921794891355	228.30296683311465	229.58630827260632	229.93631017993496	232.40943598747253	4.10646915435791	[226.2984139919281, 226.41507005691528, 227.39275908470154, 227.56634402275085, 228.3171091079712, 228.4338891506195, 228.55069303512573, 228.66779017448425, 228.78439903259277, 228.90101504325867, 229.01808905601501, 229.13482904434204, 229.2516691684723, 229.36827206611633, 229.48533010482788, 229.60200715065002, 229.7188470363617, 229.8354320526123, 229.95240211486816, 230.06917214393616, 230.18599319458008, 230.40943717956543]	[226.30556785456403, 226.42223452122403, 227.40523452122403, 227.57193452122402, 228.32193452122402, 228.43860118788402, 228.555267854544, 228.671934521204, 228.788601187864, 228.905267854524, 229.021934521184, 229.138601187844, 229.25526785450398, 229.37193452116398, 229.48860118782397, 229.60526785448397, 229.72193452114396, 229.83860118780396, 229.95526785446395, 230.07193452112395, 230.18860118778395, 230.42193452111727]	2021_Jan_19_1449	60.14460042731979	1	0.375
10	39	FALSE	NV	a	['H', 'C', 'E', 'G', 'P', 'U', 'V', 'R', 'X', 'S', 'N', 'K', 'T', 'M', 'W', 'Z']	[986, 829, 904, 944, 1456, 2059, 2245, 1587, 4000, 1731, 1335, 1122, 1888, 1224, 2448, 2911]	9	Present	NA	NA	ABSENT	1.7093961238861084	232.4125230312347	234.4189820289612	235.1189898967343	235.46899204248152	238.52580308914185	4.106821060180664	[232.42171907424927, 232.53847813606262, 233.50912809371948, 233.68964505195618, 234.44045400619507, 234.55706214904785, 234.6739730834961, 234.79057216644287, 234.90767908096313, 235.0243740081787, 235.14116501808167, 235.25794315338135, 235.37477803230286, 235.49144196510315, 235.60826516151428, 235.72526812553406, 235.8420751094818, 235.95876002311707, 236.07567501068115, 236.19225215911865, 236.30919003486633, 236.52580308914185]	[232.42193452111727, 232.53860118777726, 233.52160118777726, 233.68830118777726, 234.43830118777726, 234.55496785443725, 234.67163452109725, 234.78830118775724, 234.90496785441724, 235.02163452107723, 235.13830118773723, 235.25496785439722, 235.37163452105722, 235.4883011877172, 235.6049678543772, 235.7216345210372, 235.8383011876972, 235.9549678543572, 236.0716345210172, 236.18830118767718, 236.30496785433718, 236.5383011876705]	2021_Jan_19_1449	60.14460042731979	1	0.375
10	40	FALSE	AV	a	['T', 'U', 'H', 'Z', 'E', 'surprise', 'S', 'V', 'X', 'N', 'J', 'B', 'A', 'R', 'P', 'M']	[1888, 2059, 986, 2911, 904, 'stimAuditory/all_stimAuditory/116.wav', 1731, 2245, 4000, 1335, 1029, 760, 697, 1587, 1456, 1224]	9	Present	stimAuditory/all_stimAuditory/212.wav	NA	PRESENT	0.0988321304321289	238.53574395179749	240.53579688072205	241.2358049869137	241.5858068942424	244.64216899871823	4.106372117996216	[238.544939994812, 238.66168904304504, 239.6254940032959, 239.81285619735718, 240.56348299980164, 240.66352319717407, 240.7803189754486, 240.89744019508362, 241.01388502120972, 241.13067817687988, 241.24745297431946, 241.36426401138306, 241.48126411437988, 241.59792399406433, 241.71492314338684, 241.8315191268921, 241.9484441280365, 242.06512117385864, 242.1819350719452, 242.29870319366455, 242.41563510894775, 242.64217019081116]	[238.5383011876705, 238.6549678543305, 239.6379678543305, 239.8046678543305, 240.5546678543305, 240.67133452099048, 240.78800118765048, 240.90466785431047, 241.02133452097047, 241.13800118763046, 241.25466785429046, 241.37133452095046, 241.48800118761045, 241.60466785427045, 241.72133452093044, 241.83800118759044, 241.95466785425043, 242.07133452091043, 242.18800118757042, 242.30466785423042, 242.4213345208904, 242.65466785422373]	2021_Jan_19_1449	60.14460042731979	1	0.375
10	41	FALSE	NN	a	['R', 'G', 'M', 'K', 'J', 'E', 'Y', 'V', 'W', 'N', 'A', 'U', 'P', 'C', 'T', 'S']	[1587, 944, 1224, 1122, 1029, 904, 2670, 2245, 2448, 1335, 697, 2059, 1456, 829, 1888, 1731]	13	Absent	NA	NA	ABSENT	0.14349603652954102	244.64201593399048	246.6517150402069	247.8183886209457	248.16839052827433	250.7585370540619	4.1068220138549805	[244.651211977005, 244.7679250240326, 245.7418611049652, 245.91926407814026, 246.67010116577148, 246.7867031097412, 246.90347599983215, 247.02027106285095, 247.13731908798218, 247.25391697883606, 247.3708951473236, 247.48741912841797, 247.60428500175476, 247.72130799293518, 247.83793902397156, 247.95469307899475, 248.0716769695282, 248.1882040500641, 248.30525016784668, 248.4218771457672, 248.5387580394745, 248.7585370540619]	[244.65466785422373, 244.77133452088373, 245.75433452088373, 245.92103452088372, 246.67103452088372, 246.78770118754372, 246.9043678542037, 247.0210345208637, 247.1377011875237, 247.2543678541837, 247.3710345208437, 247.4877011875037, 247.60436785416368, 247.72103452082368, 247.83770118748367, 247.95436785414367, 248.07103452080366, 248.18770118746366, 248.30436785412365, 248.42103452078365, 248.53770118744364, 248.77103452077696]	2021_Jan_19_1449	60.14460042731979	1	0.375
10	42	FALSE	NN	a	['M', 'P', 'T', 'Z', 'J', 'R', 'C', 'E', 'A', 'G', 'B', 'S', 'Y', 'H', 'N', 'K']	[1224, 1456, 1888, 2911, 1029, 1587, 829, 904, 697, 944, 760, 1731, 2670, 986, 1335, 1122]	8	Absent	NA	NA	ABSENT	0.5239889621734619	250.7650530338287	252.76866483688352	253.35200723008955	253.70200937583675	256.8749029636383	4.106238126754761	[250.77424907684326, 250.89153003692627, 251.85822796821594, 252.04258608818054, 252.79291605949402, 252.90993404388428, 253.02675604820251, 253.14367699623108, 253.2603621482849, 253.3771960735321, 253.49392700195312, 253.61070799827576, 253.72760915756226, 253.84448504447937, 253.9609739780426, 254.07792806625366, 254.1948401927948, 254.3115530014038, 254.42810201644897, 254.54514718055725, 254.66206002235413, 254.8749029636383]	[250.77103452077696, 250.88770118743696, 251.87070118743696, 252.03740118743696, 252.78740118743696, 252.90406785409695, 253.02073452075695, 253.13740118741694, 253.25406785407694, 253.37073452073693, 253.48740118739693, 253.60406785405692, 253.72073452071692, 253.8374011873769, 253.9540678540369, 254.0707345206969, 254.1874011873569, 254.3040678540169, 254.4207345206769, 254.53740118733688, 254.65406785399688, 254.8874011873302]	2021_Jan_19_1449	60.14460042731979	1	0.375
10	43	FALSE	NN	a	['C', 'T', 'R', 'H', 'B', 'E', 'Z', 'K', 'A', 'J', 'P', 'M', 'W', 'N', 'Y', 'U']	[829, 1888, 1587, 986, 760, 904, 2911, 1122, 697, 1029, 1456, 1224, 2448, 1335, 2670, 2059]	13	Absent	NA	NA	ABSENT	0.5369081497192383	256.87143182754517	258.8847060203552	260.05138055476834	260.40138270051557	262.9912691116333	4.106563091278076	[256.88062810897827, 256.99767303466797, 257.97459411621094, 258.14881896972656, 258.8995289802551, 259.01643419265747, 259.1332800388336, 259.2500810623169, 259.36688208580017, 259.483519077301, 259.6003329753876, 259.7170670032501, 259.83405017852783, 259.95063996315, 260.06759905815125, 260.18421697616577, 260.30107617378235, 260.4178931713104, 260.534893989563, 260.6515221595764, 260.7684190273285, 260.9912691116333]	[256.88740118733017, 257.0040678539902, 257.9870678539902, 258.1537678539902, 258.9037678539902, 259.0204345206502, 259.13710118731024, 259.25376785397026, 259.3704345206303, 259.4871011872903, 259.60376785395033, 259.72043452061035, 259.8371011872704, 259.9537678539304, 260.0704345205904, 260.18710118725045, 260.3037678539105, 260.4204345205705, 260.5371011872305, 260.65376785389054, 260.77043452055057, 261.0037678538839]	2021_Jan_19_1449	60.14460042731979	1	0.375
10	44	FALSE	NN	a	['Y', 'T', 'E', 'V', 'H', 'W', 'S', 'B', 'M', 'R', 'G', 'C', 'Z', 'U', 'K', 'A']	[2670, 1888, 904, 2245, 986, 2448, 1731, 760, 1224, 1587, 944, 829, 2911, 2059, 1122, 697]	10	Absent	NA	NA	ABSENT	0.6458430290222168	262.99472999572754	265.0012810230255	265.8179546037843	266.16795651111295	269.10763812065125	4.106357097625732	[263.0039269924164, 263.1205849647522, 264.09095907211304, 264.27215814590454, 265.0226950645447, 265.1396071910858, 265.2563970088959, 265.37321615219116, 265.4899671077728, 265.6065981388092, 265.72359800338745, 265.84027910232544, 265.9570391178131, 266.07391810417175, 266.1904830932617, 266.3075489997864, 266.424378156662, 266.54096508026123, 266.6578061580658, 266.7748420238495, 266.8916230201721, 267.10763597488403]	[263.0037678538839, 263.12043452054394, 264.10343452054394, 264.27013452054393, 265.02013452054393, 265.13680118720396, 265.253467853864, 265.370134520524, 265.486801187184, 265.60346785384405, 265.7201345205041, 265.8368011871641, 265.9534678538241, 266.07013452048415, 266.18680118714417, 266.3034678538042, 266.4201345204642, 266.53680118712424, 266.65346785378426, 266.7701345204443, 266.8868011871043, 267.12013452043766]	2021_Jan_19_1449	60.14460042731979	1	0.375
10	45	FALSE	NA	a	['J', 'M', 'S', 'N', 'C', 'Y', 'R', 'B', 'W', 'T', 'E', 'K', 'A', 'X', 'Z', 'P']	[1029, 1224, 1731, 1335, 829, 2670, 1587, 760, 2448, 1888, 904, 1122, 697, 4000, 2911, 1456]	14	Present	NA	NA	PRESENT	0.35514092445373535	269.11793994903564	271.11747789382935	272.400819333321	272.75082124064966	275.22400403022766	4.106526136398315	[269.12713599205017, 269.24387311935425, 270.207328081131, 270.3953101634979, 271.14624404907227, 271.2458391189575, 271.36272501945496, 271.47946310043335, 271.59632205963135, 271.7131199836731, 271.8298361301422, 271.94688296318054, 272.0634980201721, 272.1803991794586, 272.29708099365234, 272.41389203071594, 272.53080797195435, 272.6474859714508, 272.7644510269165, 272.8810501098633, 272.99795413017273, 273.224004983902]	[269.12013452043766, 269.2368011870977, 270.2198011870977, 270.3865011870977, 271.1365011870977, 271.2531678537577, 271.3698345204177, 271.48650118707775, 271.6031678537378, 271.7198345203978, 271.8365011870578, 271.95316785371784, 272.06983452037787, 272.1865011870379, 272.3031678536979, 272.41983452035794, 272.53650118701796, 272.653167853678, 272.769834520338, 272.88650118699803, 273.00316785365806, 273.2365011869914]	2021_Jan_19_1449	60.14460042731979	1	0.375
10	46	FALSE	VN	a	['P', 'Y', 'C', 'K', 'Z', 'M', 'U', 'V', 'surprise', 'A', 'S', 'R', 'T', 'N', 'W', 'J']	[1456, 2670, 829, 1122, 2911, 1224, 2059, 2245, 'stimAuditory/all_stimAuditory/224.wav', 697, 1731, 1587, 1888, 1335, 2448, 1029]	12	Absent	NA	NA	ABSENT	0.37574291229248047	275.22431683540344	277.23386788368225	278.2838750361796	278.63387694350826	281.34036898612976	4.10650110244751	[275.23351311683655, 275.3504230976105, 276.3236939907074, 276.50170707702637, 277.25237798690796, 277.3692500591278, 277.4860920906067, 277.60269117355347, 277.7196521759033, 277.83629512786865, 277.95317816734314, 278.0698461532593, 278.1865270137787, 278.3034031391144, 278.420371055603, 278.5371000766754, 278.6537799835205, 278.77070903778076, 278.8875780105591, 279.0043921470642, 279.12115812301636, 279.34037017822266]	[275.2365011869914, 275.3531678536514, 276.33616785365143, 276.5028678536514, 277.2528678536514, 277.36953452031145, 277.48620118697147, 277.6028678536315, 277.7195345202915, 277.83620118695154, 277.95286785361156, 278.0695345202716, 278.1862011869316, 278.30286785359164, 278.41953452025166, 278.5362011869117, 278.6528678535717, 278.76953452023173, 278.88620118689175, 279.0028678535518, 279.1195345202118, 279.35286785354515]	2021_Jan_19_1449	60.14460042731979	1	0.375
10	47	FALSE	NV	a	['T', 'M', 'K', 'V', 'J', 'E', 'C', 'W', 'Z', 'X', 'U', 'B', 'P', 'G', 'Y', 'N']	[1888, 1224, 1122, 2245, 1029, 904, 829, 2448, 2911, 4000, 2059, 760, 1456, 944, 2670, 1335]	10	Present	NA	NA	PRESENT	0.22845888137817383	281.34778690338135	283.3501830101013	284.1668565908601	284.51685849818875	287.4567370414734	4.10655403137207	[281.35698318481445, 281.4733781814575, 282.4400610923767, 282.624783039093, 283.3754291534424, 283.4922499656677, 283.6090521812439, 283.7258491516113, 283.842493057251, 283.9596040248871, 284.07637906074524, 284.1930739879608, 284.3097879886627, 284.42676305770874, 284.54339599609375, 284.6606411933899, 284.7771360874176, 284.89382004737854, 285.0105531215668, 285.1275110244751, 285.24435806274414, 285.4567360877991]	[281.35286785354515, 281.4695345202052, 282.4525345202052, 282.61923452020517, 283.36923452020517, 283.4859011868652, 283.6025678535252, 283.71923452018524, 283.83590118684526, 283.9525678535053, 284.0692345201653, 284.18590118682533, 284.30256785348536, 284.4192345201454, 284.5359011868054, 284.6525678534654, 284.76923452012545, 284.8859011867855, 285.0025678534455, 285.1192345201055, 285.23590118676555, 285.4692345200989]	2021_Jan_19_1449	60.14460042731979	1	0.375
10	48	FALSE	NA	a	['V', 'H', 'Y', 'E', 'A', 'C', 'N', 'Z', 'X', 'W', 'J', 'U', 'G', 'B', 'T', 'S']	[2245, 986, 2670, 904, 697, 829, 1335, 2911, 4000, 2448, 1029, 2059, 944, 760, 1888, 1731]	9	Present	NA	NA	PRESENT	0.153594970703125	287.453763961792	289.46666193008423	290.16666884418305	290.5166709899302	293.5731031894684	4.106441259384155	[287.4629600048065, 287.5797851085663, 288.5564250946045, 288.73109102249146, 289.4818890094757, 289.598708152771, 289.7157130241394, 289.83219504356384, 289.94914412498474, 290.06601214408875, 290.1826910972595, 290.2994341850281, 290.4164481163025, 290.5330741405487, 290.6500790119171, 290.7666790485382, 290.8839421272278, 291.00033497810364, 291.1171340942383, 291.23395800590515, 291.3506290912628, 291.5731041431427]	[287.4692345200989, 287.5859011867589, 288.5689011867589, 288.7356011867589, 289.4856011867589, 289.60226785341894, 289.71893452007896, 289.835601186739, 289.952267853399, 290.06893452005903, 290.18560118671905, 290.3022678533791, 290.4189345200391, 290.5356011866991, 290.65226785335915, 290.7689345200192, 290.8856011866792, 291.0022678533392, 291.11893451999924, 291.23560118665927, 291.3522678533193, 291.58560118665264]	2021_Jan_19_1449	60.14460042731979	1	0.375
10	49	FALSE	NV	a	['E', 'N', 'V', 'A', 'M', 'R', 'P', 'K', 'J', 'C', 'G', 'B', 'H', 'X', 'Y', 'Z']	[904, 1335, 2245, 697, 1224, 1587, 1456, 1122, 1029, 829, 944, 760, 986, 4000, 2670, 2911]	14	Present	NA	NA	PRESENT	0.3741941452026367	293.57717394828796	295.58287596702576	296.86621716809884	297.21621836017175	299.6894700527191	4.106594085693359	[293.5863699913025, 293.70317697525024, 294.67279505729675, 294.85448813438416, 295.6050570011139, 295.7217800617218, 295.8387801647186, 295.9553689956665, 296.07242703437805, 296.18897819519043, 296.30574011802673, 296.4228069782257, 296.5394129753113, 296.65630197525024, 296.77312111854553, 296.89001417160034, 297.0067369937897, 297.1234951019287, 297.240198135376, 297.3570520877838, 297.4738299846649, 297.68947100639343]	[293.58560118665264, 293.70226785331266, 294.68526785331267, 294.85196785331266, 295.60196785331266, 295.7186345199727, 295.8353011866327, 295.95196785329273, 296.06863451995275, 296.1853011866128, 296.3019678532728, 296.4186345199328, 296.53530118659285, 296.65196785325287, 296.7686345199129, 296.8853011865729, 297.00196785323294, 297.11863451989296, 297.235301186553, 297.351967853213, 297.46863451987304, 297.7019678532064]	2021_Jan_19_1449	60.14460042731979	1	0.375
10	50	FALSE	NN	a	['R', 'A', 'J', 'E', 'Y', 'S', 'U', 'T', 'W', 'V', 'P', 'H', 'N', 'G', 'B', 'C']	[1587, 697, 1029, 904, 2670, 1731, 2059, 1888, 2448, 2245, 1456, 986, 1335, 944, 760, 829]	12	Absent	NA	NA	ABSENT	0.7153120040893555	299.700443983078	301.6994528770447	302.74946098321635	303.099462890545	305.80583596229553	4.1063830852508545	[299.70964097976685, 299.826131105423, 300.78916215896606, 300.96103501319885, 301.72832107543945, 301.8281919956207, 301.9450931549072, 302.0618441104889, 302.17861914634705, 302.2954339981079, 302.4123740196228, 302.52902817726135, 302.64607214927673, 302.76294898986816, 302.8796319961548, 302.9961771965027, 303.1129961013794, 303.2298381328583, 303.3467381000519, 303.4633979797363, 303.58009600639343, 303.80583596229553]	[299.7019678532064, 299.8186345198664, 300.8016345198664, 300.9683345198664, 301.7183345198664, 301.8350011865264, 301.95166785318645, 302.0683345198465, 302.1850011865065, 302.3016678531665, 302.41833451982654, 302.53500118648657, 302.6516678531466, 302.7683345198066, 302.88500118646664, 303.00166785312666, 303.1183345197867, 303.2350011864467, 303.35166785310673, 303.46833451976676, 303.5850011864268, 303.8183345197601]	2021_Jan_19_1449	60.14460042731979	1	0.375
10	51	FALSE	AV	a	['E', 'Y', 'M', 'G', 'A', 'P', 'K', 'surprise', 'N', 'C', 'X', 'U', 'J', 'V', 'R', 'S']	[904, 2670, 1224, 944, 697, 1456, 1122, 'stimAuditory/all_stimAuditory/109.wav', 1335, 829, 4000, 2059, 1029, 2245, 1587, 1731]	11	Present	stimAuditory/all_stimAuditory/219.wav	NA	PRESENT	0.1759169101715088	305.806697845459	307.8156268596649	308.74896925285094	309.09897116017953	311.92220401763916	4.106577157974243	[305.8159031867981, 305.9328181743622, 306.9055299758911, 307.0839960575104, 307.8346610069275, 307.95146799087524, 308.06816005706787, 308.1849830150604, 308.30183601379395, 308.41869616508484, 308.53565096855164, 308.6522409915924, 308.769150018692, 308.88594818115234, 309.0027370452881, 309.11960911750793, 309.23617005348206, 309.3531491756439, 309.4697160720825, 309.58666610717773, 309.70331716537476, 309.92220306396484]	[305.8183345197601, 305.93500118642015, 306.91800118642016, 307.08470118642015, 307.83470118642015, 307.95136785308017, 308.0680345197402, 308.1847011864002, 308.30136785306024, 308.41803451972027, 308.5347011863803, 308.6513678530403, 308.76803451970034, 308.88470118636036, 309.0013678530204, 309.1180345196804, 309.23470118634043, 309.35136785300045, 309.4680345196605, 309.5847011863205, 309.7013678529805, 309.9347011863139]	2021_Jan_19_1449	60.14460042731979	1	0.375
10	52	FALSE	NV	a	['Z', 'A', 'C', 'W', 'J', 'E', 'M', 'S', 'H', 'T', 'V', 'B', 'X', 'R', 'P', 'G']	[2911, 697, 829, 2448, 1029, 904, 1224, 1731, 986, 1888, 2245, 760, 4000, 1587, 1456, 944]	13	Present	NA	NA	PRESENT	0.20541906356811523	311.9300580024719	313.9320809841156	315.0987555185287	315.44875766427594	318.03856897354126	4.106487989425659	[311.93925499916077, 312.05587100982666, 313.02189207077026, 313.2072491645813, 313.95782017707825, 314.07470417022705, 314.1912930011749, 314.3081331253052, 314.42489314079285, 314.5419681072235, 314.65886306762695, 314.77552914619446, 314.89219212532043, 315.00895714759827, 315.12588119506836, 315.2427749633789, 315.3592550754547, 315.47622513771057, 315.5929551124573, 315.709920167923, 315.8096339702606, 316.03856897354126]	[311.9347011863139, 312.0513678529739, 313.0343678529739, 313.2010678529739, 313.9510678529739, 314.0677345196339, 314.18440118629394, 314.30106785295396, 314.417734519614, 314.534401186274, 314.65106785293403, 314.76773451959406, 314.8844011862541, 315.0010678529141, 315.1177345195741, 315.23440118623415, 315.3510678528942, 315.4677345195542, 315.5844011862142, 315.70106785287425, 315.81773451953427, 316.0510678528676]	2021_Jan_19_1449	60.14460042731979	1	0.375
10	53	FALSE	NN	a	['C', 'U', 'E', 'W', 'J', 'K', 'R', 'P', 'T', 'V', 'M', 'N', 'A', 'B', 'S', 'Z']	[829, 2059, 904, 2448, 1029, 1122, 1587, 1456, 1888, 2245, 1224, 1335, 697, 760, 1731, 2911]	10	Absent	NA	NA	ABSENT	0.35385990142822266	318.0361878871918	320.0483829975128	320.8650565782716	321.21505872401883	324.1549370288849	4.10655403137207	[318.0453841686249, 318.1624331474304, 319.1382610797882, 319.3136429786682, 320.06427216529846, 320.1809091567993, 320.2979531288147, 320.41475915908813, 320.5315771102905, 320.6482181549072, 320.76527309417725, 320.88180899620056, 320.9988040924072, 321.1155049800873, 321.2323651313782, 321.3491401672363, 321.465861082077, 321.5826029777527, 321.69928216934204, 321.81652212142944, 321.9330680370331, 322.1549370288849]	[318.0510678528676, 318.16773451952764, 319.15073451952765, 319.31743451952764, 320.06743451952764, 320.18410118618766, 320.3007678528477, 320.4174345195077, 320.53410118616773, 320.65076785282776, 320.7674345194878, 320.8841011861478, 321.0007678528078, 321.11743451946785, 321.2341011861279, 321.3507678527879, 321.4674345194479, 321.58410118610794, 321.70076785276797, 321.817434519428, 321.934101186088, 322.16743451942136]	2021_Jan_19_1449	60.14460042731979	1	0.375
10	54	FALSE	VA	a	['W', 'B', 'T', 'J', 'K', 'H', 'surprise', 'G', 'Z', 'X', 'M', 'U', 'A', 'V', 'E', 'S']	[2448, 760, 1888, 1029, 1122, 986, 'stimAuditory/all_stimAuditory/220.wav', 944, 2911, 4000, 1224, 2059, 697, 2245, 904, 1731]	10	Present	NA	NA	PRESENT	0.17444491386413574	324.1595039367676	326.1645588874817	326.9812336603334	327.331235567662	330.2713041305542	4.10674524307251	[324.168701171875, 324.28541016578674, 325.2546281814575, 325.4368669986725, 326.18730306625366, 326.3043050765991, 326.42116117477417, 326.5379309654236, 326.6545150279999, 326.7714490890503, 326.88831615448, 327.0050730705261, 327.121698141098, 327.23875617980957, 327.3555061817169, 327.472225189209, 327.58896803855896, 327.70585012435913, 327.8225591182709, 327.9394540786743, 328.05609917640686, 328.2713031768799]	[324.16743451942136, 324.2841011860814, 325.2671011860814, 325.4338011860814, 326.1838011860814, 326.3004678527414, 326.41713451940143, 326.53380118606145, 326.6504678527215, 326.7671345193815, 326.8838011860415, 327.00046785270155, 327.11713451936157, 327.2338011860216, 327.3504678526816, 327.46713451934164, 327.58380118600166, 327.7004678526617, 327.8171345193217, 327.93380118598174, 328.05046785264176, 328.2838011859751]	2021_Jan_19_1449	60.14460042731979	1	0.375
10	55	FALSE	NA	a	['K', 'S', 'J', 'U', 'W', 'P', 'A', 'T', 'B', 'N', 'E', 'V', 'M', 'X', 'C', 'Z']	[1122, 1731, 1029, 2059, 2448, 1456, 697, 1888, 760, 1335, 904, 2245, 1224, 4000, 829, 2911]	14	Present	NA	NA	PRESENT	0.4518499374389648	330.28270387649536	332.28107500076294	333.5644173939289	333.91441930125757	336.3876690864563	4.106594085693359	[330.2919011116028, 330.4085600376129, 331.3709921836853, 331.543044090271, 332.31092715263367, 332.4108781814575, 332.5275571346283, 332.64420199394226, 332.7611770629883, 332.8777780532837, 332.99478816986084, 333.1113631725311, 333.2284481525421, 333.34503698349, 333.4619791507721, 333.57864713668823, 333.6954801082611, 333.81217217445374, 333.92912912368774, 334.0457670688629, 334.1626880168915, 334.3876690864563]	[330.2838011859751, 330.40046785263513, 331.38346785263514, 331.5501678526351, 332.3001678526351, 332.41683451929515, 332.5335011859552, 332.6501678526152, 332.7668345192752, 332.88350118593524, 333.00016785259527, 333.1168345192553, 333.2335011859153, 333.35016785257534, 333.46683451923536, 333.5835011858954, 333.7001678525554, 333.81683451921543, 333.93350118587546, 334.0501678525355, 334.1668345191955, 334.40016785252885]	2021_Jan_19_1449	60.14460042731979	1	0.375
10	56	FALSE	NA	a	['R', 'S', 'U', 'H', 'N', 'W', 'J', 'Y', 'Z', 'A', 'K', 'M', 'X', 'V', 'B', 'P']	[1587, 1731, 2059, 986, 1335, 2448, 1029, 2670, 2911, 697, 1122, 1224, 4000, 2245, 760, 1456]	13	Present	NA	NA	ABSENT	0.5362539291381836	336.38922691345215	338.39728689193726	339.56396166476895	339.9139635720976	342.5040361881256	4.1067492961883545	[336.39842319488525, 336.51512598991394, 337.48736214637756, 337.66649317741394, 338.4170651435852, 338.5338280200958, 338.65082001686096, 338.7674150466919, 338.88435912132263, 339.00100111961365, 339.1179230213165, 339.23471307754517, 339.351282119751, 339.4682970046997, 339.58497500419617, 339.7019021511078, 339.8185570240021, 339.93548011779785, 340.05219411849976, 340.1689670085907, 340.28570914268494, 340.5040371417999]	[336.40016785252885, 336.5168345191889, 337.4998345191889, 337.6665345191889, 338.4165345191889, 338.5332011858489, 338.6498678525089, 338.76653451916894, 338.88320118582897, 338.999867852489, 339.116534519149, 339.23320118580904, 339.34986785246906, 339.4665345191291, 339.5832011857891, 339.69986785244913, 339.81653451910915, 339.9332011857692, 340.0498678524292, 340.1665345190892, 340.28320118574925, 340.5165345190826]	2021_Jan_19_1449	60.14460042731979	1	0.375
10	57	FALSE	AA	a	['A', 'Z', 'M', 'Y', 'N', 'H', 'U', 'surprise', 'R', 'J', 'X', 'E', 'V', 'G', 'T', 'B']	[697, 2911, 1224, 2670, 1335, 986, 2059, 'stimAuditory/all_stimAuditory/213.wav', 1587, 1029, 4000, 904, 2245, 944, 1888, 760]	11	Present	stimAuditory/all_stimAuditory/116.wav	NA	PRESENT	0.18970608711242676	342.5126178264618	344.51385402679443	345.44719522788756	345.79719737363473	348.62040400505066	4.106549978256226	[342.5218150615692, 342.63827300071716, 343.60372710227966, 343.78941798210144, 344.5401191711426, 344.65754103660583, 344.7737030982971, 344.89062905311584, 345.00736808776855, 345.1241340637207, 345.2410891056061, 345.35780119895935, 345.47465109825134, 345.5915231704712, 345.70814299583435, 345.82485008239746, 345.9249701499939, 346.0417990684509, 346.17530703544617, 346.27533411979675, 346.39206409454346, 346.62040305137634]	[342.5165345190826, 342.6332011857426, 343.6162011857426, 343.7829011857426, 344.5329011857426, 344.64956785240264, 344.76623451906266, 344.8829011857227, 344.9995678523827, 345.11623451904273, 345.23290118570276, 345.3495678523628, 345.4662345190228, 345.58290118568283, 345.69956785234285, 345.8162345190029, 345.9329011856629, 346.0495678523229, 346.16623451898295, 346.28290118564297, 346.399567852303, 346.63290118563634]	2021_Jan_19_1449	60.14460042731979	1	0.375
10	58	FALSE	NV	a	['P', 'R', 'A', 'G', 'Z', 'V', 'W', 'Y', 'X', 'N', 'C', 'E', 'B', 'U', 'K', 'T']	[1456, 1587, 697, 944, 2911, 2245, 2448, 2670, 4000, 1335, 829, 904, 760, 2059, 1122, 1888]	9	Present	NA	NA	PRESENT	0.42609596252441406	348.61872005462646	350.63023805618286	351.3302449702817	351.6802468776103	354.73677015304565	4.106532096862793	[348.6279170513153, 348.74456214904785, 349.7200930118561, 349.89608001708984, 350.64671516418457, 350.76343607902527, 350.88034105300903, 350.9970610141754, 351.1139841079712, 351.2306160926819, 351.34738397598267, 351.46429800987244, 351.58094596862793, 351.6977791786194, 351.81498098373413, 351.93138217926025, 352.04812002182007, 352.16502714157104, 352.2815999984741, 352.39838218688965, 352.51537919044495, 352.73677015304565]	[348.63290118563634, 348.74956785229637, 349.73256785229637, 349.89926785229636, 350.64926785229636, 350.7659345189564, 350.8826011856164, 350.99926785227643, 351.11593451893646, 351.2326011855965, 351.3492678522565, 351.4659345189165, 351.58260118557655, 351.6992678522366, 351.8159345188966, 351.9326011855566, 352.04926785221664, 352.16593451887667, 352.2826011855367, 352.3992678521967, 352.51593451885674, 352.7492678521901]	2021_Jan_19_1449	60.14460042731979	1	0.375
10	59	FALSE	NV	a	['W', 'E', 'Y', 'Z', 'M', 'K', 'P', 'U', 'V', 'B', 'A', 'C', 'G', 'X', 'H', 'S']	[2448, 904, 2670, 2911, 1224, 1122, 1456, 2059, 2245, 760, 697, 829, 944, 4000, 986, 1731]	14	Present	NA	NA	PRESENT	0.30246710777282715	354.74204087257385	356.7464790344238	358.0298202354969	358.37982238124414	360.85313606262207	4.106657028198242	[354.7512400150299, 354.8677270412445, 355.836462020874, 356.01919507980347, 356.76976108551025, 356.8866591453552, 357.0032820701599, 357.1200761795044, 357.2368550300598, 357.35365319252014, 357.47043204307556, 357.5874021053314, 357.70406913757324, 357.82110118865967, 357.93772411346436, 358.05466318130493, 358.17184805870056, 358.28832817077637, 358.4048900604248, 358.52154207229614, 358.6385340690613, 358.8531370162964]	[354.7492678521901, 354.8659345188501, 355.8489345188501, 356.0156345188501, 356.7656345188501, 356.88230118551013, 356.99896785217015, 357.1156345188302, 357.2323011854902, 357.3489678521502, 357.46563451881025, 357.58230118547027, 357.6989678521303, 357.8156345187903, 357.93230118545034, 358.04896785211037, 358.1656345187704, 358.2823011854304, 358.39896785209044, 358.51563451875046, 358.6323011854105, 358.86563451874383]	2021_Jan_19_1449	60.14460042731979	1	0.375
10	60	FALSE	NV	a	['J', 'G', 'V', 'R', 'T', 'K', 'M', 'X', 'U', 'Z', 'N', 'S', 'E', 'W', 'A', 'Y']	[1029, 944, 2245, 1587, 1888, 1122, 1224, 4000, 2059, 2911, 1335, 1731, 904, 2448, 697, 2670]	8	Present	NA	NA	PRESENT	0.2758808135986328	360.86490201950073	362.862988948822	363.4463291962608	363.7963313420081	366.9695031642914	4.10651421546936	[360.8740990161896, 360.9910180568695, 361.9528241157532, 362.12568712234497, 362.8928861618042, 362.9929630756378, 363.1100070476532, 363.2265269756317, 363.3435380458832, 363.46011209487915, 363.57692408561707, 363.6936731338501, 363.8106880187988, 363.9273760318756, 364.0441131591797, 364.1610321998596, 364.2777030467987, 364.39463210105896, 364.51148200035095, 364.62820410728455, 364.7449471950531, 364.9695031642914]	[360.86563451874383, 360.98230118540386, 361.96530118540386, 362.13200118540385, 362.88200118540385, 362.9986678520639, 363.1153345187239, 363.2320011853839, 363.34866785204395, 363.46533451870397, 363.582001185364, 363.698667852024, 363.81533451868404, 363.93200118534406, 364.0486678520041, 364.1653345186641, 364.28200118532413, 364.39866785198416, 364.5153345186442, 364.6320011853042, 364.7486678519642, 364.9820011852976]	2021_Jan_19_1449	60.14460042731979	1	0.375
10	61	FALSE	VA	a	['V', 'H', 'E', 'N', 'C', 'surprise', 'S', 'W', 'X', 'U', 'P', 'Y', 'G', 'B', 'A', 'M']	[2245, 986, 904, 1335, 829, 'stimAuditory/all_stimAuditory/110.wav', 1731, 2448, 4000, 2059, 1456, 2670, 944, 760, 697, 1224]	9	Present	NA	NA	PRESENT	0.2807459831237793	366.97153902053833	368.9791970252991	369.6792048930722	370.0292070388194	373.0858700275421	4.106673002243042	[366.98073506355286, 367.09740805625916, 368.0691909790039, 368.24879717826843, 368.99969696998596, 369.116170167923, 369.2330620288849, 369.3499221801758, 369.46674704551697, 369.5834541320801, 369.70024704933167, 369.81706404685974, 369.9338719844818, 370.0506269931793, 370.1677739620209, 370.2842769622803, 370.40093207359314, 370.51764702796936, 370.63450717926025, 370.75115418434143, 370.86809515953064, 371.0858700275421]	[366.9820011852976, 367.0986678519576, 368.0816678519576, 368.2483678519576, 368.9983678519576, 369.1150345186176, 369.23170118527764, 369.34836785193767, 369.4650345185977, 369.5817011852577, 369.69836785191774, 369.81503451857776, 369.9317011852378, 370.0483678518978, 370.16503451855783, 370.28170118521786, 370.3983678518779, 370.5150345185379, 370.6317011851979, 370.74836785185795, 370.865034518518, 371.0983678518513]	2021_Jan_19_1449	60.14460042731979	1	0.375
10	62	FALSE	NN	a	['S', 'W', 'E', 'C', 'V', 'M', 'Z', 'N', 'K', 'T', 'H', 'B', 'Y', 'R', 'P', 'A']	[1731, 2448, 904, 829, 2245, 1224, 2911, 1335, 1122, 1888, 986, 760, 2670, 1587, 1456, 697]	11	Absent	NA	NA	ABSENT	0.18994402885437012	373.0948648452759	375.09567189216614	376.02901237800353	376.3790152390064	379.2022371292114	4.106565237045288	[373.104061126709, 373.2206521034241, 374.18556118011475, 374.371896982193, 375.1225140094757, 375.239324092865, 375.3561170101166, 375.4728181362152, 375.5897991657257, 375.70655703544617, 375.8234190940857, 375.94009709358215, 376.04006814956665, 376.1738920211792, 376.2736871242523, 376.3906099796295, 376.5072979927063, 376.62401509284973, 376.7408130168915, 376.85757303237915, 376.97444105148315, 377.20223808288574]	[373.0983678518513, 373.21503451851135, 374.19803451851135, 374.36473451851134, 375.11473451851134, 375.23140118517136, 375.3480678518314, 375.4647345184914, 375.58140118515144, 375.69806785181146, 375.8147345184715, 375.9314011851315, 376.04806785179153, 376.16473451845155, 376.2814011851116, 376.3980678517716, 376.5147345184316, 376.63140118509165, 376.74806785175167, 376.8647345184117, 376.9814011850717, 377.21473451840507]	2021_Jan_19_1449	60.14460042731979	1	0.375
10	63	FALSE	NA	a	['V', 'Y', 'W', 'H', 'K', 'C', 'S', 'N', 'X', 'R', 'P', 'G', 'T', 'M', 'U', 'A']	[2245, 2670, 2448, 986, 1122, 829, 1731, 1335, 4000, 1587, 1456, 944, 1888, 1224, 2059, 697]	9	Present	NA	NA	PRESENT	0.26641106605529785	379.20113492012024	381.21215891838074	381.9121658324795	382.26216893190104	385.31860303878784	4.1064441204071045	[379.21033096313477, 379.3269159793854, 380.3019280433655, 380.4781000614166, 381.22903513908386, 381.34587502479553, 381.46257400512695, 381.57950711250305, 381.6963300704956, 381.812940120697, 381.9297490119934, 382.0465030670166, 382.16333508491516, 382.28019404411316, 382.3970651626587, 382.51388597488403, 382.6305720806122, 382.7472400665283, 382.86437916755676, 382.98099303245544, 383.0976390838623, 383.31860399246216]	[379.21473451840507, 379.3314011850651, 380.3144011850651, 380.4811011850651, 381.2311011850651, 381.3477678517251, 381.46443451838513, 381.58110118504516, 381.6977678517052, 381.8144345183652, 381.9311011850252, 382.04776785168525, 382.1644345183453, 382.2811011850053, 382.3977678516653, 382.51443451832534, 382.63110118498537, 382.7477678516454, 382.8644345183054, 382.98110118496544, 383.09776785162546, 383.3311011849588]	2021_Jan_19_1449	60.14460042731979	1	0.375
10	64	FALSE	NN	a	['U', 'C', 'K', 'S', 'A', 'T', 'N', 'R', 'W', 'H', 'P', 'G', 'Z', 'B', 'J', 'Y']	[2059, 829, 1122, 1731, 697, 1888, 1335, 1587, 2448, 986, 1456, 944, 2911, 760, 1029, 2670]	13	Absent	NA	NA	ABSENT	0.3108968734741211	385.32420206069946	387.3281879425049	388.4948627153366	388.8448646226652	391.4349701404571	4.1067821979522705	[385.3333990573883, 385.4505100250244, 386.41829204559326, 386.60142707824707, 387.3523499965668, 387.4691731929779, 387.58574414253235, 387.7026460170746, 387.81934905052185, 387.9362440109253, 388.0528700351715, 388.1698269844055, 388.2865700721741, 388.4034070968628, 388.5201280117035, 388.63686418533325, 388.75369000434875, 388.87047815322876, 388.9871861934662, 389.1040301322937, 389.2210280895233, 389.43497014045715]	[385.3311011849588, 385.44776785161883, 386.43076785161884, 386.59746785161883, 387.34746785161883, 387.46413451827885, 387.5808011849389, 387.6974678515989, 387.8141345182589, 387.93080118491895, 388.047467851579, 388.164134518239, 388.280801184899, 388.39746785155904, 388.51413451821907, 388.6308011848791, 388.7474678515391, 388.86413451819914, 388.98080118485916, 389.0974678515192, 389.2141345181792, 389.44746785151256]	2021_Jan_19_1449	60.14460042731979	1	0.375
10	65	FALSE	NV	a	['G', 'E', 'H', 'J', 'N', 'B', 'Z', 'K', 'Y', 'C', 'P', 'X', 'V', 'A', 'M', 'U']	[944, 904, 986, 1029, 1335, 760, 2911, 1122, 2670, 829, 1456, 4000, 2245, 697, 1224, 2059]	12	Present	NA	NA	PRESENT	0.3562650680541992	391.4472439289093	393.4447059631348	394.49471383088786	394.8447159766351	397.5513360500336	4.106630086898804	[391.4564411640167, 391.5565540790558, 392.53465819358826, 392.7078011035919, 393.4587140083313, 393.5753769874573, 393.6923260688782, 393.8090469837189, 393.9258849620819, 394.04254508018494, 394.1593129634857, 394.2761650085449, 394.39308619499207, 394.5098190307617, 394.6266231536865, 394.74326515197754, 394.860139131546, 394.9770030975342, 395.09365797042847, 395.21038603782654, 395.3272020816803, 395.5513370037079]	[391.44746785151256, 391.5641345181726, 392.5471345181726, 392.7138345181726, 393.4638345181726, 393.5805011848326, 393.6971678514926, 393.81383451815265, 393.93050118481267, 394.0471678514727, 394.1638345181327, 394.28050118479274, 394.39716785145276, 394.5138345181128, 394.6305011847728, 394.74716785143283, 394.86383451809286, 394.9805011847529, 395.0971678514129, 395.21383451807293, 395.33050118473295, 395.5638345180663]	2021_Jan_19_1449	60.14460042731979	1	0.375
10	66	FALSE	NV	a	['J', 'E', 'C', 'Z', 'S', 'V', 'P', 'G', 'N', 'A', 'U', 'H', 'R', 'X', 'Y', 'M']	[1029, 904, 829, 2911, 1731, 2245, 1456, 944, 1335, 697, 2059, 986, 1587, 4000, 2670, 1224]	14	Present	NA	NA	PRESENT	0.28064918518066406	397.5539090633392	399.5608699321747	400.84421137166635	401.194213278995	403.6677041053772	4.106834173202515	[397.56310510635376, 397.6797420978546, 398.651025056839, 398.83107113838196, 399.5817720890045, 399.6987421512604, 399.8155481815338, 399.93214416503906, 400.04911708831787, 400.16582703590393, 400.2824721336365, 400.3992941379547, 400.51602506637573, 400.6330101490021, 400.7498161792755, 400.866651058197, 400.9831631183624, 401.0999300479889, 401.2168381214142, 401.3334619998932, 401.45053696632385, 401.6677041053772]	[397.5638345180663, 397.6805011847263, 398.66350118472633, 398.8302011847263, 399.5802011847263, 399.69686785138634, 399.81353451804637, 399.9302011847064, 400.0468678513664, 400.16353451802644, 400.28020118468646, 400.3968678513465, 400.5135345180065, 400.63020118466653, 400.74686785132656, 400.8635345179866, 400.9802011846466, 401.0968678513066, 401.21353451796665, 401.3302011846267, 401.4468678512867, 401.68020118462005]	2021_Jan_19_1449	60.14460042731979	1	0.375
10	67	FALSE	NV	a	['M', 'V', 'U', 'P', 'K', 'Z', 'T', 'B', 'X', 'E', 'Y', 'H', 'G', 'S', 'C', 'R']	[1224, 2245, 2059, 1456, 1122, 2911, 1888, 760, 4000, 904, 2670, 986, 944, 1731, 829, 1587]	9	Present	NA	NA	PRESENT	0.3499579429626465	403.6771628856659	405.6776070594787	406.3776139735776	406.72761588090617	409.7840690612793	4.106462001800537	[403.686359167099, 403.80288004875183, 404.7673909664154, 404.9543399810791, 405.7047860622406, 405.82179617881775, 405.9384341239929, 406.0552251338959, 406.17211413383484, 406.2720880508423, 406.38889813423157, 406.50573897361755, 406.62251901626587, 406.7392911911011, 406.856064081192, 406.97284507751465, 407.0895891189575, 407.2065260410309, 407.3231530189514, 407.4399371147156, 407.55683302879333, 407.7840700149536]	[403.68020118462005, 403.79686785128007, 404.7798678512801, 404.94656785128007, 405.69656785128007, 405.8132345179401, 405.9299011846001, 406.04656785126014, 406.16323451792016, 406.2799011845802, 406.3965678512402, 406.51323451790023, 406.62990118456025, 406.7465678512203, 406.8632345178803, 406.9799011845403, 407.09656785120035, 407.21323451786037, 407.3299011845204, 407.4465678511804, 407.56323451784044, 407.7965678511738]	2021_Jan_19_1449	60.14460042731979	1	0.375
10	68	FALSE	NA	a	['B', 'U', 'Y', 'J', 'H', 'C', 'K', 'R', 'P', 'T', 'M', 'N', 'X', 'V', 'Z', 'G']	[760, 2059, 2670, 1029, 986, 829, 1122, 1587, 1456, 1888, 1224, 1335, 4000, 2245, 2911, 944]	13	Present	NA	NA	PRESENT	0.3785278797149658	409.7834210395813	411.7935779094696	412.9602526823013	413.3102545896299	415.9004361629486	4.106858253479004	[409.79261803627014, 409.90951800346375, 410.88376116752625, 411.0604991912842, 411.8113579750061, 411.92808508872986, 412.04494404792786, 412.1617910861969, 412.278666973114, 412.3954510688782, 412.5120861530304, 412.62893414497375, 412.74580001831055, 412.8627960681915, 412.9793050289154, 413.0962641239166, 413.2128701210022, 413.32949709892273, 413.44647216796875, 413.5631580352783, 413.68024015426636, 413.9004349708557]	[409.7965678511738, 409.9132345178338, 410.8962345178338, 411.0629345178338, 411.8129345178338, 411.92960118449383, 412.04626785115386, 412.1629345178139, 412.2796011844739, 412.3962678511339, 412.51293451779395, 412.629601184454, 412.746267851114, 412.862934517774, 412.97960118443405, 413.09626785109407, 413.2129345177541, 413.3296011844141, 413.44626785107414, 413.56293451773416, 413.6796011843942, 413.91293451772754]	2021_Jan_19_1449	60.14460042731979	1	0.375
10	69	FALSE	AN	a	['H', 'A', 'B', 'R', 'Y', 'C', 'J', 'W', 'N', 'P', 'surprise', 'T', 'S', 'Z', 'E', 'U']	[986, 697, 760, 1587, 2670, 829, 1029, 2448, 1335, 1456, 'stimAuditory/all_stimAuditory/114.wav', 1888, 1731, 2911, 904, 2059]	14	Absent	stimAuditory/all_stimAuditory/224.wav	NA	ABSENT	0.27127504348754883	415.9066679477692	417.9101538658142	419.1934943516315	419.5434962589602	422.01680397987366	4.106650114059448	[415.9158639907837, 416.0325891971588, 417.0001289844513, 417.1836521625519, 417.93462109565735, 418.0513970851898, 418.16809010505676, 418.2850971221924, 418.4017210006714, 418.5184919834137, 418.63548016548157, 418.75207018852234, 418.86899304389954, 418.9856550693512, 419.1027719974518, 419.21940302848816, 419.3361830711365, 419.4526951313019, 419.56963300704956, 419.68647718429565, 419.8032441139221, 420.01680302619934]	[415.91293451772754, 416.02960118438756, 417.01260118438756, 417.17930118438755, 417.92930118438755, 418.0459678510476, 418.1626345177076, 418.2793011843676, 418.39596785102765, 418.5126345176877, 418.6293011843477, 418.7459678510077, 418.86263451766774, 418.97930118432777, 419.0959678509878, 419.2126345176478, 419.32930118430784, 419.44596785096786, 419.5626345176279, 419.6793011842879, 419.79596785094793, 420.0293011842813]	2021_Jan_19_1449	60.14460042731979	1	0.375
10	70	FALSE	NV	a	['C', 'Z', 'K', 'V', 'J', 'G', 'N', 'B', 'P', 'R', 'A', 'U', 'X', 'T', 'Y', 'H']	[829, 2911, 1122, 2245, 1029, 944, 1335, 760, 1456, 1587, 697, 2059, 4000, 1888, 2670, 986]	13	Present	NA	NA	PRESENT	0.4845960140228271	422.0128560066223	424.0267930030823	425.1934675374954	425.5434696832426	428.13316917419434	4.1063761711120605	[422.0220510959625, 422.13885617256165, 423.116494178772, 423.29051399230957, 424.04088306427, 424.1578371524811, 424.27475214004517, 424.39139699935913, 424.5081100463867, 424.62498903274536, 424.74193716049194, 424.8587381839752, 424.9755141735077, 425.0922610759735, 425.2088530063629, 425.32577419281006, 425.44239115715027, 425.55927896499634, 425.6761221885681, 425.79289412498474, 425.9096300601959, 426.13316917419434]	[422.0293011842813, 422.1459678509413, 423.1289678509413, 423.2956678509413, 424.0456678509413, 424.1623345176013, 424.27900118426135, 424.39566785092137, 424.5123345175814, 424.6290011842414, 424.74566785090144, 424.86233451756146, 424.9790011842215, 425.0956678508815, 425.21233451754154, 425.32900118420156, 425.4456678508616, 425.5623345175216, 425.67900118418163, 425.79566785084165, 425.9123345175017, 426.145667850835]	2021_Jan_19_1449	60.14460042731979	1	0.375
10	71	FALSE	NV	a	['G', 'A', 'H', 'M', 'K', 'W', 'J', 'T', 'R', 'N', 'P', 'X', 'Z', 'Y', 'E', 'V']	[944, 697, 986, 1224, 1122, 2448, 1029, 1888, 1587, 1335, 1456, 4000, 2911, 2670, 904, 2245]	12	Present	NA	NA	PRESENT	0.3609580993652344	428.1362788677216	430.14289593696594	431.1929040431376	431.54290595046626	434.24953603744507	4.106640100479126	[428.145476102829, 428.2620871067047, 429.2328610420227, 429.4134290218353, 430.16401410102844, 430.2809760570526, 430.3977220058441, 430.5146110057831, 430.63141417503357, 430.74826407432556, 430.864865064621, 430.98179507255554, 431.09862518310547, 431.21537804603577, 431.3322100639343, 431.4489121437073, 431.5655930042267, 431.6822769641876, 431.7992181777954, 431.9161059856415, 432.0329260826111, 432.2495369911194]	[428.145667850835, 428.26233451749505, 429.24533451749505, 429.41203451749504, 430.16203451749504, 430.27870118415507, 430.3953678508151, 430.5120345174751, 430.62870118413514, 430.74536785079516, 430.8620345174552, 430.9787011841152, 431.09536785077523, 431.21203451743526, 431.3287011840953, 431.4453678507553, 431.5620345174153, 431.67870118407535, 431.7953678507354, 431.9120345173954, 432.0287011840554, 432.26203451738877]	2021_Jan_19_1449	60.14460042731979	1	0.375
10	72	FALSE	NV	a	['K', 'A', 'H', 'Y', 'N', 'B', 'G', 'U', 'E', 'J', 'S', 'X', 'R', 'V', 'C', 'Z']	[1122, 697, 986, 2670, 1335, 760, 944, 2059, 904, 1029, 1731, 4000, 1587, 2245, 829, 2911]	12	Present	NA	NA	PRESENT	0.3663039207458496	434.25968384742737	436.259388923645	437.3093958377238	437.659397983471	440.3659040927887	4.106515169143677	[434.2688810825348, 434.3852570056915, 435.3492271900177, 435.5364260673523, 436.28744411468506, 436.3872301578522, 436.5041480064392, 436.6208779811859, 436.737673997879, 436.8545470237732, 436.97128200531006, 437.08812499046326, 437.2048411369324, 437.3216631412506, 437.43847918510437, 437.5551450252533, 437.6719779968262, 437.7887990474701, 437.9057869911194, 438.0225009918213, 438.1391999721527, 438.3659040927887]	[434.26203451738877, 434.3787011840488, 435.3617011840488, 435.5284011840488, 436.2784011840488, 436.3950678507088, 436.51173451736884, 436.62840118402886, 436.7450678506889, 436.8617345173489, 436.97840118400893, 437.09506785066895, 437.211734517329, 437.328401183989, 437.445067850649, 437.56173451730905, 437.6784011839691, 437.7950678506291, 437.9117345172891, 438.02840118394914, 438.14506785060917, 438.3784011839425]	2021_Jan_19_1449	60.14460042731979	1	0.375
10	73	FALSE	NA	a	['S', 'G', 'C', 'P', 'W', 'N', 'A', 'Z', 'J', 'K', 'T', 'U', 'B', 'X', 'R', 'V']	[1731, 944, 829, 1456, 2448, 1335, 697, 2911, 1029, 1122, 1888, 2059, 760, 4000, 1587, 2245]	14	Present	NA	NA	PRESENT	0.3068380355834961	440.3656599521637	442.3757529258728	443.6590931732716	444.0090953190188	446.4822690486908	4.106516122817993	[440.3748571872711, 440.49174404144287, 441.46559405326843, 441.64284801483154, 442.3936610221863, 442.5106580257416, 442.6273009777069, 442.7440571784973, 442.8609960079193, 442.9778861999512, 443.0944449901581, 443.2114601135254, 443.32811307907104, 443.4448080062866, 443.5616981983185, 443.678423166275, 443.7954959869385, 443.91189217567444, 444.0288631916046, 444.14551401138306, 444.2624011039734, 444.4822690486908]	[440.3784011839425, 440.49506785060254, 441.47806785060254, 441.64476785060253, 442.39476785060253, 442.51143451726256, 442.6281011839226, 442.7447678505826, 442.8614345172426, 442.97810118390265, 443.0947678505627, 443.2114345172227, 443.3281011838827, 443.44476785054275, 443.56143451720277, 443.6781011838628, 443.7947678505228, 443.91143451718284, 444.02810118384286, 444.1447678505029, 444.2614345171629, 444.49476785049626]	2021_Jan_19_1449	60.14460042731979	1	0.375
10	74	FALSE	NV	a	['S', 'E', 'W', 'K', 'N', 'M', 'U', 'C', 'G', 'H', 'X', 'B', 'A', 'P', 'J', 'Z']	[1731, 904, 2448, 1122, 1335, 1224, 2059, 829, 944, 986, 4000, 760, 697, 1456, 1029, 2911]	11	Present	NA	NA	PRESENT	0.5354561805725098	446.488865852356	448.49211287498474	449.42545336082213	449.77545622182504	452.5986361503601	4.106523275375366	[446.498074054718, 446.6149981021881, 447.58196210861206, 447.7660400867462, 448.5170199871063, 448.6335961818695, 448.75040006637573, 448.8672480583191, 448.98414516448975, 449.1009202003479, 449.21763706207275, 449.3343839645386, 449.45141315460205, 449.56798696517944, 449.68480801582336, 449.80148696899414, 449.91843008995056, 450.0350890159607, 450.1519241333008, 450.2686960697174, 450.38564705848694, 450.5986361503601]	[446.49476785049626, 446.6114345171563, 447.5944345171563, 447.7611345171563, 448.5111345171563, 448.6278011838163, 448.7444678504763, 448.86113451713635, 448.9778011837964, 449.0944678504564, 449.2111345171164, 449.32780118377644, 449.44446785043647, 449.5611345170965, 449.6778011837565, 449.79446785041654, 449.91113451707656, 450.0278011837366, 450.1444678503966, 450.26113451705663, 450.37780118371666, 450.61113451705]	2021_Jan_19_1449	60.14460042731979	1	0.375
10	75	FALSE	AA	a	['A', 'G', 'N', 'V', 'W', 'B', 'Y', 'T', 'surprise', 'C', 'P', 'X', 'R', 'M', 'H', 'E']	[697, 944, 1335, 2245, 2448, 760, 2670, 1888, 'stimAuditory/all_stimAuditory/113.wav', 829, 1456, 4000, 1587, 1224, 986, 904]	12	Present	stimAuditory/all_stimAuditory/109.wav	NA	ABSENT	0.7964828014373779	452.5952649116516	454.6085259914398	455.6585338591929	456.00853600494014	458.7150030136109	4.1064770221710205	[452.6044611930847, 452.72131419181824, 453.6983280181885, 453.8729271888733, 454.623300075531, 454.740177154541, 454.8571720123291, 454.9738450050354, 455.09074997901917, 455.2074601650238, 455.3240451812744, 455.4410619735718, 455.5576341152191, 455.67464303970337, 455.7911891937256, 455.9082250595093, 456.02499198913574, 456.14170598983765, 456.25840997695923, 456.375372171402, 456.4920389652252, 456.71500301361084]	[452.61113451705, 452.72780118371, 453.71080118371003, 453.87750118371, 454.62750118371, 454.74416785037005, 454.86083451703007, 454.9775011836901, 455.0941678503501, 455.21083451701014, 455.32750118367017, 455.4441678503302, 455.5608345169902, 455.67750118365024, 455.79416785031026, 455.9108345169703, 456.0275011836303, 456.14416785029033, 456.26083451695035, 456.3775011836104, 456.4941678502704, 456.72750118360375]	2021_Jan_19_1449	60.14460042731979	1	0.375
10	76	FALSE	NA	a	['S', 'E', 'W', 'K', 'Z', 'A', 'Y', 'X', 'H', 'N', 'R', 'J', 'T', 'V', 'P', 'G']	[1731, 904, 2448, 1122, 2911, 697, 2670, 4000, 986, 1335, 1587, 1029, 1888, 2245, 1456, 944]	8	Present	NA	NA	PRESENT	0.50543212890625	458.7184250354767	460.72485399246216	461.3081951935753	461.6581963856482	464.83137011528015	4.106516122817993	[458.7276220321655, 458.84459018707275, 459.81469202041626, 459.99563002586365, 460.74644017219543, 460.8634171485901, 460.9801821708679, 461.0970079898834, 461.2136421203613, 461.33043909072876, 461.4473571777344, 461.5639591217041, 461.6808760166168, 461.79774618148804, 461.9143240451813, 462.0312759876251, 462.14851212501526, 462.2646961212158, 462.3817300796509, 462.49838399887085, 462.6151759624481, 462.83137011528015]	[458.72750118360375, 458.8441678502638, 459.8271678502638, 459.99386785026377, 460.74386785026377, 460.8605345169238, 460.9772011835838, 461.09386785024384, 461.21053451690386, 461.3272011835639, 461.4438678502239, 461.56053451688393, 461.67720118354396, 461.793867850204, 461.910534516864, 462.027201183524, 462.14386785018405, 462.2605345168441, 462.3772011835041, 462.4938678501641, 462.61053451682415, 462.8438678501575]	2021_Jan_19_1449	60.14460042731979	1	0.375
10	77	FALSE	NV	a	['C', 'S', 'E', 'W', 'Y', 'V', 'H', 'B', 'U', 'J', 'A', 'G', 'Z', 'X', 'T', 'M']	[829, 1731, 904, 2448, 2670, 2245, 986, 760, 2059, 1029, 697, 944, 2911, 4000, 1888, 1224]	14	Present	NA	NA	PRESENT	0.63077712059021	464.8419919013977	466.8413100242615	468.12465027166024	468.4746521789889	470.94773602485657	4.106426000595093	[464.8511891365051, 464.9676251411438, 465.93105816841125, 466.118940114975, 466.86991906166077, 466.9696521759033, 467.08643913269043, 467.2032251358032, 467.32006311416626, 467.4369840621948, 467.55378103256226, 467.6704571247101, 467.7873179912567, 467.9040901660919, 468.020977973938, 468.1375460624695, 468.2544159889221, 468.3711760044098, 468.4879140853882, 468.6049151420593, 468.72149896621704, 468.9477369785309]	[464.8438678501575, 464.9605345168175, 465.9435345168175, 466.1102345168175, 466.8602345168175, 466.97690118347754, 467.09356785013756, 467.2102345167976, 467.3269011834576, 467.44356785011763, 467.56023451677765, 467.6769011834377, 467.7935678500977, 467.9102345167577, 468.02690118341775, 468.1435678500778, 468.2602345167378, 468.3769011833978, 468.49356785005784, 468.61023451671787, 468.7269011833779, 468.96023451671124]	2021_Jan_19_1449	60.14460042731979	1	0.375
10	78	FALSE	AN	a	['H', 'E', 'M', 'J', 'K', 'G', 'R', 'C', 'surprise', 'U', 'B', 'T', 'Y', 'V', 'A', 'P']	[986, 904, 1224, 1029, 1122, 944, 1587, 829, 'stimAuditory/all_stimAuditory/115.wav', 2059, 760, 1888, 2670, 2245, 697, 1456]	12	Absent	stimAuditory/all_stimAuditory/220.wav	NA	ABSENT	0.42691588401794434	470.9481868743897	472.9575479030609	474.0075550555582	474.3575569628869	477.0641031265259	4.106555223464966	[470.95738315582275, 471.07419419288635, 472.0474259853363, 472.2252559661865, 472.9760789871216, 473.0930070877075, 473.2096571922302, 473.32666301727295, 473.443274974823, 473.5599970817566, 473.67682909965515, 473.79370307922363, 473.91066002845764, 474.02715516090393, 474.14438104629517, 474.26067304611206, 474.37746500968933, 474.4942669868469, 474.6110031604767, 474.72793316841125, 474.8450520038605, 475.0641040802002]	[470.96023451671124, 471.07690118337126, 472.05990118337127, 472.22660118337126, 472.97660118337126, 473.0932678500313, 473.2099345166913, 473.32660118335133, 473.44326785001135, 473.5599345166714, 473.6766011833314, 473.7932678499914, 473.90993451665145, 474.02660118331147, 474.1432678499715, 474.2599345166315, 474.37660118329154, 474.49326784995156, 474.6099345166116, 474.7266011832716, 474.84326784993164, 475.076601183265]	2021_Jan_19_1449	60.14460042731979	1	0.375
10	79	FALSE	NV	a	['G', 'A', 'U', 'P', 'S', 'M', 'Z', 'X', 'T', 'N', 'K', 'B', 'R', 'J', 'E', 'C']	[944, 697, 2059, 1456, 1731, 1224, 2911, 4000, 1888, 1335, 1122, 760, 1587, 1029, 904, 829]	8	Present	NA	NA	PRESENT	0.33592796325683594	477.071585893631	479.0736989974976	479.6570392449363	480.0070413906836	483.1804699897766	4.106770992279053	[477.0807821750641, 477.1972939968109, 478.16379404067993, 478.3483901023865, 479.09935116767883, 479.2160120010376, 479.332887172699, 479.44971108436584, 479.5665981769562, 479.68316102027893, 479.80008602142334, 479.9168121814728, 480.0336391925812, 480.1506061553955, 480.26726818084717, 480.3839120864868, 480.5009021759033, 480.61749601364136, 480.7344880104065, 480.8510711193085, 480.9681770801544, 481.1804699897766]	[477.076601183265, 477.193267849925, 478.176267849925, 478.342967849925, 479.092967849925, 479.209634516585, 479.32630118324505, 479.4429678499051, 479.5596345165651, 479.6763011832251, 479.79296784988514, 479.90963451654517, 480.0263011832052, 480.1429678498652, 480.25963451652524, 480.37630118318526, 480.4929678498453, 480.6096345165053, 480.72630118316533, 480.84296784982536, 480.9596345164854, 481.19296784981873]	2021_Jan_19_1449	60.14460042731979	1	0.375
