participant	trial_num	practice	task	condition	RSVP	RAP	probePos	probe_presence	surprise_sound	surprise_img	probe_response	probe_resp_time	first_fixation_time	trial_start_time	surprise_start_time	probe_start_time	trial_end_time	trial_duration	actualEventTimes	plannedEventTimes	date	framerate	marker_vol	RAP_vol
23	1	FALSE	NA	a	['Z', 'T', 'H', 'R', 'M', 'N', 'U', 'B', 'S', 'P', 'K', 'X', 'W', 'C', 'E', 'G']	[2911, 1888, 986, 1587, 1224, 1335, 2059, 760, 1731, 1456, 1122, 4000, 2448, 829, 904, 944]	12	Present	NA	NA	PRESENT	0.01771402359008789	2.86102294921875e-6	1.987617015838623	3.0376258372660496	3.3876279830132616	6.103869915008545	4.116252899169922	[0.021804094314575195, 0.12159395217895508, 1.0871930122375488, 1.2728230953216553, 2.0233969688415527, 2.140968084335327, 2.25728702545166, 2.373995065689087, 2.4907450675964355, 2.607633113861084, 2.724242925643921, 2.841156005859375, 2.9579811096191406, 3.0746068954467773, 3.1913259029388428, 3.3080410957336426, 3.425173044204712, 3.524976968765259, 3.641860008239746, 3.7586309909820557, 3.89218807220459, 4.1038689613342285]	[9.5367431640625e-07, 0.11666762033431641, 1.0996676203343163, 1.2663676203343164, 2.016367620334316, 2.133034286994316, 2.249700953654316, 2.3663676203143162, 2.4830342869743163, 2.5997009536343163, 2.7163676202943163, 2.8330342869543164, 2.9497009536143164, 3.0663676202743164, 3.1830342869343164, 3.2997009535943165, 3.4163676202543165, 3.5330342869143165, 3.6497009535743166, 3.7663676202343166, 3.8830342868943166, 4.11636762022765]	2021_Feb_04_1423	59.94920266478761	1	0.375
23	2	FALSE	NV	a	['A', 'Y', 'P', 'E', 'B', 'K', 'C', 'S', 'M', 'V', 'U', 'X', 'W', 'R', 'N', 'J']	[697, 2670, 1456, 904, 760, 1122, 829, 1731, 1224, 2245, 2059, 4000, 2448, 1587, 1335, 1029]	12	Present	NA	NA	PRESENT	0.04627799987792969	6.089342832565308	8.1011199951171875	9.151126909195982	9.501128816524616	12.220237016677856	4.119117021560669	[6.11114501953125, 6.228189945220947, 7.20356011390686, 7.3793299198150635, 8.12994909286499, 8.246709108352661, 8.363771915435791, 8.480365991592407, 8.597063064575195, 8.713943004608154, 8.830847978591919, 8.947510957717896, 9.064291000366211, 9.181049108505249, 9.29788088798523, 9.414958953857422, 9.531373977661133, 9.648291110992432, 9.76488995552063, 9.8817880153656, 9.998632907867432, 10.220237016677856]	[6.11636762022765, 6.23303428688765, 7.216034286887649, 7.382734286887649, 8.132734286887649, 8.24940095354765, 8.36606762020765, 8.48273428686765, 8.59940095352765, 8.716067620187651, 8.832734286847652, 8.949400953507652, 9.066067620167653, 9.182734286827653, 9.299400953487654, 9.416067620147654, 9.532734286807655, 9.649400953467655, 9.766067620127656, 9.882734286787656, 9.999400953447656, 10.232734286780989]	2021_Feb_04_1423	59.94920266478761	1	0.375
23	3	FALSE	NA	a	['T', 'H', 'V', 'E', 'W', 'Z', 'A', 'B', 'X', 'S', 'M', 'C', 'U', 'K', 'G', 'N']	[1888, 986, 2245, 904, 2448, 2911, 697, 760, 4000, 1731, 1224, 829, 2059, 1122, 944, 1335]	9	Present	NA	NA	PRESENT	0.21883010864257812	12.212574005126951	14.217301845550535	14.917309951742226	15.26731185907086	18.336602926254272	4.119301080703735	[12.234375, 12.351012945175171, 13.319926977157593, 13.502285957336426, 14.253154039382935, 14.369942903518677, 14.486735105514526, 14.603580951690674, 14.72023606300354, 14.837225914001465, 14.953999996185303, 15.07039999961853, 15.187294960021973, 15.304171085357666, 15.420932054519653, 15.537759065628052, 15.654484033584595, 15.771450996398926, 15.888087034225464, 16.004968881607056, 16.121783018112183, 16.336602926254272]	[12.232734286780989, 12.34940095344099, 13.33240095344099, 13.49910095344099, 14.24910095344099, 14.365767620100991, 14.482434286760991, 14.599100953420992, 14.715767620080992, 14.832434286740993, 14.949100953400993, 15.065767620060994, 15.182434286720994, 15.299100953380995, 15.415767620040995, 15.532434286700996, 15.649100953360996, 15.765767620020997, 15.882434286680997, 15.999100953340998, 16.115767620000998, 16.349100953334332]	2021_Feb_04_1423	59.94920266478761	1	0.375
23	4	FALSE	NA	a	['P', 'U', 'R', 'G', 'H', 'J', 'V', 'A', 'K', 'X', 'Y', 'B', 'Z', 'C', 'S', 'T']	[1456, 2059, 1587, 944, 986, 1029, 2245, 697, 1122, 4000, 2670, 760, 2911, 829, 1731, 1888]	10	Present	NA	NA	PRESENT	0.29608917236328125	18.335482835769653	20.333703994750977	21.15037852918409	21.5003806749313	24.452970027923584	4.119266033172607	[18.35728406906128, 18.474313020706177, 19.436294078826904, 19.608803033828735, 20.376157999038696, 20.476242065429688, 20.592917919158936, 20.709779977798462, 20.82676100730896, 20.943399906158447, 21.060307025909424, 21.176980018615723, 21.293872117996216, 21.410552978515625, 21.5273699760437, 21.6441810131073, 21.76105809211731, 21.877702951431274, 21.994405031204224, 22.111308097839355, 22.228020906448364, 22.452969074249268]	[18.349100953334332, 18.46576761999433, 19.44876761999433, 19.61546761999433, 20.36546761999433, 20.48213428665433, 20.598800953314328, 20.715467619974326, 20.832134286634325, 20.948800953294324, 21.065467619954322, 21.18213428661432, 21.29880095327432, 21.41546761993432, 21.532134286594317, 21.648800953254316, 21.765467619914315, 21.882134286574313, 21.998800953234312, 22.11546761989431, 22.23213428655431, 22.465467619887644]	2021_Feb_04_1423	59.94920266478761	1	0.375
23	5	FALSE	NN	a	['W', 'E', 'J', 'Y', 'B', 'V', 'C', 'M', 'K', 'U', 'Z', 'P', 'G', 'H', 'T', 'N']	[2448, 904, 1029, 2670, 760, 2245, 829, 1224, 1122, 2059, 2911, 1456, 944, 986, 1888, 1335]	8	Absent	NA	NA	ABSENT	0.07664990425109863	24.44213891029358	26.44998598098755	27.033326228426343	27.383328135754976	30.569336891174316	4.119350910186768	[24.463939905166626, 24.580568075180054, 25.552656888961792, 25.73190402984619, 26.482583045959473, 26.59939694404602, 26.71632695198059, 26.833009958267212, 26.949697017669678, 27.06670594215393, 27.183377027511597, 27.300101041793823, 27.416901111602783, 27.53373908996582, 27.65032696723938, 27.76736307144165, 27.884057998657227, 28.000646114349365, 28.117477893829346, 28.234482049942017, 28.351088047027588, 28.5693359375]	[24.465467619887644, 24.582134286547642, 25.565134286547643, 25.73183428654764, 26.48183428654764, 26.59850095320764, 26.71516761986764, 26.831834286527638, 26.948500953187636, 27.065167619847635, 27.181834286507634, 27.298500953167633, 27.41516761982763, 27.53183428648763, 27.64850095314763, 27.765167619807627, 27.881834286467626, 27.998500953127625, 28.115167619787623, 28.231834286447622, 28.34850095310762, 28.581834286440955]	2021_Feb_04_1423	59.94920266478761	1	0.375
23	6	FALSE	NA	a	['K', 'S', 'U', 'C', 'M', 'J', 'B', 'T', 'P', 'A', 'Y', 'N', 'X', 'Z', 'H', 'V']	[1122, 1731, 2059, 829, 1224, 1029, 760, 1888, 1456, 697, 2670, 1335, 4000, 2911, 986, 2245]	13	Present	NA	NA	PRESENT	0.00991106033325195	30.565335988998413	32.56656885147095	33.73324267062832	34.083244577956954	36.68570399284363	4.119135141372681	[30.587138891220093, 30.703793048858643, 31.669028997421265, 31.854697942733765, 32.605611085891724, 32.72242093086243, 32.83933091163635, 32.956172943115234, 33.07293200492859, 33.189533948898315, 33.30642604827881, 33.42319893836975, 33.539937019348145, 33.65682101249695, 33.77377200126648, 33.87347388267517, 33.99036693572998, 34.107134103775024, 34.22382998466492, 34.34069108963013, 34.45747399330139, 34.68570399284363]	[30.581834286440955, 30.698500953100954, 31.681500953100954, 31.848200953100953, 32.59820095310096, 32.71486761976096, 32.83153428642096, 32.94820095308096, 33.064867619740966, 33.18153428640097, 33.29820095306097, 33.41486761972097, 33.531534286380975, 33.64820095304098, 33.76486761970098, 33.88153428636098, 33.998200953020984, 34.114867619680986, 34.23153428634099, 34.34820095300099, 34.46486761966099, 34.69820095299433]	2021_Feb_04_1423	59.94920266478761	1	0.375
23	7	FALSE	NA	a	['N', 'E', 'P', 'R', 'G', 'U', 'A', 'T', 'W', 'C', 'X', 'H', 'S', 'J', 'Y', 'K']	[1335, 904, 1456, 1587, 944, 2059, 697, 1888, 2448, 829, 4000, 986, 1731, 1029, 2670, 1122]	11	Present	NA	NA	PRESENT	0.63848114013671875	36.67159581184387	38.68280792236328	39.61614936187497	39.96615222287792	42.80206990242005	4.119261980056763	[36.6933970451355, 36.81002688407898, 37.78539490699768, 37.9614360332489, 38.712071895599365, 38.82890295982361, 38.945838928222656, 39.062560081481934, 39.179397106170654, 39.296128034591675, 39.41273903846741, 39.529731035232544, 39.64636707305908, 39.763386964797974, 39.88007092475891, 39.9968159198761, 40.11342811584473, 40.230437994003296, 40.34706902503967, 40.46428990364075, 40.58069610595703, 40.802069902420044]	[36.69820095299433, 36.81486761965433, 37.797867619654326, 37.964567619654325, 38.714567619654325, 38.83123428631433, 38.94790095297433, 39.06456761963433, 39.181234286294334, 39.297900952954336, 39.41456761961434, 39.53123428627434, 39.64790095293434, 39.764567619594345, 39.88123428625435, 39.99790095291435, 40.11456761957435, 40.231234286234354, 40.347900952894356, 40.46456761955436, 40.58123428621436, 40.814567619547695]	2021_Feb_04_1423	59.94920266478761	1	0.375
23	8	FALSE	NN	a	['Y', 'E', 'R', 'G', 'H', 'K', 'P', 'M', 'C', 'U', 'N', 'S', 'A', 'B', 'V', 'Z']	[2670, 904, 1587, 944, 986, 1122, 1456, 1224, 829, 2059, 1335, 1731, 697, 760, 2245, 2911]	14	Absent	NA	NA	ABSENT	0.3789479732513428	42.79467797279358	44.799285888671875	46.08262732816357	46.4326292354922	48.918437004089355	4.1191511154174805	[42.81647992134094, 42.93320608139038, 43.901758909225464, 44.08431792259216, 44.835185050964355, 44.952117919921875, 45.06867289543152, 45.185691118240356, 45.30230093002319, 45.419203996658325, 45.53610897064209, 45.65280103683472, 45.769562005996704, 45.8864860534668, 46.00307607650757, 46.11996603012085, 46.236732959747314, 46.35353708267212, 46.47020506858826, 46.586992025375366, 46.703938007354736, 46.91843605041504]	[42.814567619547695, 42.9312342862077, 43.914234286207694, 44.08093428620769, 44.83093428620769, 44.947600952867695, 45.0642676195277, 45.1809342861877, 45.2976009528477, 45.414267619507704, 45.53093428616771, 45.64760095282771, 45.76426761948771, 45.88093428614771, 45.997600952807716, 46.11426761946772, 46.23093428612772, 46.34760095278772, 46.464267619447725, 46.58093428610773, 46.69760095276773, 46.93093428610106]	2021_Feb_04_1423	59.94920266478761	1	0.375
23	9	FALSE	NN	a	['K', 'A', 'M', 'P', 'W', 'B', 'U', 'T', 'R', 'C', 'E', 'V', 'Z', 'J', 'N', 'G']	[1122, 697, 1224, 1456, 2448, 760, 2059, 1888, 1587, 829, 904, 2245, 2911, 1029, 1335, 944]	14	Absent	NA	NA	ABSENT	0.04030299186706543	48.91785097122192	50.915424823760986	52.19876626325268	52.548767216906995	55.03480291366577	4.119378089904785	[48.93965411186218, 49.05641198158264, 50.01812791824341, 50.190731048583984, 50.95864009857178, 51.058290004730225, 51.175270080566406, 51.291943073272705, 51.40886306762695, 51.52560210227966, 51.642306089401245, 51.75928497314453, 51.875839948654175, 51.99274802207947, 52.10946011543274, 52.226370096206665, 52.34295892715454, 52.45987391471863, 52.576788902282715, 52.69349193572998, 52.81030297279358, 53.034801959991455]	[48.93093428610106, 49.047600952761066, 50.03060095276106, 50.19730095276106, 50.94730095276106, 51.063967619421064, 51.180634286081066, 51.29730095274107, 51.41396761940107, 51.53063428606107, 51.647300952721075, 51.76396761938108, 51.88063428604108, 51.99730095270108, 52.113967619361084, 52.230634286021086, 52.34730095268109, 52.46396761934109, 52.58063428600109, 52.697300952661095, 52.8139676193211, 53.04730095265443]	2021_Feb_04_1423	59.94920266478761	1	0.375
23	10	FALSE	NA	a	['M', 'J', 'N', 'G', 'C', 'S', 'Z', 'K', 'X', 'W', 'U', 'E', 'H', 'V', 'T', 'Y']	[1224, 1029, 1335, 944, 829, 1731, 2911, 1122, 4000, 2448, 2059, 904, 986, 2245, 1888, 2670]	9	Present	NA	NA	PRESENT	0.10903310775756836	55.02425789833069	57.03188180923462	57.73188991542631	58.08189301484784	61.15117001533508	4.119288206100464	[55.046058893203735, 55.16260504722595, 56.1344940662384, 56.31406903266907, 57.06465196609497, 57.18140411376953, 57.29820990562439, 57.41526794433594, 57.53180003166199, 57.64862394332886, 57.765620946884155, 57.88222002983093, 57.99920201301575, 58.115840911865234, 58.23274898529053, 58.34953808784485, 58.46618604660034, 58.58309292793274, 58.69967603683472, 58.816723108291626, 58.93346691131592, 59.15117001533508]	[55.04730095265443, 55.163967619314434, 56.14696761931443, 56.31366761931443, 57.06366761931443, 57.18033428597443, 57.297000952634434, 57.413667619294436, 57.53033428595444, 57.64700095261444, 57.76366761927444, 57.880334285934445, 57.99700095259445, 58.11366761925445, 58.23033428591445, 58.347000952574454, 58.46366761923446, 58.58033428589446, 58.69700095255446, 58.81366761921446, 58.930334285874466, 59.1636676192078]	2021_Feb_04_1423	59.94920266478761	1	0.375
23	11	FALSE	NV	a	['C', 'Z', 'J', 'W', 'Y', 'B', 'N', 'X', 'G', 'S', 'R', 'H', 'T', 'P', 'A', 'U']	[829, 2911, 1029, 2448, 2670, 760, 1335, 4000, 944, 1731, 1587, 986, 1888, 1456, 697, 2059]	8	Present	NA	NA	PRESENT	0.15431499481201172	61.14745092391968	63.14834690093994	63.73168834047163	64.08169024780027	67.2675359249115	4.119189023971558	[61.16925311088562, 61.285725116729736, 62.250860929489136, 62.43694806098938, 63.187777042388916, 63.30469989776611, 63.42145299911499, 63.538069009780884, 63.65495991706848, 63.7717649936676, 63.888628005981445, 63.98853588104248, 64.12208294868469, 64.22219109535217, 64.33892607688904, 64.45579099655151, 64.57254195213318, 64.68925309181213, 64.80603909492493, 64.92283201217651, 65.03964400291443, 65.2675359249115]	[61.1636676192078, 61.2803342858678, 62.2633342858678, 62.4300342858678, 63.1800342858678, 63.2967009525278, 63.4133676191878, 63.530034285847805, 63.64670095250781, 63.76336761916781, 63.88003428582781, 63.996700952487814, 64.11336761914781, 64.2300342858078, 64.3467009524678, 64.4633676191278, 64.58003428578779, 64.69670095244778, 64.81336761910778, 64.93003428576777, 65.04670095242777, 65.2800342857611]	2021_Feb_04_1423	59.94920266478761	1	0.375
23	12	FALSE	NV	a	['B', 'E', 'P', 'C', 'K', 'G', 'U', 'S', 'Z', 'Y', 'N', 'X', 'V', 'R', 'J', 'H']	[760, 904, 1456, 829, 1122, 944, 2059, 1731, 2911, 2670, 1335, 4000, 2245, 1587, 1029, 986]	12	Present	NA	NA	ABSENT	0.4707798957824707	67.25369191169739	69.26452898979187	70.31453685754498	70.6645378111993	73.38390398025513	4.119374990463257	[67.27549290657043, 67.39226794242859, 68.36722707748413, 68.54361891746521, 69.29421305656433, 69.4110050201416, 69.52786898612976, 69.64472508430481, 69.76144409179688, 69.8782958984375, 69.99489307403564, 70.1118700504303, 70.22853088378906, 70.34551811218262, 70.46247005462646, 70.57892298698425, 70.69576001167297, 70.81241011619568, 70.92921900749207, 71.04601311683655, 71.16283798217773, 71.38390398025513]	[67.2800342857611, 67.3967009524211, 68.3797009524211, 68.54640095242111, 69.29640095242111, 69.4130676190811, 69.5297342857411, 69.6464009524011, 69.76306761906109, 69.87973428572109, 69.99640095238108, 70.11306761904108, 70.22973428570107, 70.34640095236107, 70.46306761902106, 70.57973428568106, 70.69640095234105, 70.81306761900105, 70.92973428566104, 71.04640095232104, 71.16306761898103, 71.39640095231437]	2021_Feb_04_1423	59.94920266478761	1	0.375
23	13	FALSE	AV	a	['R', 'Y', 'K', 'U', 'V', 'G', 'J', 'surprise', 'B', 'N', 'X', 'P', 'E', 'H', 'C', 'Z']	[1587, 2670, 1122, 2059, 2245, 944, 1029, 'stimAuditory/all_stimAuditory/121.wav', 760, 1335, 4000, 1456, 904, 986, 829, 2911]	11	Present	stimAuditory/all_stimAuditory/121.wav	NA	ABSENT	1.827012062072754	73.37717080116272	75.38115787506104	76.31449836089841	76.66450026822704	79.50026893615723	4.119111061096191	[73.39897298812866, 73.51548290252686, 74.48359298706055, 74.66650605201721, 75.41721296310425, 75.53414607048035, 75.65089988708496, 75.76785206794739, 75.88446497917175, 76.00133299827576, 76.11801600456238, 76.23499393463135, 76.35167908668518, 76.46834301948547, 76.58523106575012, 76.70191597938538, 76.81880903244019, 76.93575191497803, 77.05250597000122, 77.16911602020264, 77.28607296943665, 77.50026893615723]	[73.39640095231437, 73.51306761897436, 74.49606761897437, 74.66276761897437, 75.41276761897437, 75.52943428563437, 75.64610095229436, 75.76276761895436, 75.87943428561435, 75.99610095227435, 76.11276761893434, 76.22943428559434, 76.34610095225433, 76.46276761891433, 76.57943428557432, 76.69610095223432, 76.81276761889431, 76.92943428555431, 77.0461009522143, 77.1627676188743, 77.2794342855343, 77.51276761886763]	2021_Feb_04_1423	59.94920266478761	1	0.375
23	14	FALSE	NV	a	['A', 'V', 'Y', 'P', 'G', 'Z', 'K', 'B', 'N', 'M', 'W', 'E', 'C', 'X', 'T', 'R']	[697, 2245, 2670, 1456, 944, 2911, 1122, 760, 1335, 1224, 2448, 904, 829, 4000, 1888, 1587]	14	Present	NA	NA	PRESENT	0.18448281288146973	79.49993801116943	81.49731087684631	82.78065327001232	83.13065517734096	85.61663699150085	4.119326114654541	[79.52173900604248, 79.63883090019226, 80.59995889663696, 80.77318000793457, 81.54046607017517, 81.64047598838806, 81.75749397277832, 81.8742311000824, 81.99097204208374, 82.10780096054077, 82.22454690933228, 82.34140396118164, 82.45798993110657, 82.57493209838867, 82.69181299209595, 82.80860805511475, 82.92516803741455, 83.04217100143433, 83.15871596336365, 83.27568411827087, 83.39232802391052, 83.61663699150085]	[79.51276761886763, 79.62943428552762, 80.61243428552763, 80.77913428552763, 81.52913428552763, 81.64580095218763, 81.76246761884762, 81.87913428550762, 81.99580095216761, 82.11246761882761, 82.2291342854876, 82.3458009521476, 82.4624676188076, 82.57913428546759, 82.69580095212758, 82.81246761878758, 82.92913428544757, 83.04580095210757, 83.16246761876756, 83.27913428542756, 83.39580095208755, 83.62913428542089]	2021_Feb_04_1423	59.94920266478761	1	0.375
23	15	FALSE	NA	a	['E', 'G', 'V', 'T', 'S', 'M', 'W', 'N', 'X', 'J', 'R', 'K', 'Z', 'Y', 'H', 'A']	[904, 944, 2245, 1888, 1731, 1224, 2448, 1335, 4000, 1029, 1587, 1122, 2911, 2670, 986, 697]	9	Present	NA	NA	PRESENT	0.10896801948547365	85.60631489753723	87.6139190196991	88.3139268874722	88.66393880838116	91.73300290107728	4.119083881378174	[85.62811493873596, 85.74491906166077, 86.71632504463196, 86.89623498916626, 87.64676690101624, 87.7638099193573, 87.8803939819336, 87.99720311164856, 88.11400008201599, 88.23088192939758, 88.34762001037598, 88.46446108818054, 88.5811378955841, 88.69788694381714, 88.81482791900635, 88.93148708343506, 89.04844403266907, 89.16502904891968, 89.28203701972961, 89.39879989624023, 89.51554894447327, 89.73300290107727]	[85.62913428542089, 85.74580095208088, 86.72880095208089, 86.8955009520809, 87.6455009520809, 87.76216761874089, 87.87883428540088, 87.99550095206088, 88.11216761872087, 88.22883428538087, 88.34550095204087, 88.46216761870086, 88.57883428536086, 88.69550095202085, 88.81216761868085, 88.92883428534084, 89.04550095200084, 89.16216761866083, 89.27883428532083, 89.39550095198082, 89.51216761864082, 89.74550095197415]	2021_Feb_04_1423	59.94920266478761	1	0.375
23	16	FALSE	NA	a	['K', 'G', 'Y', 'B', 'H', 'J', 'U', 'X', 'S', 'Z', 'M', 'W', 'R', 'A', 'P', 'C']	[1122, 944, 2670, 760, 986, 1029, 2059, 4000, 1731, 2911, 1224, 2448, 1587, 697, 1456, 829]	8	Present	NA	NA	PRESENT	0.21851396560668945	91.72955679893494	93.72994685173036	94.31328829126204	94.66329019859069	97.84937000274658	4.119423151016235	[91.75135898590088, 91.86783409118652, 92.8326940536499, 93.01923990249634, 93.77012491226196, 93.88677406311035, 94.00374102592468, 94.12017893791199, 94.23728394508362, 94.35401010513306, 94.45382189750671, 94.57063794136047, 94.68750500679016, 94.80430293083191, 94.92106199264526, 95.03787589073181, 95.15473008155823, 95.2714900970459, 95.3882429599762, 95.50508093833923, 95.62178707122803, 95.84937000274658]	[91.74550095197415, 91.86216761863415, 92.84516761863415, 93.01186761863416, 93.76186761863416, 93.87853428529415, 93.99520095195415, 94.11186761861414, 94.22853428527414, 94.34520095193413, 94.46186761859413, 94.57853428525412, 94.69520095191412, 94.81186761857411, 94.92853428523411, 95.0452009518941, 95.1618676185541, 95.27853428521409, 95.39520095187409, 95.51186761853408, 95.62853428519408, 95.86186761852741]	2021_Feb_04_1423	59.94920266478761	1	0.375
23	17	FALSE	NV	a	['S', 'H', 'M', 'G', 'A', 'U', 'K', 'B', 'T', 'Y', 'E', 'C', 'N', 'X', 'W', 'J']	[1731, 986, 1224, 944, 697, 2059, 1122, 760, 1888, 2670, 904, 829, 1335, 4000, 2448, 1029]	14	Present	NA	NA	PRESENT	0.2231018543243408	97.8358278274536	99.84646701812744	101.12980821920056	101.4798101265292	103.9657371044159	4.119270086288452	[97.85762906074524, 97.97437405586243, 98.94906091690063, 99.12568807601929, 99.87637591362, 99.993243932724, 100.10984110832214, 100.22690200805664, 100.34350109100342, 100.46040797233582, 100.57706594467163, 100.69405102729797, 100.81071090698242, 100.92766094207764, 101.04448294639587, 101.16119408607483, 101.27789306640625, 101.39472389221191, 101.51174092292786, 101.62838101387024, 101.7451400756836, 101.965735912323]	[97.86186761852741, 97.97853428518741, 98.96153428518741, 99.12823428518742, 99.87823428518742, 99.99490095184741, 100.11156761850741, 100.2282342851674, 100.3449009518274, 100.4615676184874, 100.57823428514739, 100.69490095180738, 100.81156761846738, 100.92823428512737, 101.04490095178737, 101.16156761844736, 101.27823428510736, 101.39490095176735, 101.51156761842735, 101.62823428508734, 101.74490095174734, 101.97823428508067]	2021_Feb_04_1423	59.94920266478761	1	0.375
23	18	FALSE	VV	a	['W', 'A', 'G', 'H', 'K', 'S', 'C', 'V', 'J', 'U', 'surprise', 'P', 'R', 'X', 'E', 'B']	[2448, 697, 944, 986, 1122, 1731, 829, 2245, 1029, 2059, 'stimAuditory/all_stimAuditory/208.wav', 1456, 1587, 4000, 904, 760]	14	Present	NA	NA	PRESENT	0.7474920749664307	103.95895600318909	105.96273398399352	107.24607423139231	107.59607613872096	110.08210301399232	4.119369029998779	[103.98075699806213, 104.0976300239563, 105.06542706489563, 105.24861192703247, 105.99944305419922, 106.11625289916992, 106.23314595222473, 106.34977793693542, 106.46669411659241, 106.58329796791077, 106.70023488998413, 106.81706690788269, 106.93378901481628, 107.05047702789307, 107.16738200187683, 107.2843189239502, 107.40112805366516, 107.5179169178009, 107.63486194610596, 107.75154495239258, 107.86826491355896, 108.082102060318]	[103.97823428508067, 104.09490095174067, 105.07790095174067, 105.24460095174068, 105.99460095174068, 106.11126761840067, 106.22793428506067, 106.34460095172066, 106.46126761838066, 106.57793428504066, 106.69460095170065, 106.81126761836065, 106.92793428502064, 107.04460095168064, 107.16126761834063, 107.27793428500063, 107.39460095166062, 107.51126761832062, 107.62793428498061, 107.7446009516406, 107.8612676183006, 108.09460095163394]	2021_Feb_04_1423	59.94920266478761	1	0.375
23	19	FALSE	NV	a	['P', 'H', 'S', 'V', 'C', 'G', 'K', 'Y', 'B', 'M', 'J', 'X', 'N', 'A', 'Z', 'W']	[1456, 986, 1731, 2245, 829, 944, 1122, 2670, 760, 1224, 1029, 4000, 1335, 697, 2911, 2448]	12	Present	NA	NA	PRESENT	0.6729609966278076	110.08191800117493	112.07918500900269	113.1291928767558	113.479195022503	116.19847011566162	4.1192851066589355	[110.10371899604797, 110.20370602607727, 111.18179297447205, 111.35526990890503, 112.1061110496521, 112.22278308868408, 112.3395791053772, 112.45637392997742, 112.5729649066925, 112.6900041103363, 112.80657696723938, 112.92350697517395, 113.04007911682129, 113.15699005126953, 113.2737889289856, 113.3907299041748, 113.50731205940247, 113.62410593032837, 113.74100494384766, 113.8578360080719, 113.97469592094421, 114.19847011566162]	[110.09460095163394, 110.21126761829393, 111.19426761829394, 111.36096761829394, 112.11096761829394, 112.22763428495394, 112.34430095161393, 112.46096761827393, 112.57763428493392, 112.69430095159392, 112.81096761825391, 112.9276342849139, 113.0443009515739, 113.1609676182339, 113.27763428489389, 113.39430095155389, 113.51096761821388, 113.62763428487388, 113.74430095153387, 113.86096761819387, 113.97763428485386, 114.2109676181872]	2021_Feb_04_1423	59.94920266478761	1	0.375
23	20	FALSE	NV	a	['Z', 'C', 'N', 'Y', 'J', 'G', 'E', 'R', 'T', 'P', 'V', 'U', 'W', 'X', 'A', 'K']	[2911, 829, 1335, 2670, 1029, 944, 904, 1587, 1888, 1456, 2245, 2059, 2448, 4000, 697, 1122]	14	Present	NA	NA	PRESENT	0.21329903602600095	116.1883327960968	118.19561386108398	119.47895530057568	119.82895720790432	122.31483697891235	4.119223117828369	[116.21013402938843, 116.32710289955139, 117.29816102981567, 117.47834205627441, 118.22902393341064, 118.34581995010376, 118.46257996559143, 118.57942795753479, 118.69614005088806, 118.81285905838013, 118.9298529624939, 119.04667901992798, 119.1632080078125, 119.28010511398315, 119.39697098731995, 119.51382899284363, 119.63048601150513, 119.74723196029663, 119.86429905891418, 119.98087406158447, 120.09778594970703, 120.31483697891235]	[116.2109676181872, 116.32763428484719, 117.3106342848472, 117.4773342848472, 118.2273342848472, 118.3440009515072, 118.4606676181672, 118.57733428482719, 118.69400095148718, 118.81066761814718, 118.92733428480717, 119.04400095146717, 119.16066761812716, 119.27733428478716, 119.39400095144715, 119.51066761810715, 119.62733428476714, 119.74400095142714, 119.86066761808713, 119.97733428474713, 120.09400095140712, 120.32733428474046]	2021_Feb_04_1423	59.94920266478761	1	0.375
23	21	FALSE	VA	a	['P', 'V', 'U', 'Y', 'B', 'G', 'K', 'surprise', 'N', 'E', 'X', 'W', 'A', 'S', 'M', 'Z']	[1456, 2245, 2059, 2670, 760, 944, 1122, 'stimAuditory/all_stimAuditory/212.wav', 1335, 904, 4000, 2448, 697, 1731, 1224, 2911]	11	Present	NA	NA	PRESENT	0.25055384635925293	122.31193900108336	124.31187987327576	125.24522035911312	125.59522226644177	128.43120193481445	4.119322061538696	[122.33374094963074, 122.45002889633179, 123.41452693939209, 123.60139608383179, 124.3522310256958, 124.46902298927307, 124.58569288253784, 124.70261693000793, 124.8024549484253, 124.91925692558289, 125.03610396385193, 125.15288710594177, 125.26965093612671, 125.38644599914551, 125.50324201583862, 125.62003898620605, 125.736820936203, 125.85362792015076, 125.9704179763794, 126.08744192123413, 126.2041380405426, 126.43120098114014]	[122.32733428474046, 122.44400095140045, 123.42700095140046, 123.59370095140046, 124.34370095140046, 124.46036761806046, 124.57703428472045, 124.69370095138045, 124.81036761804044, 124.92703428470044, 125.04370095136044, 125.16036761802043, 125.27703428468043, 125.39370095134042, 125.51036761800042, 125.62703428466041, 125.7437009513204, 125.8603676179804, 125.9770342846404, 126.09370095130039, 126.21036761796039, 126.44370095129372]	2021_Feb_04_1423	59.94920266478761	1	0.375
23	22	FALSE	NV	a	['P', 'T', 'B', 'E', 'N', 'M', 'Y', 'J', 'Z', 'W', 'S', 'X', 'K', 'C', 'U', 'H']	[1456, 1888, 760, 904, 1335, 1224, 2670, 1029, 2911, 2448, 1731, 4000, 1122, 829, 2059, 986]	12	Present	NA	NA	PRESENT	0.14313316345214844	128.4181468486786	130.4283218383789	131.4783289908763	131.8283308982049	134.54756903648376	4.119247198104858	[128.43994903564453, 128.55668592453003, 129.53089094161987, 129.70782494544983, 130.45852494239807, 130.57547998428345, 130.69212794303894, 130.80891704559326, 130.92569994926453, 131.04261302947998, 131.1592240333557, 131.2761869430542, 131.39276099205017, 131.5100998878479, 131.62636494636536, 131.74336409568787, 131.85998702049255, 131.97674798965454, 132.09377908706665, 132.21030688285828, 132.3273220062256, 132.54756903648376]	[128.44370095129372, 128.56036761795372, 129.54336761795372, 129.7100676179537, 130.4600676179537, 130.5767342846137, 130.6934009512737, 130.8100676179337, 130.9267342845937, 131.0434009512537, 131.16006761791368, 131.27673428457368, 131.39340095123367, 131.51006761789367, 131.62673428455366, 131.74340095121366, 131.86006761787365, 131.97673428453365, 132.09340095119364, 132.21006761785364, 132.32673428451363, 132.56006761784695]	2021_Feb_04_1423	59.94920266478761	1	0.375
23	23	FALSE	NA	a	['W', 'J', 'Z', 'K', 'M', 'E', 'R', 'N', 'X', 'C', 'P', 'S', 'V', 'T', 'Y', 'H']	[2448, 1029, 2911, 1122, 1224, 904, 1587, 1335, 4000, 829, 1456, 1731, 2245, 1888, 2670, 986]	9	Present	NA	NA	PRESENT	0.14775395393371582	134.5410499572754	136.54460191726685	137.2446100234585	137.59461097711286	140.6639370918274	4.119335174560547	[134.56285095214844, 134.67977094650269, 135.64726305007935, 135.83078503608704, 136.5817210674286, 136.69846892356873, 136.81539511680603, 136.93218398094177, 137.0489330291748, 137.1654179096222, 137.2824010848999, 137.39908599853516, 137.5160849094391, 137.63284611701965, 137.749694108963, 137.8663489818573, 137.98329210281372, 138.09996891021729, 138.2167010307312, 138.33346009254456, 138.450364112854, 138.6639370918274]	[134.56006761784695, 134.67673428450695, 135.65973428450695, 135.82643428450695, 136.57643428450695, 136.69310095116694, 136.80976761782694, 136.92643428448693, 137.04310095114693, 137.15976761780692, 137.27643428446692, 137.3931009511269, 137.5097676177869, 137.6264342844469, 137.7431009511069, 137.8597676177669, 137.9764342844269, 138.09310095108688, 138.20976761774688, 138.32643428440687, 138.44310095106687, 138.6764342844002]	2021_Feb_04_1423	59.94920266478761	1	0.375
23	24	FALSE	NN	a	['U', 'Y', 'B', 'K', 'G', 'C', 'T', 'H', 'R', 'J', 'V', 'E', 'P', 'M', 'N', 'Z']	[2059, 2670, 760, 1122, 944, 829, 1888, 986, 1587, 1029, 2245, 904, 1456, 1224, 1335, 2911]	11	Absent	NA	NA	ABSENT	0.3930230140686035	140.64737486839294	142.66103601455688	143.59437626197567	143.94437816930431	146.7803030014038	4.119266986846924	[140.66917610168457, 140.78605699539185, 141.7636260986328, 141.9374759197235, 142.68806791305542, 142.8050239086151, 142.92176294326782, 143.0384819507599, 143.15526795387268, 143.272047996521, 143.3887848854065, 143.50560402870178, 143.62232899665833, 143.73924803733826, 143.85594391822815, 143.97284388542175, 144.08963203430176, 144.20650506019592, 144.3232889175415, 144.43988490104675, 144.55691695213318, 144.7803020477295]	[140.6764342844002, 140.79310095106018, 141.7761009510602, 141.94280095106018, 142.69280095106018, 142.80946761772017, 142.92613428438017, 143.04280095104016, 143.15946761770016, 143.27613428436015, 143.39280095102015, 143.50946761768014, 143.62613428434014, 143.74280095100013, 143.85946761766013, 143.97613428432012, 144.09280095098012, 144.20946761764012, 144.3261342843001, 144.4428009509601, 144.5594676176201, 144.79280095095342]	2021_Feb_04_1423	59.94920266478761	1	0.375
23	25	FALSE	NA	a	['H', 'W', 'A', 'N', 'T', 'Z', 'S', 'K', 'P', 'M', 'X', 'B', 'G', 'E', 'J', 'U']	[986, 2448, 697, 1335, 1888, 2911, 1731, 1122, 1456, 1224, 4000, 760, 944, 904, 1029, 2059]	11	Present	NA	NA	PRESENT	0.13381600379943848	146.77056980133057	148.77728486061096	149.71062630012264	150.0606282074513	152.89667010307312	4.119385242462158	[146.7923710346222, 146.90938210487366, 147.87999391555786, 148.0603768825531, 148.81127500534058, 148.92807006835938, 149.04484796524048, 149.16165900230408, 149.27827405929565, 149.39505696296692, 149.5117781162262, 149.6285638809204, 149.74550104141235, 149.86223602294922, 149.97918391227722, 150.095773935318, 150.21282291412354, 150.3293159008026, 150.446387052536, 150.56317496299744, 150.6799600124359, 150.89667010307312]	[146.79280095095342, 146.90946761761342, 147.89246761761342, 148.0591676176134, 148.8091676176134, 148.9258342842734, 149.0425009509334, 149.1591676175934, 149.2758342842534, 149.3925009509134, 149.50916761757338, 149.62583428423338, 149.74250095089337, 149.85916761755337, 149.97583428421336, 150.09250095087336, 150.20916761753335, 150.32583428419335, 150.44250095085334, 150.55916761751334, 150.67583428417333, 150.90916761750665]	2021_Feb_04_1423	59.94920266478761	1	0.375
23	26	FALSE	NA	a	['T', 'V', 'U', 'G', 'A', 'S', 'Y', 'M', 'K', 'Z', 'X', 'P', 'C', 'N', 'E', 'J']	[1888, 2245, 2059, 944, 697, 1731, 2670, 1224, 1122, 2911, 4000, 1456, 829, 1335, 904, 1029]	11	Present	NA	NA	PRESENT	0.7787280082702637	152.89396691322327	154.89386200904846	155.82720321014156	156.1772053558888	159.01303696632385	4.119174957275391	[152.9157691001892, 153.0324649810791, 153.99636006355286, 154.18360805511475, 154.93434810638428, 155.03430008888245, 155.1511800289154, 155.26793003082275, 155.38472604751587, 155.50141191482544, 155.61821007728577, 155.73500204086304, 155.85180592536926, 155.96859407424927, 156.08543395996094, 156.20216488838196, 156.3190450668335, 156.43574905395508, 156.55265092849731, 156.66933608055115, 156.7863700389862, 157.01303601264954]	[152.90916761750665, 153.02583428416665, 154.00883428416665, 154.17553428416664, 154.92553428416664, 155.04220095082664, 155.15886761748664, 155.27553428414663, 155.39220095080663, 155.50886761746662, 155.62553428412662, 155.7422009507866, 155.8588676174466, 155.9755342841066, 156.0922009507666, 156.2088676174266, 156.3255342840866, 156.44220095074658, 156.55886761740658, 156.67553428406657, 156.79220095072657, 157.0255342840599]	2021_Feb_04_1423	59.94920266478761	1	0.375
23	27	FALSE	NA	a	['E', 'J', 'M', 'A', 'W', 'R', 'Y', 'V', 'T', 'P', 'C', 'H', 'S', 'X', 'G', 'B']	[904, 1029, 1224, 697, 2448, 1587, 2670, 2245, 1888, 1456, 829, 986, 1731, 4000, 944, 760]	14	Present	NA	NA	PRESENT	0.15158510208129883	159.0000720024109	161.01010298728943	162.29344514203686	162.64344728778406	165.12940311431885	4.119300127029419	[159.02187299728394, 159.13880896568298, 160.1127269268036, 160.28989005088806, 161.0407199859619, 161.15770292282104, 161.27434992790222, 161.39100694656372, 161.5078639984131, 161.624675989151, 161.74140095710754, 161.85833096504211, 161.97499704360962, 162.09190392494202, 162.2086958885193, 162.3253209590912, 162.44265604019165, 162.55895495414734, 162.67592096328735, 162.7925410270691, 162.90945410728455, 163.12940192222595]	[159.0255342840599, 159.14220095071988, 160.1252009507199, 160.29190095071988, 161.04190095071988, 161.15856761737987, 161.27523428403987, 161.39190095069986, 161.50856761735986, 161.62523428401985, 161.74190095067985, 161.85856761733984, 161.97523428399984, 162.09190095065983, 162.20856761731983, 162.32523428397982, 162.44190095063982, 162.55856761729981, 162.6752342839598, 162.7919009506198, 162.9085676172798, 163.14190095061312]	2021_Feb_04_1423	59.94920266478761	1	0.375
23	28	FALSE	AA	a	['T', 'G', 'M', 'E', 'A', 'Y', 'V', 'K', 'surprise', 'S', 'P', 'X', 'Z', 'J', 'W', 'N']	[1888, 944, 1224, 904, 697, 2670, 2245, 1122, 'stimAuditory/all_stimAuditory/101.wav', 1731, 1456, 4000, 2911, 1029, 2448, 1335]	12	Present	stimAuditory/all_stimAuditory/208.wav	NA	PRESENT	1.4198288917541504	165.1232099533081	167.12652397155762	168.17653183931074	168.52653398505794	171.24576997756958	4.119246006011963	[165.14501094818115, 165.26186394691467, 166.2290940284729, 166.4130458831787, 167.1638960838318, 167.28068804740906, 167.3975920677185, 167.51425194740295, 167.63112902641296, 167.74778389930725, 167.86469888687134, 167.98138689994812, 168.0982871055603, 168.21497511863708, 168.33191394805908, 168.44864797592163, 168.56538200378418, 168.68210005760193, 168.79881811141968, 168.91558408737183, 169.03263592720032, 169.24576997756958]	[165.14190095061312, 165.25856761727312, 166.24156761727312, 166.4082676172731, 167.1582676172731, 167.2749342839331, 167.3916009505931, 167.5082676172531, 167.6249342839131, 167.7416009505731, 167.85826761723308, 167.97493428389308, 168.09160095055307, 168.20826761721307, 168.32493428387306, 168.44160095053306, 168.55826761719305, 168.67493428385305, 168.79160095051304, 168.90826761717304, 169.02493428383303, 169.25826761716635]	2021_Feb_04_1423	59.94920266478761	1	0.375
23	29	FALSE	NV	a	['J', 'G', 'H', 'A', 'U', 'Y', 'Z', 'T', 'N', 'S', 'W', 'R', 'E', 'X', 'C', 'M']	[1029, 944, 986, 697, 2059, 2670, 2911, 1888, 1335, 1731, 2448, 1587, 904, 4000, 829, 1224]	14	Present	NA	NA	PRESENT	0.27329206466674805	171.22957801818848	173.24288988113403	174.52623012853283	174.87623322795434	177.3621370792389	4.119247198104858	[171.2513780593872, 171.36816906929016, 172.34546089172363, 172.5196840763092, 173.27020502090454, 173.38696789741516, 173.5038080215454, 173.62070488929749, 173.73745489120483, 173.8542890548706, 173.97105193138123, 174.08787608146667, 174.2045021057129, 174.3212969303131, 174.43821907043457, 174.55486488342285, 174.67187690734863, 174.78840899467468, 174.9054310321808, 175.02208995819092, 175.13902497291565, 175.362135887146]	[171.25826761716635, 171.37493428382635, 172.35793428382635, 172.52463428382634, 173.27463428382634, 173.39130095048634, 173.50796761714633, 173.62463428380633, 173.74130095046633, 173.85796761712632, 173.97463428378632, 174.0913009504463, 174.2079676171063, 174.3246342837663, 174.4413009504263, 174.5579676170863, 174.6746342837463, 174.79130095040628, 174.90796761706628, 175.02463428372627, 175.14130095038627, 175.3746342837196]	2021_Feb_04_1423	59.94920266478761	1	0.375
23	30	FALSE	NN	a	['K', 'H', 'M', 'V', 'Y', 'T', 'Z', 'U', 'S', 'N', 'R', 'P', 'A', 'W', 'E', 'J']	[1122, 986, 1224, 2245, 2670, 1888, 2911, 2059, 1731, 1335, 1587, 1456, 697, 2448, 904, 1029]	11	Absent	NA	NA	ABSENT	0.5340139865875244	177.3526759147644	179.35918188095093	180.2925221283697	180.64252427411697	183.4785029888153	4.11932110786438	[177.37447690963745, 177.49146604537964, 178.46182799339294, 178.64256191253662, 179.3934030532837, 179.51030802726746, 179.62706208229065, 179.7437310218811, 179.86064100265503, 179.97734189033508, 180.09431791305542, 180.21104288101196, 180.32756090164185, 180.4443199634552, 180.56131196022034, 180.67789602279663, 180.79497289657593, 180.91168189048767, 181.02827405929565, 181.14518690109253, 181.26207399368286, 181.478502035141]	[177.3746342837196, 177.49130095037958, 178.4743009503796, 178.64100095037958, 179.39100095037958, 179.50766761703957, 179.62433428369957, 179.74100095035956, 179.85766761701956, 179.97433428367955, 180.09100095033955, 180.20766761699954, 180.32433428365954, 180.44100095031953, 180.55766761697953, 180.67433428363952, 180.79100095029952, 180.90766761695951, 181.0243342836195, 181.1410009502795, 181.2576676169395, 181.49100095027282]	2021_Feb_04_1423	59.94920266478761	1	0.375
23	31	FALSE	NN	a	['J', 'B', 'H', 'V', 'A', 'G', 'U', 'S', 'C', 'W', 'T', 'M', 'Z', 'E', 'N', 'R']	[1029, 760, 986, 2245, 697, 944, 2059, 1731, 829, 2448, 1888, 1224, 2911, 904, 1335, 1587]	12	Absent	NA	NA	ABSENT	0.40311121940612793	183.47607398033145	185.4756019115448	186.5256100177165	186.87561192504512	189.59487009048465	4.119268178939819	[183.49787497520447, 183.61453008651733, 184.5781910419464, 184.76581692695618, 185.51635909080505, 185.61648297309875, 185.7332890033722, 185.85007190704346, 185.96685695648193, 186.08368110656738, 186.20047307014465, 186.31732511520386, 186.4339690208435, 186.55069208145142, 186.6675510406494, 186.78459095954895, 186.90127301216125, 187.0180950164795, 187.1348180770874, 187.25152611732483, 187.36856508255005, 187.59486889839172]	[183.49100095027282, 183.60766761693282, 184.59066761693282, 184.7573676169328, 185.5073676169328, 185.6240342835928, 185.7407009502528, 185.8573676169128, 185.9740342835728, 186.0907009502328, 186.20736761689278, 186.32403428355278, 186.44070095021277, 186.55736761687277, 186.67403428353276, 186.79070095019276, 186.90736761685275, 187.02403428351275, 187.14070095017274, 187.25736761683274, 187.37403428349273, 187.60736761682605]	2021_Feb_04_1423	59.94920266478761	1	0.375
23	32	FALSE	VN	a	['H', 'W', 'T', 'P', 'surprise', 'C', 'U', 'S', 'J', 'E', 'Z', 'K', 'Y', 'V', 'M', 'G']	[986, 2448, 1888, 1456, 'stimAuditory/all_stimAuditory/222.wav', 829, 2059, 1731, 1029, 904, 2911, 1122, 2670, 2245, 1224, 944]	8	Absent	NA	NA	ABSENT	0.3998069763183594	189.58216881752017	191.5919618606567	192.17530330018843	192.52530520751705	195.71123600006104	4.119274139404297	[189.60397005081177, 189.72099804878235, 190.69456911087036, 190.87195205688477, 191.62288093566895, 191.73962306976318, 191.85643005371094, 191.97340297698975, 192.09009289741516, 192.20700597763062, 192.32373690605164, 192.4404730796814, 192.55740308761597, 192.6740939617157, 192.79087591171265, 192.90769410133362, 193.02443504333496, 193.14105796813965, 193.25811195373535, 193.37485790252686, 193.4919159412384, 193.71123600006104]	[189.60736761682605, 189.72403428348605, 190.70703428348605, 190.87373428348604, 191.62373428348604, 191.74040095014604, 191.85706761680603, 191.97373428346603, 192.09040095012602, 192.20706761678602, 192.32373428344602, 192.440400950106, 192.557067616766, 192.673734283426, 192.790400950086, 192.907067616746, 193.023734283406, 193.14040095006598, 193.25706761672598, 193.37373428338597, 193.49040095004597, 193.7237342833793]	2021_Feb_04_1423	59.94920266478761	1	0.375
23	33	FALSE	NA	a	['G', 'B', 'U', 'T', 'N', 'V', 'C', 'Z', 'W', 'E', 'R', 'X', 'Y', 'M', 'H', 'A']	[944, 760, 2059, 1888, 1335, 2245, 829, 2911, 2448, 904, 1587, 4000, 2670, 1224, 986, 697]	12	Present	NA	NA	PRESENT	0.09223389625549316	195.7054159641266	197.7084529399872	198.758459854066	199.1084619998132	201.82760310173035	4.119150161743164	[195.72721600532532, 195.8441309928894, 196.81092810630798, 196.99530291557312, 197.74604105949402, 197.86277294158936, 197.97956800460815, 198.09635210037231, 198.21313095092773, 198.3299810886383, 198.44693303108215, 198.56370997428894, 198.68030500411987, 198.79703998565674, 198.91380095481873, 199.0306589603424, 199.14757990837097, 199.26433205604553, 199.3810329437256, 199.4978768825531, 199.6146740913391, 199.82760310173035]	[195.7237342833793, 195.84040095003928, 196.8234009500393, 196.99010095003928, 197.74010095003928, 197.85676761669927, 197.97343428335927, 198.09010095001926, 198.20676761667926, 198.32343428333925, 198.44010094999925, 198.55676761665924, 198.67343428331924, 198.79010094997923, 198.90676761663923, 199.02343428329922, 199.14010094995922, 199.25676761661921, 199.3734342832792, 199.4901009499392, 199.6067676165992, 199.84010094993252]	2021_Feb_04_1423	59.94920266478761	1	0.375
23	34	FALSE	NV	a	['Z', 'N', 'E', 'B', 'M', 'G', 'U', 'R', 'P', 'X', 'H', 'A', 'S', 'Y', 'V', 'K']	[2911, 1335, 904, 760, 1224, 944, 2059, 1587, 1456, 4000, 986, 697, 1731, 2670, 2245, 1122]	10	Present	NA	NA	PRESENT	0.00965404510498046	201.8118019104004	203.8246088027954	204.6412835756471	204.99128548297577	207.94396996498108	4.119361162185669	[201.83360290527344, 201.95031189918518, 202.92729306221008, 203.10178899765015, 203.85270190238953, 203.96912693977356, 204.0860300064087, 204.20288610458374, 204.3197159767151, 204.43636202812195, 204.55316305160522, 204.66987204551697, 204.78695392608643, 204.90366792678833, 205.02030396461487, 205.13707208633423, 205.25394988059998, 205.37078094482422, 205.48753595352173, 205.60418391227722, 205.72097897529602, 205.94396996498108]	[201.84010094993252, 201.95676761659251, 202.93976761659252, 203.1064676165925, 203.8564676165925, 203.9731342832525, 204.0898009499125, 204.2064676165725, 204.3231342832325, 204.4398009498925, 204.55646761655248, 204.67313428321248, 204.78980094987247, 204.90646761653247, 205.02313428319246, 205.13980094985246, 205.25646761651245, 205.37313428317245, 205.48980094983244, 205.60646761649244, 205.72313428315243, 205.95646761648575]	2021_Feb_04_1423	59.94920266478761	1	0.375
23	35	FALSE	NN	a	['Z', 'H', 'S', 'M', 'P', 'G', 'U', 'C', 'R', 'E', 'W', 'Y', 'A', 'J', 'K', 'V']	[2911, 986, 1731, 1224, 1456, 944, 2059, 829, 1587, 904, 2448, 2670, 697, 1029, 1122, 2245]	14	Absent	NA	NA	ABSENT	0.01425600051879882	207.93497681617737	209.94105887413025	211.2244003136219	211.57440222095056	214.0603370666504	4.119278192520142	[207.95678806304932, 208.0735969543457, 209.0436589717865, 209.22484707832336, 209.97558188438416, 210.0923330783844, 210.20917296409607, 210.325856924057, 210.44290208816528, 210.55943703651428, 210.67642092704773, 210.7930359840393, 210.90998101234436, 211.0266819000244, 211.14367508888245, 211.26031589508057, 211.37695407867432, 211.49382209777832, 211.610680103302, 211.72744703292847, 211.84433007240295, 212.06033611297607]	[207.95646761648575, 208.07313428314575, 209.05613428314575, 209.22283428314574, 209.97283428314574, 210.08950094980574, 210.20616761646573, 210.32283428312573, 210.43950094978572, 210.55616761644572, 210.67283428310571, 210.7895009497657, 210.9061676164257, 211.0228342830857, 211.1395009497457, 211.2561676164057, 211.37283428306569, 211.48950094972568, 211.60616761638568, 211.72283428304567, 211.83950094970567, 212.072834283039]	2021_Feb_04_1423	59.94920266478761	1	0.375
23	36	FALSE	NV	a	['E', 'P', 'B', 'S', 'K', 'Y', 'A', 'M', 'J', 'X', 'N', 'R', 'V', 'U', 'C', 'G']	[904, 1456, 760, 1731, 1122, 2670, 697, 1224, 1029, 4000, 1335, 1587, 2245, 2059, 829, 944]	10	Present	NA	NA	PRESENT	0.0193638801574707	214.05846095085144	216.05727100372312	216.87394458448193	217.22394768390348	220.1767020225525	4.119431018829346	[214.0802628993988, 214.1965470314026, 215.16002702713013, 215.34803295135498, 216.09864211082458, 216.19865489006042, 216.3155128955841, 216.43225502967834, 216.54903888702393, 216.66582989692688, 216.78258609771729, 216.89939188957214, 217.01632499694824, 217.1329960823059, 217.24990797042847, 217.36659002304077, 217.48358297348022, 217.60023999214172, 217.71718406677246, 217.83393502235413, 217.950679063797, 218.1767029762268]	[214.072834283039, 214.18950094969898, 215.17250094969899, 215.33920094969898, 216.08920094969898, 216.20586761635897, 216.32253428301897, 216.43920094967896, 216.55586761633896, 216.67253428299895, 216.78920094965895, 216.90586761631894, 217.02253428297894, 217.13920094963893, 217.25586761629893, 217.37253428295892, 217.48920094961892, 217.6058676162789, 217.7225342829389, 217.8392009495989, 217.9558676162589, 218.18920094959222]	2021_Feb_04_1423	59.94920266478761	1	0.375
23	37	FALSE	NN	a	['Y', 'P', 'M', 'G', 'E', 'R', 'A', 'N', 'S', 'J', 'W', 'V', 'K', 'H', 'Z', 'T']	[2670, 1456, 1224, 944, 904, 1587, 697, 1335, 1731, 1029, 2448, 2245, 1122, 986, 2911, 1888]	10	Absent	NA	NA	ABSENT	0.12016701698303224	220.16456294059753	222.1738269329071	222.9905014673402	223.34050361308744	226.29307007789612	4.119243144989014	[220.18636298179626, 220.30307602882385, 221.27639389038086, 221.4543159008026, 222.20509910583496, 222.32177805900574, 222.43876099586487, 222.55560302734375, 222.67221999168396, 222.78899693489075, 222.90597796440125, 223.0225260257721, 223.13933300971985, 223.256196975708, 223.37320804595947, 223.49016690254211, 223.60665607452393, 223.72329211235046, 223.83999800682068, 223.95700097084045, 224.0737988948822, 224.29307007789612]	[220.18920094959222, 220.30586761625221, 221.28886761625222, 221.4555676162522, 222.2055676162522, 222.3222342829122, 222.4389009495722, 222.5555676162322, 222.6722342828922, 222.7889009495522, 222.90556761621218, 223.02223428287218, 223.13890094953217, 223.25556761619217, 223.37223428285216, 223.48890094951216, 223.60556761617215, 223.72223428283215, 223.83890094949214, 223.95556761615214, 224.07223428281213, 224.30556761614545]	2021_Feb_04_1423	59.94920266478761	1	0.375
23	38	FALSE	NV	a	['M', 'U', 'E', 'A', 'Z', 'H', 'T', 'C', 'W', 'B', 'R', 'X', 'K', 'J', 'Y', 'P']	[1224, 2059, 904, 697, 2911, 986, 1888, 829, 2448, 760, 1587, 4000, 1122, 1029, 2670, 1456]	12	Present	NA	NA	PRESENT	0.03657102584838867	226.28772687911987	228.29017686843872	229.3401859282847	229.69018688193904	232.40943694114685	4.11926007270813	[226.30952906608582, 226.42622303962708, 227.39275908470154, 227.57766199111938, 228.3282549381256, 228.44498109817505, 228.56196999549866, 228.67843890190125, 228.79547691345215, 228.91206693649292, 229.0291030406952, 229.14589500427246, 229.26252508163452, 229.37940311431885, 229.4961450099945, 229.6128261089325, 229.72962403297424, 229.8466100692749, 229.9631679058075, 230.0798909664154, 230.1967899799347, 230.40943694114685]	[226.30556761614545, 226.42223428280545, 227.40523428280545, 227.57193428280544, 228.32193428280544, 228.43860094946544, 228.55526761612543, 228.67193428278543, 228.78860094944542, 228.90526761610542, 229.02193428276541, 229.1386009494254, 229.2552676160854, 229.3719342827454, 229.4886009494054, 229.6052676160654, 229.72193428272539, 229.83860094938538, 229.95526761604538, 230.07193428270537, 230.18860094936537, 230.4219342826987]	2021_Feb_04_1423	59.94920266478761	1	0.375
23	39	FALSE	NA	a	['J', 'Z', 'H', 'T', 'C', 'B', 'A', 'E', 'M', 'U', 'X', 'W', 'N', 'S', 'K', 'Y']	[1029, 2911, 986, 1888, 829, 760, 697, 904, 1224, 2059, 4000, 2448, 1335, 1731, 1122, 2670]	11	Present	NA	NA	PRESENT	0.10584187507629396	232.3939709663391	234.40657901763916	235.33992021873223	235.6899223644795	238.52580404281616	4.119225025177002	[232.41577196121216, 232.5324730873108, 233.5091269016266, 233.68411898612976, 234.4345099925995, 234.55152106285095, 234.66816806793213, 234.7849678993225, 234.9018590450287, 235.01869988441467, 235.13534593582153, 235.25213193893433, 235.36882495880127, 235.48576593399048, 235.6027009487152, 235.71924209594727, 235.83618593215942, 235.95275688171387, 236.0697250366211, 236.1863729953766, 236.30336809158325, 236.52580308914185]	[232.4219342826987, 232.53860094935868, 233.52160094935869, 233.68830094935868, 234.43830094935868, 234.55496761601867, 234.67163428267867, 234.78830094933866, 234.90496761599866, 235.02163428265865, 235.13830094931865, 235.25496761597864, 235.37163428263864, 235.48830094929863, 235.60496761595863, 235.72163428261862, 235.83830094927862, 235.9549676159386, 236.0716342825986, 236.1883009492586, 236.3049676159186, 236.53830094925192]	2021_Feb_04_1423	59.94920266478761	1	0.375
23	40	FALSE	NV	a	['E', 'W', 'B', 'C', 'V', 'K', 'T', 'U', 'X', 'Y', 'H', 'S', 'Z', 'A', 'J', 'G']	[904, 2448, 760, 829, 2245, 1122, 1888, 2059, 4000, 2670, 986, 1731, 2911, 697, 1029, 944]	9	Present	NA	NA	PRESENT	0.11034107208251952	238.5170338153839	240.52299785614017	241.22300691600617	241.5730088233348	244.64216995239255	4.119172096252441	[238.53883409500122, 238.6556360721588, 239.62549304962158, 239.80706906318665, 240.55773210525513, 240.6744339466095, 240.79151391983032, 240.9079749584198, 241.02475500106812, 241.14189291000366, 241.25869607925415, 241.37529301643372, 241.49202609062195, 241.6089689731598, 241.72571110725403, 241.84233689308167, 241.95942211151123, 242.07603788375854, 242.19290709495544, 242.3095190525055, 242.42638111114502, 242.64216995239258]	[238.53830094925192, 238.65496761591191, 239.63796761591192, 239.8046676159119, 240.5546676159119, 240.6713342825719, 240.7880009492319, 240.9046676158919, 241.0213342825519, 241.1380009492119, 241.25466761587188, 241.37133428253188, 241.48800094919187, 241.60466761585187, 241.72133428251186, 241.83800094917186, 241.95466761583185, 242.07133428249185, 242.18800094915184, 242.30466761581184, 242.42133428247183, 242.65466761580515]	2021_Feb_04_1423	59.94920266478761	1	0.375
23	41	FALSE	NV	a	['Z', 'E', 'K', 'R', 'J', 'W', 'B', 'H', 'T', 'C', 'M', 'P', 'V', 'X', 'S', 'A']	[2911, 904, 1122, 1587, 1029, 2448, 760, 986, 1888, 829, 1224, 1456, 2245, 4000, 1731, 697]	14	Present	NA	NA	PRESENT	0.2598249912261963	244.6405689716339	246.63918495178223	247.92252615285537	248.27252829860257	250.7585370540619	4.119352102279663	[244.66237092018127, 244.77873611450195, 245.7418611049652, 245.91335701942444, 246.6808910369873, 246.78100991249084, 246.89762997627258, 247.01460695266724, 247.131196975708, 247.2482409477234, 247.3649709224701, 247.48173093795776, 247.59859609603882, 247.7152099609375, 247.8322629928589, 247.94880509376526, 248.06579208374023, 248.1824209690094, 248.29927611351013, 248.41587710380554, 248.53279399871826, 248.7585370540619]	[244.65466761580515, 244.77133428246515, 245.75433428246515, 245.92103428246514, 246.67103428246514, 246.78770094912514, 246.90436761578513, 247.02103428244513, 247.13770094910512, 247.25436761576512, 247.37103428242511, 247.4877009490851, 247.6043676157451, 247.7210342824051, 247.8377009490651, 247.9543676157251, 248.07103428238509, 248.18770094904508, 248.30436761570508, 248.42103428236507, 248.53770094902507, 248.77103428235839]	2021_Feb_04_1423	59.94920266478761	1	0.375
23	42	FALSE	NN	a	['B', 'S', 'K', 'N', 'V', 'R', 'E', 'P', 'G', 'Y', 'T', 'A', 'H', 'C', 'W', 'M']	[760, 1731, 1122, 1335, 2245, 1587, 904, 1456, 944, 2670, 1888, 697, 986, 829, 2448, 1224]	10	Absent	NA	NA	ABSENT	0.5603039264678955	250.74669289588928	252.75561094284055	253.57228452359936	253.9222866693466	256.8749029636383	4.1192920207977295	[250.7685170173645, 250.8854250907898, 251.85822796821594, 252.03663611412048, 252.78724098205566, 252.90398502349854, 253.02093505859375, 253.13757705688477, 253.25455498695374, 253.37117910385132, 253.48820209503174, 253.60484099388123, 253.7217559814453, 253.83843207359314, 253.95522809028625, 254.0720500946045, 254.18883991241455, 254.30553603172302, 254.42278504371643, 254.53914594650269, 254.65580701828003, 254.8749029636383]	[250.77103428235839, 250.88770094901838, 251.87070094901839, 252.03740094901838, 252.78740094901838, 252.90406761567837, 253.02073428233837, 253.13740094899836, 253.25406761565836, 253.37073428231835, 253.48740094897835, 253.60406761563834, 253.72073428229834, 253.83740094895833, 253.95406761561833, 254.07073428227832, 254.18740094893832, 254.3040676155983, 254.4207342822583, 254.5374009489183, 254.6540676155783, 254.88740094891162]	2021_Feb_04_1423	59.94920266478761	1	0.375
23	43	FALSE	NA	a	['R', 'N', 'E', 'M', 'Z', 'P', 'C', 'T', 'X', 'H', 'U', 'G', 'Y', 'W', 'V', 'J']	[1587, 1335, 904, 1224, 2911, 1456, 829, 1888, 4000, 986, 2059, 944, 2670, 2448, 2245, 1029]	9	Present	NA	NA	PRESENT	0.05367398262023926	256.8698618412018	258.8718638420105	259.5718709945279	259.9218738555308	262.9912700653076	4.119406223297119	[256.8916630744934, 257.0085060596466, 257.9745919704437, 258.15978503227234, 258.9104769229889, 259.0271499156952, 259.1439869403839, 259.2607309818268, 259.37755489349365, 259.49424600601196, 259.6110460758209, 259.72807908058167, 259.84460496902466, 259.96164894104004, 260.0783169269562, 260.1952168941498, 260.31185603141785, 260.42885398864746, 260.5455319881439, 260.66222500801086, 260.7790389060974, 260.9912691116333]	[256.8874009489116, 257.0040676155716, 257.9870676155716, 258.1537676155716, 258.9037676155716, 259.02043428223163, 259.13710094889166, 259.2537676155517, 259.3704342822117, 259.4871009488717, 259.60376761553175, 259.7204342821918, 259.8371009488518, 259.9537676155118, 260.07043428217185, 260.18710094883187, 260.3037676154919, 260.4204342821519, 260.53710094881194, 260.65376761547196, 260.770434282132, 261.00376761546534]	2021_Feb_04_1423	59.94920266478761	1	0.375
23	44	FALSE	NV	a	['E', 'J', 'S', 'H', 'C', 'Y', 'R', 'A', 'M', 'P', 'X', 'B', 'T', 'W', 'G', 'U']	[904, 1029, 1731, 986, 829, 2670, 1587, 697, 1224, 1456, 4000, 760, 1888, 2448, 944, 2059]	11	Present	NA	NA	PRESENT	0.03425288200378418	262.9761278629303	264.9883599281311	265.92170112922423	266.2717032749714	269.10763692855835	4.119277000427246	[262.9979290962219, 263.1148180961609, 264.09096002578735, 264.2660779953003, 265.0171980857849, 265.13348293304443, 265.25039410591125, 265.36702609062195, 265.4840109348297, 265.60067892074585, 265.71770191192627, 265.83425998687744, 265.9512150287628, 266.06796503067017, 266.18483805656433, 266.30170798301697, 266.4184510707855, 266.5351119041443, 266.6519649028778, 266.76874589920044, 266.88557505607605, 267.10763597488403]	[263.00376761546534, 263.12043428212536, 264.10343428212536, 264.27013428212535, 265.02013428212535, 265.1368009487854, 265.2534676154454, 265.3701342821054, 265.48680094876545, 265.6034676154255, 265.7201342820855, 265.8368009487455, 265.95346761540554, 266.07013428206557, 266.1868009487256, 266.3034676153856, 266.42013428204564, 266.53680094870566, 266.6534676153657, 266.7701342820257, 266.88680094868573, 267.1201342820191]	2021_Feb_04_1423	59.94920266478761	1	0.375
23	45	FALSE	NA	a	['R', 'B', 'S', 'T', 'U', 'J', 'M', 'A', 'G', 'N', 'V', 'P', 'X', 'E', 'Y', 'K']	[1587, 760, 1731, 1888, 2059, 1029, 1224, 697, 944, 1335, 2245, 1456, 4000, 904, 2670, 1122]	13	Present	NA	NA	PRESENT	0.11086201667785645	269.09949588775635	271.1046278476715	272.2713016668289	272.62130357415754	275.22400307655334	4.119375228881836	[269.1212968826294, 269.2380440235138, 270.2073268890381, 270.3893280029297, 271.13990092277527, 271.25662207603455, 271.37341690063477, 271.49034690856934, 271.607225894928, 271.72391390800476, 271.8407759666443, 271.95760893821716, 272.07413601875305, 272.1912159919739, 272.30788707733154, 272.4248061180115, 272.54141306877136, 272.65819096565247, 272.77516889572144, 272.8919999599457, 273.00854992866516, 273.224004983902]	[269.1201342820191, 269.2368009486791, 270.2198009486791, 270.3865009486791, 271.1365009486791, 271.2531676153391, 271.36983428199915, 271.48650094865917, 271.6031676153192, 271.7198342819792, 271.83650094863924, 271.95316761529926, 272.0698342819593, 272.1865009486193, 272.30316761527934, 272.41983428193936, 272.5365009485994, 272.6531676152594, 272.76983428191943, 272.88650094857945, 273.0031676152395, 273.2365009485728]	2021_Feb_04_1423	59.94920266478761	1	0.375
23	46	FALSE	NV	a	['W', 'V', 'C', 'H', 'T', 'B', 'M', 'Y', 'N', 'U', 'R', 'X', 'E', 'S', 'G', 'K']	[2448, 2245, 829, 986, 1888, 760, 1224, 2670, 1335, 2059, 1587, 4000, 904, 1731, 944, 1122]	12	Present	NA	NA	PRESENT	0.13990187644958496	275.22284388542175	277.22123885154724	278.2712460040446	278.62124791137325	281.3403699398041	4.119131088256836	[275.2446460723877, 275.3609380722046, 276.3236930370331, 276.4954810142517, 277.2631371021271, 277.3630049228668, 277.47986102104187, 277.5968520641327, 277.71347403526306, 277.8302209377289, 277.9472770690918, 278.06378197669983, 278.1808350086212, 278.2974090576172, 278.4143331050873, 278.5310010910034, 278.6479458808899, 278.76455307006836, 278.88156390190125, 278.9981150627136, 279.11513900756836, 279.3403699398041]	[275.2365009485728, 275.35316761523285, 276.33616761523285, 276.50286761523284, 277.25286761523284, 277.36953428189287, 277.4862009485529, 277.6028676152129, 277.71953428187294, 277.83620094853296, 277.952867615193, 278.069534281853, 278.18620094851303, 278.30286761517306, 278.4195342818331, 278.5362009484931, 278.6528676151531, 278.76953428181315, 278.8862009484732, 279.0028676151332, 279.1195342817932, 279.35286761512657]	2021_Feb_04_1423	59.94920266478761	1	0.375
23	47	FALSE	VA	a	['J', 'U', 'W', 'A', 'H', 'V', 'R', 'T', 'surprise', 'Y', 'E', 'X', 'K', 'C', 'Z', 'P']	[1029, 2059, 2448, 697, 986, 2245, 1587, 1888, 'stimAuditory/all_stimAuditory/122.wav', 2670, 904, 4000, 1122, 829, 2911, 1456]	12	Present	NA	NA	PRESENT	0.17642903327941897	281.3289318084717	283.33733081817627	284.38733892434794	284.7373408316766	287.4567370414734	4.119406223297119	[281.350732088089, 281.4673418998718, 282.4400589466095, 282.61884593963623, 283.36948895454407, 283.4861829280853, 283.6031620502472, 283.71971106529236, 283.8365468978882, 283.95340490341187, 284.0702660083771, 284.1870450973511, 284.3037350177765, 284.4209680557251, 284.5374689102173, 284.6541209220886, 284.7711091041565, 284.8878719806671, 285.0044729709625, 285.12147998809814, 285.2382650375366, 285.4567360877991]	[281.35286761512657, 281.4695342817866, 282.4525342817866, 282.6192342817866, 283.3692342817866, 283.4859009484466, 283.60256761510664, 283.71923428176666, 283.8359009484267, 283.9525676150867, 284.06923428174673, 284.18590094840675, 284.3025676150668, 284.4192342817268, 284.5359009483868, 284.65256761504685, 284.7692342817069, 284.8859009483669, 285.0025676150269, 285.11923428168694, 285.23590094834697, 285.4692342816803]	2021_Feb_04_1423	59.94920266478761	1	0.375
23	48	FALSE	NV	a	['G', 'U', 'B', 'R', 'W', 'A', 'S', 'K', 'P', 'X', 'Y', 'C', 'N', 'V', 'Z', 'M']	[944, 2059, 760, 1587, 2448, 697, 1731, 1122, 1456, 4000, 2670, 829, 1335, 2245, 2911, 1224]	10	Present	NA	NA	PRESENT	0.07794523239135742	287.45218992233276	289.45378494262695	290.27045947706006	290.6204616228073	293.5731029510498	4.119318008422852	[287.47400403022766, 287.5905680656433, 288.5564250946045, 288.7417240142822, 289.4926700592041, 289.60915994644165, 289.72621989250183, 289.8430550098419, 289.959676027298, 290.0766179561615, 290.193382024765, 290.3102629184723, 290.42680406570435, 290.54368901252747, 290.66040301322937, 290.77731108665466, 290.89426493644714, 291.0107638835907, 291.1108920574188, 291.22766494750977, 291.34445905685425, 291.5731019973755]	[287.4692342816803, 287.58590094834034, 288.56890094834034, 288.73560094834033, 289.48560094834033, 289.60226761500036, 289.7189342816604, 289.8356009483204, 289.9522676149804, 290.06893428164045, 290.1856009483005, 290.3022676149605, 290.4189342816205, 290.53560094828055, 290.65226761494057, 290.7689342816006, 290.8856009482606, 291.00226761492064, 291.11893428158066, 291.2356009482407, 291.3522676149007, 291.58560094823406]	2021_Feb_04_1423	59.94920266478761	1	0.375
23	49	FALSE	NA	a	['N', 'C', 'R', 'W', 'P', 'A', 'J', 'Y', 'X', 'M', 'E', 'H', 'U', 'Z', 'K', 'B']	[1335, 829, 1587, 2448, 1456, 697, 1029, 2670, 4000, 1224, 904, 986, 2059, 2911, 1122, 760]	9	Present	NA	NA	PRESENT	0.2342889308929443	293.5584259033203	295.5702359676361	296.27024288173493	296.6202450274821	299.6894700527191	4.119234085083008	[293.5802390575409, 293.69685792922974, 294.67279291152954, 294.8486499786377, 295.5990710258484, 295.7157759666443, 295.83263993263245, 295.94925808906555, 296.0663299560547, 296.1828238964081, 296.2999019622803, 296.4165759086609, 296.5334630012512, 296.6502480506897, 296.7668399810791, 296.8837571144104, 297.0004699230194, 297.1172630786896, 297.2340109348297, 297.35092210769653, 297.46774911880493, 297.6894700527191]	[293.58560094823406, 293.7022676148941, 294.6852676148941, 294.8519676148941, 295.6019676148941, 295.7186342815541, 295.8353009482141, 295.95196761487415, 296.0686342815342, 296.1853009481942, 296.3019676148542, 296.41863428151424, 296.53530094817427, 296.6519676148343, 296.7686342814943, 296.88530094815434, 297.00196761481436, 297.1186342814744, 297.2353009481344, 297.35196761479443, 297.46863428145446, 297.7019676147878]	2021_Feb_04_1423	59.94920266478761	1	0.375
23	50	FALSE	NA	a	['V', 'J', 'K', 'R', 'E', 'B', 'C', 'A', 'Z', 'S', 'W', 'U', 'H', 'X', 'M', 'T']	[2245, 1029, 1122, 1587, 904, 760, 829, 697, 2911, 1731, 2448, 2059, 986, 4000, 1224, 1888]	14	Present	NA	NA	ABSENT	1.2547519207000732	299.68171882629395	301.68651700019836	302.96985820127145	303.3198591549258	305.80583691596985	4.119319915771484	[299.70354104042053, 299.8202829360962, 300.78916001319885, 300.9713308811188, 301.7222349643707, 301.83908009529114, 301.9557249546051, 302.0725018978119, 302.18940711021423, 302.3062150478363, 302.42297196388245, 302.53980898857117, 302.6565430164337, 302.77330207824707, 302.8901379108429, 303.00684690475464, 303.1235160827637, 303.24051904678345, 303.3571619987488, 303.47396898269653, 303.5907299518585, 303.80583691596985]	[299.7019676147878, 299.8186342814478, 300.80163428144783, 300.9683342814478, 301.7183342814478, 301.83500094810785, 301.95166761476787, 302.0683342814279, 302.1850009480879, 302.30166761474794, 302.41833428140797, 302.535000948068, 302.651667614728, 302.76833428138804, 302.88500094804806, 303.0016676147081, 303.1183342813681, 303.23500094802813, 303.35166761468815, 303.4683342813482, 303.5850009480082, 303.81833428134155]	2021_Feb_04_1423	59.94920266478761	1	0.375
23	51	FALSE	NV	a	['T', 'H', 'M', 'R', 'E', 'Z', 'N', 'B', 'A', 'P', 'C', 'Y', 'X', 'W', 'S', 'U']	[1888, 986, 1224, 1587, 904, 2911, 1335, 760, 697, 1456, 829, 2670, 4000, 2448, 1731, 2059]	13	Present	NA	NA	PRESENT	0.25990986824035645	305.8047068119049	307.80299186706543	308.9696666398971	309.3196685472258	311.92220401763916	4.1192121505737305	[305.8265070915222, 305.94325494766235, 306.9055290222168, 307.07774806022644, 307.84534192085266, 307.9453010559082, 308.0622820854187, 308.17887592315674, 308.2957899570465, 308.41246604919434, 308.5294110774994, 308.646311044693, 308.76296210289, 308.8795530796051, 308.9965569972992, 309.1132218837738, 309.23008704185486, 309.34678506851196, 309.4635651111603, 309.58042311668396, 309.69730496406555, 309.92220306396484]	[305.81833428134155, 305.9350009480016, 306.9180009480016, 307.08470094800157, 307.83470094800157, 307.9513676146616, 308.0680342813216, 308.18470094798164, 308.30136761464166, 308.4180342813017, 308.5347009479617, 308.65136761462173, 308.76803428128176, 308.8847009479418, 309.0013676146018, 309.1180342812618, 309.23470094792185, 309.3513676145819, 309.4680342812419, 309.5847009479019, 309.70136761456195, 309.9347009478953]	2021_Feb_04_1423	59.94920266478761	1	0.375
23	52	FALSE	NV	a	['P', 'T', 'J', 'B', 'A', 'R', 'W', 'Y', 'U', 'C', 'E', 'V', 'X', 'K', 'S', 'Z']	[1456, 1888, 1029, 760, 697, 1587, 2448, 2670, 2059, 829, 904, 2245, 4000, 1122, 1731, 2911]	13	Present	NA	NA	PRESENT	0.8647060394287109	311.91125798225403	313.9192988872528	315.0859724679916	315.43597461373884	318.0385699272156	4.1192710399627686	[311.9330589771271, 312.0497889518738, 313.0218939781189, 313.20099902153015, 313.95175099372864, 314.0684609413147, 314.1851899623871, 314.30212688446045, 314.4191150665283, 314.53565192222595, 314.6523699760437, 314.76929092407227, 314.885901927948, 315.00286293029785, 315.1196930408478, 315.23634004592896, 315.3532769680023, 315.47007393836975, 315.5867109298706, 315.7036380767822, 315.82039999961853, 316.03856897354126]	[311.9347009478953, 312.0513676145553, 313.0343676145553, 313.2010676145553, 313.9510676145553, 314.06773428121534, 314.18440094787536, 314.3010676145354, 314.4177342811954, 314.53440094785543, 314.65106761451545, 314.7677342811755, 314.8844009478355, 315.0010676144955, 315.11773428115555, 315.2344009478156, 315.3510676144756, 315.4677342811356, 315.58440094779564, 315.70106761445567, 315.8177342811157, 316.05106761444904]	2021_Feb_04_1423	59.94920266478761	1	0.375
23	53	FALSE	VV	a	['U', 'W', 'P', 'J', 'surprise', 'E', 'Z', 'X', 'B', 'T', 'N', 'R', 'V', 'K', 'A', 'C']	[2059, 2448, 1456, 1029, 'stimAuditory/all_stimAuditory/114.wav', 904, 2911, 4000, 760, 1888, 1335, 1587, 2245, 1122, 697, 829]	8	Present	NA	NA	PRESENT	0.0382239818572998	318.0341839790344	320.03577995300293	320.61912234620894	320.9691242535376	324.1549370288849	4.119157075881958	[318.0559980869293, 318.1729860305786, 319.1382620334625, 319.3241009712219, 320.07478499412537, 320.1918430328369, 320.30836510658264, 320.4252610206604, 320.54192090034485, 320.6587829589844, 320.77568006515503, 320.8923909664154, 321.0090401172638, 321.12642908096313, 321.2425789833069, 321.3593940734863, 321.45952105522156, 321.57632207870483, 321.6931269168854, 321.8098978996277, 321.92669200897217, 322.1549379825592]	[318.05106761444904, 318.16773428110906, 319.15073428110907, 319.31743428110906, 320.06743428110906, 320.1841009477691, 320.3007676144291, 320.41743428108913, 320.53410094774915, 320.6507676144092, 320.7674342810692, 320.8841009477292, 321.00076761438925, 321.11743428104927, 321.2341009477093, 321.3507676143693, 321.46743428102934, 321.58410094768936, 321.7007676143494, 321.8174342810094, 321.93410094766944, 322.1674342810028]	2021_Feb_04_1423	59.94920266478761	1	0.375
23	54	FALSE	NV	a	['S', 'T', 'R', 'V', 'B', 'A', 'W', 'X', 'N', 'M', 'Z', 'H', 'E', 'C', 'G', 'Y']	[1731, 1888, 1587, 2245, 760, 697, 2448, 4000, 1335, 1224, 2911, 986, 904, 829, 944, 2670]	8	Present	NA	NA	ABSENT	0.22655510902404785	324.14072585105896	326.1519479751587	326.7352882225975	327.08529012992614	330.2713029384613	4.119354963302612	[324.1625270843506, 324.27931904792786, 325.2546269893646, 325.43090200424194, 326.1812469959259, 326.2979910373688, 326.4150080680847, 326.5316410064697, 326.648638010025, 326.76512598991394, 326.8818700313568, 326.9986970424652, 327.11545300483704, 327.2323749065399, 327.3490500450134, 327.46583795547485, 327.5825550556183, 327.6995439529419, 327.8163809776306, 327.93321108818054, 328.0499029159546, 328.2713029384613]	[324.1674342810028, 324.2841009476628, 325.2671009476628, 325.4338009476628, 326.1838009476628, 326.3004676143228, 326.41713428098285, 326.5338009476429, 326.6504676143029, 326.7671342809629, 326.88380094762294, 327.00046761428297, 327.117134280943, 327.233800947603, 327.35046761426304, 327.46713428092306, 327.5838009475831, 327.7004676142431, 327.81713428090313, 327.93380094756316, 328.0504676142232, 328.28380094755653]	2021_Feb_04_1423	59.94920266478761	1	0.375
23	55	FALSE	NV	a	['H', 'W', 'R', 'E', 'A', 'B', 'G', 'N', 'S', 'P', 'M', 'Z', 'T', 'X', 'J', 'U']	[986, 2448, 1587, 904, 697, 760, 944, 1335, 1731, 1456, 1224, 2911, 1888, 4000, 1029, 2059]	14	Present	NA	NA	ABSENT	1.4069979190826416	330.26382279396057	332.26842498779297	333.55176618886605	333.9017683346133	336.3876700401306	4.1192450523376465	[330.2856240272522, 330.4023530483246, 331.3709909915924, 331.55363607406616, 332.3042690753937, 332.4212579727173, 332.53785395622253, 332.6548891067505, 332.7717430591583, 332.88844895362854, 333.0051109790802, 333.12175393104553, 333.2387750148773, 333.35550594329834, 333.472373008728, 333.58914709091187, 333.7057180404663, 333.82262897491455, 333.93934297561646, 334.0562460422516, 334.1731560230255, 334.3876690864563]	[330.28380094755653, 330.40046761421655, 331.38346761421656, 331.55016761421655, 332.30016761421655, 332.41683428087657, 332.5335009475366, 332.6501676141966, 332.76683428085664, 332.88350094751667, 333.0001676141767, 333.1168342808367, 333.23350094749674, 333.35016761415676, 333.4668342808168, 333.5835009474768, 333.70016761413683, 333.81683428079685, 333.9335009474569, 334.0501676141169, 334.1668342807769, 334.4001676141103]	2021_Feb_04_1423	59.94920266478761	1	0.375
23	56	FALSE	NN	a	['K', 'G', 'S', 'V', 'C', 'B', 'N', 'M', 'U', 'A', 'R', 'W', 'J', 'T', 'E', 'Y']	[1122, 944, 1731, 2245, 829, 760, 1335, 1224, 2059, 697, 1587, 2448, 1029, 1888, 904, 2670]	8	Absent	NA	NA	ABSENT	0.3725590705871582	336.3870298862457	338.38462495803833	338.9679652054771	339.31796830489867	342.50403690338135	4.119411945343018	[336.4088308811188, 336.5256509780884, 337.48736000061035, 337.6597979068756, 338.42751002311707, 338.5275709629059, 338.6443281173706, 338.76114988327026, 338.8781158924103, 338.99474811553955, 339.11139488220215, 339.2282359600067, 339.34517908096313, 339.4618079662323, 339.5787489414215, 339.69546699523926, 339.81232810020447, 339.92899990081787, 340.0459740161896, 340.1627039909363, 340.2794818878174, 340.50403594970703]	[336.4001676141103, 336.5168342807703, 337.4998342807703, 337.6665342807703, 338.4165342807703, 338.5332009474303, 338.64986761409034, 338.76653428075036, 338.8832009474104, 338.9998676140704, 339.11653428073043, 339.23320094739046, 339.3498676140505, 339.4665342807105, 339.5832009473705, 339.69986761403055, 339.8165342806906, 339.9332009473506, 340.0498676140106, 340.16653428067065, 340.28320094733067, 340.516534280664]	2021_Feb_04_1423	59.94920266478761	1	0.375
23	57	FALSE	NA	a	['P', 'Z', 'K', 'V', 'E', 'R', 'M', 'T', 'W', 'Y', 'H', 'A', 'N', 'X', 'U', 'S']	[1456, 2911, 1122, 2245, 904, 1587, 1224, 1888, 2448, 2670, 986, 697, 1335, 4000, 2059, 1731]	14	Present	NA	NA	PRESENT	0.16893911361694336	342.49339294433594	344.5010859966278	345.7844271977009	346.1344293434481	348.62040400505066	4.119318008422852	[342.515193939209, 342.63183999061584, 343.60372710227966, 343.7830710411072, 344.5338430404663, 344.65082597732544, 344.76737689971924, 344.8844459056854, 345.0010049343109, 345.1180028915405, 345.2348918914795, 345.35127902030945, 345.46847796440125, 345.5849070549011, 345.7016110420227, 345.8184518814087, 345.93544006347656, 346.05229592323303, 346.1689078807831, 346.28559398651123, 346.40245294570923, 346.62040305137634]	[342.516534280664, 342.63320094732404, 343.61620094732405, 343.78290094732404, 344.53290094732404, 344.64956761398406, 344.7662342806441, 344.8829009473041, 344.99956761396413, 345.11623428062416, 345.2329009472842, 345.3495676139442, 345.4662342806042, 345.58290094726425, 345.6995676139243, 345.8162342805843, 345.9329009472443, 346.04956761390434, 346.16623428056437, 346.2829009472244, 346.3995676138844, 346.63290094721776]	2021_Feb_04_1423	59.94920266478761	1	0.375
23	58	FALSE	NA	a	['B', 'P', 'U', 'R', 'W', 'Y', 'Z', 'K', 'S', 'A', 'X', 'C', 'H', 'N', 'M', 'T']	[760, 1456, 2059, 1587, 2448, 2670, 2911, 1122, 1731, 697, 4000, 829, 986, 1335, 1224, 1888]	11	Present	NA	NA	PRESENT	0.08638191223144531	348.616329908371	350.61738681793213	351.55072825744384	351.9007301647724	354.7367699146271	4.119383096694946	[348.638130903244, 348.75521302223206, 349.7201039791107, 349.9062080383301, 350.6568319797516, 350.7739338874817, 350.89057898521423, 351.0074920654297, 351.12420892715454, 351.2408890724182, 351.3578019142151, 351.4744861125946, 351.5912299156189, 351.69123005867004, 351.8081181049347, 351.92490100860596, 352.0416769981384, 352.15841698646545, 352.2752559185028, 352.3920500278473, 352.50882291793823, 352.7367699146271]	[348.63290094721776, 348.7495676138778, 349.7325676138778, 349.8992676138778, 350.6492676138778, 350.7659342805378, 350.88260094719783, 350.99926761385785, 351.1159342805179, 351.2326009471779, 351.3492676138379, 351.46593428049795, 351.58260094715797, 351.699267613818, 351.815934280478, 351.93260094713804, 352.04926761379807, 352.1659342804581, 352.2826009471181, 352.39926761377814, 352.51593428043816, 352.7492676137715]	2021_Feb_04_1423	59.94920266478761	1	0.375
23	59	FALSE	NA	a	['S', 'E', 'Y', 'W', 'V', 'B', 'K', 'M', 'U', 'X', 'C', 'P', 'T', 'R', 'J', 'A']	[1731, 904, 2670, 2448, 2245, 760, 1122, 1224, 2059, 4000, 829, 1456, 1888, 1587, 1029, 697]	10	Present	NA	NA	PRESENT	0.3308899402618408	354.72302293777466	356.7340178489685	357.5506926218202	357.90069452914884	360.8531370162964	4.119119167327881	[354.7448239326477, 354.86140298843384, 355.8364589214325, 356.0129590034485, 356.7634789943695, 356.880343914032, 356.9971890449524, 357.1139199733734, 357.23063707351685, 357.34744000434875, 357.46412205696106, 357.58089900016785, 357.6978600025177, 357.81455993652344, 357.93144392967224, 358.04814100265503, 358.164794921875, 358.28181409835815, 358.39855098724365, 358.51523208618164, 358.6321840286255, 358.85313606262207]	[354.7492676137715, 354.86593428043153, 355.84893428043154, 356.0156342804315, 356.7656342804315, 356.88230094709155, 356.9989676137516, 357.1156342804116, 357.2323009470716, 357.34896761373165, 357.46563428039167, 357.5823009470517, 357.6989676137117, 357.81563428037174, 357.93230094703176, 358.0489676136918, 358.1656342803518, 358.28230094701183, 358.39896761367186, 358.5156342803319, 358.6323009469919, 358.86563428032525]	2021_Feb_04_1423	59.94920266478761	1	0.375
23	60	FALSE	NA	a	['W', 'H', 'M', 'B', 'C', 'G', 'Z', 'R', 'X', 'Y', 'N', 'T', 'A', 'P', 'E', 'V']	[2448, 986, 1224, 760, 829, 944, 2911, 1587, 4000, 2670, 1335, 1888, 697, 1456, 904, 2245]	9	Present	NA	NA	PRESENT	0.7195260524749756	360.8461089134216	362.8502898216248	363.55029697414216	363.90029888147075	366.9695029258728	4.119213104248047	[360.8679230213165, 360.98469495773315, 361.9528269767761, 362.1356620788574, 362.88658595085144, 363.00322699546814, 363.120069026947, 363.2369968891144, 363.35384488105774, 363.4704370498657, 363.58734488487244, 363.7042100429535, 363.82101607322693, 363.9375948905945, 364.0543808937073, 364.17133688926697, 364.2881278991699, 364.4047329425812, 364.5216839313507, 364.6385591030121, 364.7550768852234, 364.9695019721985]	[360.86563428032525, 360.9823009469853, 361.9653009469853, 362.1320009469853, 362.8820009469853, 362.9986676136453, 363.1153342803053, 363.23200094696534, 363.34866761362537, 363.4653342802854, 363.5820009469454, 363.69866761360544, 363.81533428026546, 363.9320009469255, 364.0486676135855, 364.16533428024553, 364.28200094690555, 364.3986676135656, 364.5153342802256, 364.6320009468856, 364.74866761354565, 364.982000946879]	2021_Feb_04_1423	59.94920266478761	1	0.375
23	61	FALSE	NA	a	['W', 'G', 'Y', 'Z', 'M', 'T', 'K', 'J', 'V', 'U', 'C', 'E', 'A', 'X', 'S', 'H']	[2448, 944, 2670, 2911, 1224, 1888, 1122, 1029, 2245, 2059, 829, 904, 697, 4000, 1731, 986]	14	Present	NA	NA	PRESENT	0.308682918548584	366.9690840244293	368.96662402153015	370.2499652226032	370.5999671299319	373.0858700275421	4.119246006011963	[366.99088406562805, 367.0909070968628, 368.06919288635254, 368.2420690059662, 368.9928250312805, 369.1097939014435, 369.22671008110046, 369.34338092803955, 369.46025490760803, 369.5769350528717, 369.69368410110474, 369.8105459213257, 369.92743706703186, 370.0441460609436, 370.16075897216797, 370.2776141166687, 370.39456605911255, 370.51136589050293, 370.6280629634857, 370.7449469566345, 370.8615200519562, 371.0858700275421]	[366.982000946879, 367.098667613539, 368.081667613539, 368.248367613539, 368.998367613539, 369.11503428019904, 369.23170094685906, 369.3483676135191, 369.4650342801791, 369.58170094683913, 369.69836761349916, 369.8150342801592, 369.9317009468192, 370.04836761347923, 370.16503428013925, 370.2817009467993, 370.3983676134593, 370.5150342801193, 370.63170094677935, 370.74836761343937, 370.8650342800994, 371.09836761343274]	2021_Feb_04_1423	59.94920266478761	1	0.375
23	62	FALSE	NA	a	['P', 'V', 'Y', 'Z', 'G', 'A', 'U', 'B', 'C', 'J', 'X', 'R', 'K', 'E', 'N', 'S']	[1456, 2245, 2670, 2911, 944, 697, 2059, 760, 829, 1029, 4000, 1587, 1122, 904, 1335, 1731]	11	Present	NA	NA	PRESENT	0.03310394287109375	373.07563400268555	375.0829699039459	376.0163113434576	376.3663132507862	379.2022368907929	4.119266986846924	[373.0974669456482, 373.2141671180725, 374.1855640411377, 374.36517810821533, 375.1159589290619, 375.233097076416, 375.3496210575104, 375.4668800830841, 375.58327198028564, 375.6999490261078, 375.8170828819275, 375.9337320327759, 376.050332069397, 376.1673378944397, 376.28387999534607, 376.40085792541504, 376.51773500442505, 376.63444900512695, 376.7511999607086, 376.86807203292847, 376.9848589897156, 377.20223689079285]	[373.09836761343274, 373.21503428009277, 374.19803428009277, 374.36473428009276, 375.11473428009276, 375.2314009467528, 375.3480676134128, 375.46473428007283, 375.58140094673286, 375.6980676133929, 375.8147342800529, 375.9314009467129, 376.04806761337295, 376.164734280033, 376.281400946693, 376.398067613353, 376.51473428001304, 376.63140094667307, 376.7480676133331, 376.8647342799931, 376.98140094665314, 377.2147342799865]	2021_Feb_04_1423	59.94920266478761	1	0.375
23	63	FALSE	NA	a	['M', 'H', 'W', 'U', 'V', 'T', 'N', 'B', 'X', 'J', 'A', 'Y', 'E', 'C', 'K', 'Z']	[1224, 986, 2448, 2059, 2245, 1888, 1335, 760, 4000, 1029, 697, 2670, 904, 829, 1122, 2911]	9	Present	NA	NA	PRESENT	0.00674200057983398	379.19847989082336	381.19922494888306	381.8992318629819	382.24923400872905	385.31860399246216	4.119379043579102	[379.2202820777893, 379.3371660709381, 380.30192708969116, 380.4883840084076, 381.23927903175354, 381.3559830188751, 381.4729640483856, 381.58956599235535, 381.70631194114685, 381.8063790798187, 381.92325496673584, 382.0399680137634, 382.15678000450134, 382.27356696128845, 382.39037704467773, 382.5070478916168, 382.6239800453186, 382.74090099334717, 382.85752511024475, 382.9742319583893, 383.0911090373993, 383.31860399246216]	[379.2147342799865, 379.3314009466465, 380.3144009466465, 380.4811009466465, 381.2311009466465, 381.34776761330653, 381.46443427996655, 381.5811009466266, 381.6977676132866, 381.8144342799466, 381.93110094660665, 382.04776761326667, 382.1644342799267, 382.2811009465867, 382.39776761324674, 382.51443427990677, 382.6311009465668, 382.7477676132268, 382.86443427988684, 382.98110094654686, 383.0977676132069, 383.33110094654023]	2021_Feb_04_1423	59.94920266478761	1	0.375
23	64	FALSE	VA	a	['J', 'M', 'Z', 'W', 'N', 'U', 'V', 'K', 'Y', 'surprise', 'H', 'P', 'X', 'C', 'A', 'B']	[1029, 1224, 2911, 2448, 1335, 2059, 2245, 1122, 2670, 'stimAuditory/all_stimAuditory/102.wav', 986, 1456, 4000, 829, 697, 760]	13	Present	NA	NA	PRESENT	0.05925703048706055	385.3050699234009	387.315682888031	388.4823576608627	388.83235956819135	391.4349699020386	4.119287014007568	[385.3268709182739, 385.4439060688019, 386.41829204559326, 386.5948579311371, 387.34554409980774, 387.4625461101532, 387.57929706573486, 387.6961679458618, 387.81295800209045, 387.929682970047, 388.0463299751282, 388.1632881164551, 388.2799229621887, 388.3967180252075, 388.51357197761536, 388.6304700374603, 388.7470281124115, 388.86406993865967, 388.9807469844818, 389.09739995002747, 389.2142291069031, 389.43496894836426]	[385.33110094654023, 385.44776761320026, 386.43076761320026, 386.59746761320025, 387.34746761320025, 387.4641342798603, 387.5808009465203, 387.6974676131803, 387.81413427984035, 387.93080094650037, 388.0474676131604, 388.1641342798204, 388.28080094648044, 388.39746761314046, 388.5141342798005, 388.6308009464605, 388.74746761312053, 388.86413427978056, 388.9808009464406, 389.0974676131006, 389.21413427976063, 389.447467613094]	2021_Feb_04_1423	59.94920266478761	1	0.375
23	65	FALSE	NN	a	['K', 'T', 'S', 'W', 'C', 'U', 'P', 'N', 'H', 'Z', 'J', 'G', 'B', 'R', 'V', 'E']	[1122, 1888, 1731, 2448, 829, 2059, 1456, 1335, 986, 2911, 1029, 944, 760, 1587, 2245, 904]	8	Absent	NA	NA	ABSENT	0.39928603172302246	391.4282329082489	393.4320299625397	394.0153711636528	394.3653733094	397.5513370037079	4.119307041168213	[391.45003390312195, 391.5667850971222, 392.534658908844, 392.71812105178833, 393.46869111061096, 393.5856668949127, 393.7022829055786, 393.8192369937897, 393.93594098091125, 394.05291390419006, 394.16951394081116, 394.2864089012146, 394.40323305130005, 394.519917011261, 394.6367609500885, 394.7535569667816, 394.8701899051666, 394.9870460033417, 395.1038999557495, 395.2205169200897, 395.33757495880127, 395.55133509635925]	[391.447467613094, 391.564134279754, 392.547134279754, 392.713834279754, 393.463834279754, 393.580500946414, 393.69716761307404, 393.81383427973407, 393.9305009463941, 394.0471676130541, 394.16383427971414, 394.28050094637416, 394.3971676130342, 394.5138342796942, 394.63050094635423, 394.74716761301426, 394.8638342796743, 394.9805009463343, 395.0971676129943, 395.21383427965435, 395.3305009463144, 395.5638342796477]	2021_Feb_04_1423	59.94920266478761	1	0.375
23	66	FALSE	NV	a	['H', 'K', 'P', 'E', 'B', 'V', 'C', 'Z', 'S', 'X', 'N', 'T', 'J', 'G', 'M', 'U']	[986, 1122, 1456, 904, 760, 2245, 829, 2911, 1731, 4000, 1335, 1888, 1029, 944, 1224, 2059]	10	Present	NA	NA	PRESENT	0.23706698417663577	397.5511808395386	399.54851388931274	400.3651886621644	400.7151915231674	403.6677029132843	4.119189023971558	[397.5729820728302, 397.6730999946594, 398.65102791786194, 398.8245530128479, 399.57505106925964, 399.6920120716095, 399.80886602401733, 399.92554807662964, 400.0425579547882, 400.1591761112213, 400.27608704566956, 400.3927240371704, 400.50968289375305, 400.6263360977173, 400.7430810928345, 400.8601129055023, 400.97676610946655, 401.0933439731598, 401.21020889282227, 401.3271219730377, 401.4438579082489, 401.66770195961]	[397.5638342796477, 397.68050094630775, 398.66350094630775, 398.83020094630774, 399.58020094630774, 399.69686761296776, 399.8135342796278, 399.9302009462878, 400.04686761294784, 400.16353427960786, 400.2802009462679, 400.3968676129279, 400.51353427958793, 400.63020094624795, 400.746867612908, 400.863534279568, 400.980200946228, 401.09686761288805, 401.21353427954807, 401.3302009462081, 401.4468676128681, 401.68020094620147]	2021_Feb_04_1423	59.94920266478761	1	0.375
23	67	FALSE	NV	a	['Y', 'U', 'V', 'P', 'Z', 'N', 'J', 'C', 'E', 'M', 'X', 'G', 'W', 'B', 'K', 'H']	[2670, 2059, 2245, 1456, 2911, 1335, 1029, 829, 904, 1224, 4000, 944, 2448, 760, 1122, 986]	11	Present	NA	NA	PRESENT	0.1055760383605957	403.65769386291504	405.6646728515625	406.5980133373999	406.9480152447285	409.7840690612793	4.119396209716797	[403.67949390411377, 403.7964210510254, 404.7673919200897, 404.94746494293213, 405.69869208335876, 405.81524896621704, 405.93186497688293, 406.04869198799133, 406.1654438972473, 406.28236198425293, 406.3989839553833, 406.51597595214844, 406.6327450275421, 406.74958205223083, 406.8662919998169, 406.98320388793945, 407.09997296333313, 407.2166929244995, 407.3334848880768, 407.4502649307251, 407.5670189857483, 407.7840700149536]	[403.68020094620147, 403.7968676128615, 404.7798676128615, 404.9465676128615, 405.6965676128615, 405.8132342795215, 405.92990094618153, 406.04656761284156, 406.1632342795016, 406.2799009461616, 406.3965676128216, 406.51323427948165, 406.6299009461417, 406.7465676128017, 406.8632342794617, 406.97990094612175, 407.09656761278177, 407.2132342794418, 407.3299009461018, 407.44656761276184, 407.56323427942186, 407.7965676127552]	2021_Feb_04_1423	59.94920266478761	1	0.375
23	68	FALSE	NV	a	['S', 'A', 'V', 'J', 'R', 'M', 'B', 'W', 'N', 'X', 'U', 'E', 'H', 'C', 'Y', 'P']	[1731, 697, 2245, 1029, 1587, 1224, 760, 2448, 1335, 4000, 2059, 904, 986, 829, 2670, 1456]	10	Present	NA	NA	PRESENT	0.08687615394592285	409.7807478904724	411.7811357975006	412.5978105703523	412.94781247768094	415.9004371166229	4.1193013191223145	[409.80254888534546, 409.91951990127563, 410.88375997543335, 411.07069993019104, 411.8214259147644, 411.9381639957428, 412.05498790740967, 412.1550090312958, 412.27181911468506, 412.3885819911957, 412.50539207458496, 412.6222629547119, 412.73931789398193, 412.8557939529419, 412.9725909233093, 413.08955907821655, 413.2061860561371, 413.3229138851166, 413.43969202041626, 413.55647110939026, 413.6734070777893, 413.90043592453003]	[409.7965676127552, 409.91323427941524, 410.89623427941524, 411.06293427941523, 411.81293427941523, 411.92960094607525, 412.0462676127353, 412.1629342793953, 412.2796009460553, 412.39626761271535, 412.5129342793754, 412.6296009460354, 412.7462676126954, 412.86293427935544, 412.97960094601547, 413.0962676126755, 413.2129342793355, 413.32960094599554, 413.44626761265556, 413.5629342793156, 413.6796009459756, 413.91293427930896]	2021_Feb_04_1423	59.94920266478761	1	0.375
23	69	FALSE	NV	a	['K', 'R', 'A', 'N', 'G', 'P', 'Y', 'U', 'B', 'S', 'X', 'T', 'V', 'C', 'J', 'H']	[1122, 1587, 697, 1335, 944, 1456, 2670, 2059, 760, 1731, 4000, 1888, 2245, 829, 1029, 986]	11	Present	NA	NA	PRESENT	0.1314709186553955	415.8876478672027	417.89736700057983	418.83070724799865	419.1807091553272	422.01680397987366	4.119436979293823	[415.9094500541687, 416.0260241031647, 417.000128030777, 417.1771049499512, 417.9277310371399, 418.04469299316406, 418.1615650653839, 418.2783410549164, 418.3950159549713, 418.511971950531, 418.62860202789307, 418.7453770637512, 418.86226892471313, 418.9791600704193, 419.0958619117737, 419.2127890586853, 419.32948088645935, 419.4462959766388, 419.56304597854614, 419.67971301078796, 419.79649806022644, 420.01680302619934]	[415.91293427930896, 416.029600945969, 417.012600945969, 417.179300945969, 417.929300945969, 418.045967612629, 418.162634279289, 418.27930094594905, 418.39596761260907, 418.5126342792691, 418.6293009459291, 418.74596761258914, 418.86263427924916, 418.9793009459092, 419.0959676125692, 419.21263427922923, 419.32930094588926, 419.4459676125493, 419.5626342792093, 419.67930094586933, 419.79596761252935, 420.0293009458627]	2021_Feb_04_1423	59.94920266478761	1	0.375
23	70	FALSE	NA	a	['H', 'G', 'K', 'T', 'N', 'Z', 'V', 'S', 'U', 'X', 'C', 'E', 'W', 'M', 'J', 'R']	[986, 944, 1122, 1888, 1335, 2911, 2245, 1731, 2059, 4000, 829, 904, 2448, 1224, 1029, 1587]	10	Present	NA	NA	PRESENT	0.06389808654785156	422.0105109214782	424.0138258934021	424.8305006662538	425.1805025735824	428.1331698894501	4.119343996047974	[422.03232288360596, 422.1489849090576, 423.11648988723755, 423.3003249168396, 424.0509240627289, 424.16789388656616, 424.2846739292145, 424.40141797065735, 424.51826310157776, 424.63507103919983, 424.75173807144165, 424.86836791038513, 424.9855000972748, 425.1022620201111, 425.21910095214844, 425.33574891090393, 425.4528250694275, 425.56922602653503, 425.68624091148376, 425.8029680252075, 425.9197459220886, 426.1331698894501]	[422.0293009458627, 422.1459676125227, 423.12896761252273, 423.2956676125227, 424.0456676125227, 424.16233427918274, 424.27900094584277, 424.3956676125028, 424.5123342791628, 424.62900094582284, 424.74566761248286, 424.8623342791429, 424.9790009458029, 425.09566761246293, 425.21233427912296, 425.329000945783, 425.445667612443, 425.562334279103, 425.67900094576305, 425.7956676124231, 425.9123342790831, 426.14566761241645]	2021_Feb_04_1423	59.94920266478761	1	0.375
23	71	FALSE	AN	a	['R', 'M', 'E', 'Z', 'T', 'J', 'W', 'H', 'Y', 'surprise', 'C', 'A', 'K', 'N', 'U', 'V']	[1587, 1224, 904, 2911, 1888, 1029, 2448, 986, 2670, 'stimAuditory/all_stimAuditory/206.wav', 829, 697, 1122, 1335, 2059, 2245]	13	Absent	stimAuditory/all_stimAuditory/212.wav	NA	ABSENT	0.2612161636352539	428.11671686172485	430.13033294677734	431.29700748119046	431.6470096269377	434.2495369911194	4.119204044342041	[428.1385169029236, 428.2553789615631, 429.2328600883484, 429.40678191185, 430.1573190689087, 430.2742590904236, 430.3909111022949, 430.5078001022339, 430.6245720386505, 430.7414040565491, 430.85829305648804, 430.9750509262085, 431.0917019844055, 431.20867896080017, 431.32527899742126, 431.4422490596771, 431.55896401405334, 431.675833940506, 431.792503118515, 431.90945410728455, 432.0260260105133, 432.24953603744507]	[428.14566761241645, 428.26233427907647, 429.2453342790765, 429.41203427907647, 430.16203427907647, 430.2787009457365, 430.3953676123965, 430.51203427905654, 430.62870094571656, 430.7453676123766, 430.8620342790366, 430.97870094569663, 431.09536761235665, 431.2120342790167, 431.3287009456767, 431.4453676123367, 431.56203427899675, 431.6787009456568, 431.7953676123168, 431.9120342789768, 432.02870094563684, 432.2620342789702]	2021_Feb_04_1423	59.94920266478761	1	0.375
23	72	FALSE	NV	a	['S', 'H', 'G', 'K', 'C', 'J', 'A', 'U', 'M', 'P', 'T', 'X', 'R', 'E', 'Z', 'N']	[1731, 986, 944, 1122, 829, 1029, 697, 2059, 1224, 1456, 1888, 4000, 1587, 904, 2911, 1335]	12	Present	NA	NA	PRESENT	0.15372109413146973	434.23999094963074	436.24673199653625	437.29673986428935	437.6467420100366	440.3659029006958	4.119170904159546	[434.2617919445038, 434.3786039352417, 435.3492240905762, 435.53002095222473, 436.28043603897095, 436.39744901657104, 436.5141930580139, 436.6309928894043, 436.7476260662079, 436.86466097831726, 436.9813849925995, 437.09819293022156, 437.2150239944458, 437.3317139148712, 437.44853711128235, 437.5652289390564, 437.68198800086975, 437.7990310192108, 437.91582107543945, 438.0324809551239, 438.14951491355896, 438.3659029006958]	[434.2620342789702, 434.3787009456302, 435.3617009456302, 435.5284009456302, 436.2784009456302, 436.39506761229023, 436.51173427895026, 436.6284009456103, 436.7450676122703, 436.8617342789303, 436.97840094559035, 437.0950676122504, 437.2117342789104, 437.3284009455704, 437.44506761223045, 437.56173427889047, 437.6784009455505, 437.7950676122105, 437.91173427887054, 438.02840094553056, 438.1450676121906, 438.37840094552394]	2021_Feb_04_1423	59.94920266478761	1	0.375
23	73	FALSE	NN	a	['W', 'E', 'G', 'V', 'A', 'N', 'C', 'Z', 'Y', 'R', 'T', 'U', 'M', 'J', 'S', 'P']	[2448, 904, 944, 2245, 697, 1335, 829, 2911, 2670, 1587, 1888, 2059, 1224, 1029, 1731, 1456]	13	Absent	NA	NA	ABSENT	0.1274008750915527	440.3630428314209	442.3630700111389	443.529744545552	443.87974669129926	446.4822700023651	4.119199991226196	[440.38485503196716, 440.5017468929291, 441.4655900001526, 441.65296697616577, 442.4037001132965, 442.5036630630493, 442.620628118515, 442.7372000217438, 442.8540370464325, 442.97081303596497, 443.08757400512695, 443.20442295074463, 443.3211989402771, 443.4382529258728, 443.554811000824, 443.67160391807556, 443.7883849143982, 443.905385017395, 444.02204489707947, 444.1389100551605, 444.25581908226013, 444.4822680950165]	[440.37840094552394, 440.49506761218396, 441.47806761218396, 441.64476761218395, 442.39476761218395, 442.511434278844, 442.628100945504, 442.744767612164, 442.86143427882405, 442.9781009454841, 443.0947676121441, 443.2114342788041, 443.32810094546414, 443.44476761212417, 443.5614342787842, 443.6781009454442, 443.79476761210424, 443.91143427876426, 444.0281009454243, 444.1447676120843, 444.26143427874433, 444.4947676120777]	2021_Feb_04_1423	59.94920266478761	1	0.375
23	74	FALSE	NA	a	['U', 'Y', 'P', 'E', 'C', 'H', 'G', 'A', 'B', 'T', 'K', 'M', 'X', 'N', 'W', 'R']	[2059, 2670, 1456, 904, 829, 986, 944, 697, 760, 1888, 1122, 1224, 4000, 1335, 2448, 1587]	13	Present	NA	NA	PRESENT	0.24372410774230957	446.4698958396912	448.4793519973755	449.6460274854629	449.99602963121015	452.59863591194153	4.11928391456604	[446.4916970729828, 446.60803508758545, 447.58195900917053, 447.7593150138855, 448.5101890563965, 448.6269528865814, 448.74365496635437, 448.86034893989563, 448.9773290157318, 449.09402203559875, 449.21079897880554, 449.3275499343872, 449.44444394111633, 449.56129789352417, 449.6781508922577, 449.79469203948975, 449.9115951061249, 450.0285029411316, 450.1452488899231, 450.2620298862457, 450.3788390159607, 450.5986359119415]	[446.4947676120777, 446.6114342787377, 447.5944342787377, 447.7611342787377, 448.5111342787377, 448.6278009453977, 448.74446761205775, 448.86113427871777, 448.9778009453778, 449.0944676120378, 449.21113427869784, 449.32780094535786, 449.4444676120179, 449.5611342786779, 449.67780094533794, 449.79446761199796, 449.911134278658, 450.027800945318, 450.14446761197803, 450.26113427863805, 450.3778009452981, 450.6111342786314]	2021_Feb_04_1423	59.94920266478761	1	0.375
23	75	FALSE	NA	a	['M', 'K', 'Z', 'W', 'A', 'B', 'J', 'G', 'R', 'N', 'P', 'T', 'X', 'Y', 'S', 'C']	[1224, 1122, 2911, 2448, 697, 760, 1029, 944, 1587, 1335, 1456, 1888, 4000, 2670, 1731, 829]	13	Present	NA	NA	PRESENT	0.04014420509338379	452.5925579071045	454.5957260131836	455.7624005475967	456.11240269334394	458.7150030136109	4.119277000427246	[452.61435890197754, 452.7312579154968, 453.6983280181885, 453.88249707221985, 454.6333329677582, 454.7500500679016, 454.86678409576416, 454.9837028980255, 455.100506067276, 455.2170739173889, 455.33387088775635, 455.4506640434265, 455.5677270889282, 455.6842110157013, 455.80107498168945, 455.91813802719116, 456.03482699394226, 456.1514389514923, 456.26841402053833, 456.38499903678894, 456.5023829936981, 456.7150020599365]	[452.6111342786314, 452.72780094529145, 453.71080094529145, 453.87750094529144, 454.62750094529144, 454.74416761195147, 454.8608342786115, 454.9775009452715, 455.09416761193154, 455.21083427859156, 455.3275009452516, 455.4441676119116, 455.56083427857163, 455.67750094523166, 455.7941676118917, 455.9108342785517, 456.0275009452117, 456.14416761187175, 456.2608342785318, 456.3775009451918, 456.4941676118518, 456.72750094518517]	2021_Feb_04_1423	59.94920266478761	1	0.375
23	76	FALSE	NN	a	['N', 'Z', 'W', 'V', 'B', 'P', 'T', 'G', 'M', 'C', 'E', 'U', 'A', 'K', 'R', 'J']	[1335, 2911, 2448, 2245, 760, 1456, 1888, 944, 1224, 829, 904, 2059, 697, 1122, 1587, 1029]	14	Absent	NA	NA	PRESENT	0.0934598445892334	458.6990268230438	460.7119839191437	461.9953241665425	462.34532631228967	464.83137011528015	4.119386196136475	[458.72082805633545, 458.83753299713135, 459.81469106674194, 459.98880195617676, 460.7396650314331, 460.8566629886627, 460.97314405441284, 461.09005403518677, 461.2067151069641, 461.3234920501709, 461.4403729438782, 461.5572860240936, 461.6738679409027, 461.7909119129181, 461.90762209892273, 462.02450799942017, 462.1411409378052, 462.2578709125519, 462.3748199939728, 462.4916191101074, 462.60836601257324, 462.83136892318726]	[458.72750094518517, 458.8441676118452, 459.8271676118452, 459.9938676118452, 460.7438676118452, 460.8605342785052, 460.97720094516524, 461.09386761182526, 461.2105342784853, 461.3272009451453, 461.44386761180533, 461.56053427846535, 461.6772009451254, 461.7938676117854, 461.9105342784454, 462.02720094510545, 462.1438676117655, 462.2605342784255, 462.3772009450855, 462.49386761174554, 462.61053427840557, 462.8438676117389]	2021_Feb_04_1423	59.94920266478761	1	0.375
23	77	FALSE	NA	a	['K', 'G', 'U', 'C', 'H', 'R', 'M', 'Y', 'V', 'X', 'J', 'A', 'E', 'S', 'P', 'W']	[1122, 944, 2059, 829, 986, 1587, 1224, 2670, 2245, 4000, 1029, 697, 904, 1731, 1456, 2448]	10	Present	NA	NA	PRESENT	0.16213488578796387	464.8223648071289	466.8284389972687	467.6451135317018	467.995115677449	470.9477369785309	4.119297981262207	[464.84416604042053, 464.96102595329285, 465.9310600757599, 466.1120569705963, 466.8631360530853, 466.97958993911743, 467.09639406204224, 467.21326303482056, 467.33008098602295, 467.44663095474243, 467.5636239051819, 467.6802890300751, 467.7973039150238, 467.9139280319214, 468.030797958374, 468.1475160121918, 468.26456689834595, 468.3812139034271, 468.4977750778198, 468.6145429611206, 468.7313799858093, 468.94773602485657]	[464.8438676117389, 464.96053427839894, 465.94353427839894, 466.11023427839893, 466.86023427839893, 466.97690094505896, 467.093567611719, 467.210234278379, 467.32690094503903, 467.44356761169905, 467.5602342783591, 467.6769009450191, 467.7935676116791, 467.91023427833915, 468.02690094499917, 468.1435676116592, 468.2602342783192, 468.37690094497924, 468.49356761163926, 468.6102342782993, 468.7269009449593, 468.96023427829266]	2021_Feb_04_1423	59.94920266478761	1	0.375
23	78	FALSE	NV	a	['Y', 'J', 'Z', 'W', 'A', 'C', 'U', 'N', 'R', 'X', 'S', 'E', 'K', 'H', 'T', 'G']	[2670, 1029, 2911, 2448, 697, 829, 2059, 1335, 1587, 4000, 1731, 904, 1122, 986, 1888, 944]	10	Present	NA	NA	PRESENT	0.21541094779968264	470.9453718662262	472.94490098953247	473.76157457029126	474.1115764776199	477.0641028881073	4.119201898574829	[470.9671730995178, 471.08394408226013, 472.04742407798767, 472.23509311676025, 472.9860620498657, 473.08596897125244, 473.20276403427124, 473.31945395469666, 473.4362699985504, 473.5530478954315, 473.66990089416504, 473.7866280078888, 473.9035060405731, 474.02024102211, 474.1372001171112, 474.25382900238037, 474.37067103385925, 474.4873390197754, 474.6042869091034, 474.7211720943451, 474.8378839492798, 475.064101934433]	[470.96023427829266, 471.0769009449527, 472.0599009449527, 472.2266009449527, 472.9766009449527, 473.0932676116127, 473.2099342782727, 473.32660094493275, 473.4432676115928, 473.5599342782528, 473.6766009449128, 473.79326761157284, 473.90993427823287, 474.0266009448929, 474.1432676115529, 474.25993427821294, 474.37660094487296, 474.493267611533, 474.609934278193, 474.72660094485303, 474.84326761151306, 475.0766009448464]	2021_Feb_04_1423	59.94920266478761	1	0.375
23	79	FALSE	NN	a	['C', 'W', 'G', 'V', 'Y', 'M', 'J', 'H', 'B', 'E', 'U', 'P', 'N', 'S', 'R', 'T']	[829, 2448, 944, 2245, 2670, 1224, 1029, 986, 760, 904, 2059, 1456, 1335, 1731, 1587, 1888]	14	Absent	NA	NA	ABSENT	0.2597839832305908	477.05219888687134	479.0612540245056	480.344596179253	480.69459832500024	483.1804699897766	4.119215965270996	[477.0740010738373, 477.1904900074005, 478.16379499435425, 478.34139490127563, 479.0923840999603, 479.2091450691223, 479.3259689807892, 479.44280910491943, 479.559485912323, 479.67641401290894, 479.7930989265442, 479.9099509716034, 480.0266869068146, 480.14347290992737, 480.26038694381714, 480.37717390060425, 480.4939429759979, 480.6105179786682, 480.727511882782, 480.8441948890686, 480.9609520435333, 481.1804709434509]	[477.0766009448464, 477.1932676115064, 478.17626761150643, 478.3429676115064, 479.0929676115064, 479.20963427816645, 479.32630094482647, 479.4429676114865, 479.5596342781465, 479.67630094480654, 479.79296761146657, 479.9096342781266, 480.0263009447866, 480.14296761144664, 480.25963427810666, 480.3763009447667, 480.4929676114267, 480.60963427808673, 480.72630094474675, 480.8429676114068, 480.9596342780668, 481.19296761140015]	2021_Feb_04_1423	59.94920266478761	1	0.375
