participant	trial_num	practice	task	condition	RSVP	RAP	probePos	probe_presence	surprise_sound	surprise_img	probe_response	probe_resp_time	first_fixation_time	trial_start_time	surprise_start_time	probe_start_time	trial_end_time	trial_duration	actualEventTimes	plannedEventTimes	date	framerate	marker_vol	RAP_vol
2	1	FALSE	NA	v	['J', 'B', 'V', 'N', 'A', 'K', 'U', 'T', 'R', 'X', 'G', 'P', 'E', 'H', 'S', 'C']	[1029, 760, 2245, 1335, 697, 1122, 2059, 1888, 1587, 4000, 944, 1456, 904, 986, 1731, 829]	10	Present	NA	NA	VISUAL	0.597754955291748	3.0994415283203125e-6	1.977051019668579	2.7914600372314453	3.141484022140503	6.103870153427124	4.126819133758545	[0.03296208381652832, 0.11659908294677734, 1.1006700992584229, 1.267592191696167, 2.0350852012634277, 2.1350760459899902, 2.2518820762634277, 2.368525981903076, 2.485579013824463, 2.6023471355438232, 2.719048023223877, 2.8360002040863037, 2.952584981918335, 3.069362163543701, 3.1863131523132324, 3.3029561042785645, 3.4199399948120117, 3.536630153656006, 3.6535351276397705, 3.770285129547119, 3.887075185775757, 4.103869199752808]	[1.1920928955078125e-06, 0.11666785875956216, 1.099667858759562, 1.2663678587595621, 2.016367858759562, 2.1330345254262286, 2.2497011920928953, 2.366367858759562, 2.4830345254262287, 2.5997011920928954, 2.716367858759562, 2.833034525426229, 2.9497011920928955, 3.066367858759562, 3.183034525426229, 3.2997011920928956, 3.4163678587595623, 3.533034525426229, 3.6497011920928957, 3.7663678587595624, 3.883034525426229, 4.1163678587595625]	2020_Nov_25_1718	59.93626695856209	1	1
2	2	FALSE	NA	v	['W', 'T', 'N', 'P', 'Z', 'J', 'A', 'H', 'R', 'X', 'S', 'Y', 'C', 'V', 'B', 'U']	[2448, 1888, 1335, 1456, 2911, 1029, 697, 986, 1587, 4000, 1731, 2670, 829, 2245, 760, 2059]	10	Present	NA	NA	VISUAL	0.643049955368042	6.089762926101685	8.090044975280762	8.907018899917603	9.25684905052185	12.22023606300354	4.130191087722778	[6.12272310256958, 6.239391088485718, 7.224038124084473, 7.390757083892822, 8.141615152359009, 8.258303165435791, 8.3752920627594, 8.491860151290894, 8.608758211135864, 8.725423097610474, 8.842272996902466, 8.959022045135498, 9.075793027877808, 9.19264817237854, 9.309684038162231, 9.426406145095825, 9.54325008392334, 9.659908056259155, 9.77671217918396, 9.893519163131714, 9.994142055511475, 10.22023606300354]	[6.1163678587595625, 6.233034525426229, 7.216034525426228, 7.382734525426228, 8.132734525426228, 8.249401192092895, 8.366067858759562, 8.48273452542623, 8.599401192092897, 8.716067858759564, 8.83273452542623, 8.949401192092898, 9.066067858759565, 9.182734525426232, 9.2994011920929, 9.416067858759567, 9.532734525426234, 9.6494011920929, 9.766067858759568, 9.882734525426235, 9.999401192092902, 10.232734525426235]	2020_Nov_25_1718	59.93626695856209	1	1
2	3	FALSE	NV	v	['M', 'V', 'U', 'P', 'H', 'T', 'Z', 'B', 'Y', 'X', 'R', 'C', 'N', 'W', 'K', 'G']	[1224, 2245, 2059, 1456, 986, 1888, 2911, 760, 2670, 4000, 1587, 829, 1335, 2448, 1122, 944]	10	Present	NA	NA	VISUAL	0.5594968795776367	12.196355104446411	14.20625901222229	15.023427963256836	15.373431921005247	18.33660316467285	4.1303441524505615	[12.229314088821411, 12.34605097770691, 13.330494165420532, 13.497331142425537, 14.24797511100769, 14.364940166473389, 14.481734037399292, 14.59853219985962, 14.715165138244629, 14.83197808265686, 14.948763132095337, 15.065623998641968, 15.182350158691406, 15.299241065979004, 15.415975093841553, 15.532880067825317, 15.649651050567627, 15.76642918586731, 15.883126974105835, 15.999965190887451, 16.116708993911743, 16.336604118347168]	[12.232734525426235, 12.349401192092902, 13.332401192092902, 13.499101192092903, 14.249101192092903, 14.36576785875957, 14.482434525426237, 14.599101192092904, 14.715767858759571, 14.832434525426239, 14.949101192092906, 15.065767858759573, 15.18243452542624, 15.299101192092907, 15.415767858759574, 15.532434525426241, 15.649101192092909, 15.765767858759576, 15.882434525426243, 15.99910119209291, 16.115767858759575, 16.34910119209291]	2020_Nov_25_1718	59.93626695856209	1	1
2	4	FALSE	NA	v	['W', 'V', 'K', 'Y', 'P', 'B', 'J', 'U', 'C', 'X', 'N', 'S', 'Z', 'G', 'M', 'T']	[2448, 2245, 1122, 2670, 1456, 760, 1029, 2059, 829, 4000, 1335, 1731, 2911, 944, 1224, 1888]	10	Present	NA	NA	VISUAL	0.5961520671844482	18.319565057754517	20.322525024414062	21.139641046524048	21.489747047424316	24.452969074249268	4.130444049835205	[18.352524995803833, 18.46924901008606, 19.453801155090332, 19.620415210723877, 20.371607065200806, 20.488286018371582, 20.604942083358765, 20.72164511680603, 20.838402032852173, 20.955398082733154, 21.072022199630737, 21.188897132873535, 21.305721044540405, 21.422466039657593, 21.539309978485107, 21.656015157699585, 21.772917985916138, 21.889626026153564, 22.006534099578857, 22.12316107749939, 22.240066051483154, 22.452970027923584]	[18.34910119209291, 18.465767858759577, 19.448767858759577, 19.615467858759576, 20.365467858759576, 20.482134525426243, 20.59880119209291, 20.715467858759578, 20.832134525426245, 20.948801192092912, 21.06546785875958, 21.182134525426246, 21.298801192092913, 21.41546785875958, 21.532134525426248, 21.648801192092915, 21.765467858759582, 21.88213452542625, 21.998801192092916, 22.115467858759583, 22.23213452542625, 22.465467858759585]	2020_Nov_25_1718	59.93626695856209	1	1
2	5	FALSE	NN	v	['A', 'H', 'Y', 'M', 'G', 'Z', 'U', 'P', 'T', 'K', 'J', 'S', 'W', 'C', 'R', 'V']	[697, 986, 2670, 1224, 944, 2911, 2059, 1456, 1888, 1122, 1029, 1731, 2448, 829, 1587, 2245]	10	Absent	NA	NA	VISUAL	1.2734098434448242	24.42603302001953	26.43904995918274	27.256340980529785	27.60599994659424	30.569337129592896	4.130287170410156	[24.45899200439453, 24.575785160064697, 25.56019902229309, 25.727074146270752, 26.494791984558105, 26.594600200653076, 26.71139407157898, 26.828164100646973, 26.94489097595215, 27.06174111366272, 27.17864203453064, 27.29536199569702, 27.41204309463501, 27.5290629863739, 27.645684003829956, 27.76267409324646, 27.87928605079651, 27.996286153793335, 28.113054037094116, 28.229786157608032, 28.346541166305542, 28.569337129592896]	[24.465467858759585, 24.58213452542625, 25.565134525426252, 25.73183452542625, 26.48183452542625, 26.598501192092918, 26.715167858759585, 26.831834525426252, 26.94850119209292, 27.065167858759587, 27.181834525426254, 27.29850119209292, 27.415167858759588, 27.531834525426255, 27.648501192092922, 27.76516785875959, 27.881834525426257, 27.998501192092924, 28.11516785875959, 28.231834525426258, 28.348501192092925, 28.58183452542626]	2020_Nov_25_1718	59.93626695856209	1	1
2	6	FALSE	NA	v	['R', 'E', 'Z', 'K', 'P', 'B', 'A', 'X', 'C', 'Y', 'U', 'T', 'N', 'G', 'S', 'M']	[1587, 904, 2911, 1122, 1456, 760, 697, 4000, 829, 2670, 2059, 1888, 1335, 944, 1731, 1224]	8	Present	NA	NA	VISUAL	0.5340209007263184	30.549665927886963	32.55562090873718	33.138997077941895	33.48896098136902	36.68570399284363	4.130083084106445	[30.58262610435486, 30.698997974395752, 31.683484077453613, 31.85025119781494, 32.600985050201416, 32.71800899505615, 32.83472919464111, 32.95151901245117, 33.068281173706055, 33.185153007507324, 33.30174708366394, 33.418713092803955, 33.5354540348053, 33.6523220539093, 33.76900815963745, 33.88583517074585, 34.00264501571655, 34.11957502365112, 34.23617601394653, 34.353055000305176, 34.469802141189575, 34.68570303916931]	[30.58183452542626, 30.698501192092927, 31.681501192092927, 31.848201192092926, 32.59820119209293, 32.7148678587596, 32.831534525426264, 32.94820119209293, 33.0648678587596, 33.181534525426265, 33.29820119209293, 33.4148678587596, 33.53153452542627, 33.648201192092934, 33.7648678587596, 33.88153452542627, 33.998201192092935, 34.1148678587596, 34.23153452542627, 34.34820119209294, 34.464867858759604, 34.69820119209294]	2020_Nov_25_1718	59.93626695856209	1	1
2	7	FALSE	AV	v	['N', 'C', 'R', 'G', 'S', 'J', 'surprise', 'M', 'P', 'X', 'W', 'E', 'U', 'B', 'T', 'Y']	[1335, 829, 1587, 944, 1731, 1029, 'stimAuditory/all_stimAuditory/101.wav', 1224, 1456, 4000, 2448, 904, 2059, 760, 1888, 2670]	10	Present	stimAuditory/all_stimAuditory/101.wav	stimVisual/all_stimVisual/103.jpg	VISUAL	0.507612943649292	36.672603130340576	38.67195510864258	39.48877501487732	39.83883190155029	42.80207014083862	4.130115032196045	[36.70556306838989, 36.822494983673096, 37.80683517456055, 37.95677614212036, 38.724348068237305, 38.84111213684082, 38.95789813995361, 39.07468318939209, 39.19167613983154, 39.30827617645264, 39.4251651763916, 39.54187202453613, 39.65876817703247, 39.77553200721741, 39.8924241065979, 40.009358167648315, 40.125893115997314, 40.24271106719971, 40.34268403053284, 40.45937514305115, 40.57625913619995, 40.80206918716431]	[36.69820119209294, 36.814867858759605, 37.7978678587596, 37.9645678587596, 38.7145678587596, 38.83123452542627, 38.947901192092935, 39.0645678587596, 39.18123452542627, 39.29790119209294, 39.414567858759604, 39.53123452542627, 39.64790119209294, 39.764567858759605, 39.88123452542627, 39.99790119209294, 40.11456785875961, 40.231234525426274, 40.34790119209294, 40.46456785875961, 40.581234525426275, 40.81456785875961]	2020_Nov_25_1718	59.93626695856209	1	1
2	8	FALSE	NV	v	['A', 'P', 'J', 'B', 'H', 'W', 'S', 'T', 'E', 'G', 'V', 'X', 'Y', 'U', 'R', 'K']	[697, 1456, 1029, 760, 986, 2448, 1731, 1888, 904, 944, 2245, 4000, 2670, 2059, 1587, 1122]	12	Present	NA	NA	VISUAL	0.5358989238739014	42.77925992012024	44.78835606575012	45.83842611312866	46.18842101097107	48.918437004089355	4.130080938339233	[42.81221914291382, 42.92885208129883, 43.91329598426819, 44.08018612861633, 44.83079218864441, 44.94782900810242, 45.064364194869995, 45.18130397796631, 45.298036098480225, 45.4149911403656, 45.53150510787964, 45.648391008377075, 45.765138149261475, 45.882068157196045, 45.998741149902344, 46.11570501327515, 46.2324001789093, 46.3493070602417, 46.466005086898804, 46.58288311958313, 46.69964599609375, 46.91843605041504]	[42.81456785875961, 42.93123452542628, 43.914234525426274, 44.08093452542627, 44.83093452542627, 44.94760119209294, 45.06426785875961, 45.180934525426274, 45.29760119209294, 45.41426785875961, 45.530934525426275, 45.64760119209294, 45.76426785875961, 45.88093452542628, 45.997601192092944, 46.11426785875961, 46.23093452542628, 46.347601192092945, 46.46426785875961, 46.58093452542628, 46.69760119209295, 46.93093452542628]	2020_Nov_25_1718	59.93626695856209	1	1
2	9	FALSE	NN	v	['H', 'Y', 'K', 'R', 'M', 'E', 'Z', 'N', 'J', 'T', 'G', 'C', 'V', 'W', 'S', 'P']	[986, 2670, 1122, 1587, 1224, 904, 2911, 1335, 1029, 1888, 944, 829, 2245, 2448, 1731, 1456]	9	Absent	NA	NA	ABSENT	0.8854339122772217	48.90244507789612	50.90433406829834	51.604872941970825	51.95500302314758	55.03480410575867	4.130470037460327	[48.93540406227112, 49.05220818519592, 50.0368390083313, 50.203373193740845, 50.95401215553284, 51.07106399536133, 51.18763518333435, 51.3046441078186, 51.421274185180664, 51.53821015357971, 51.654826164245605, 51.77160310745239, 51.888432025909424, 52.00535321235657, 52.12212800979614, 52.23864507675171, 52.355777978897095, 52.4723641872406, 52.58930015563965, 52.70591902732849, 52.805992126464844, 53.03480315208435]	[48.93093452542628, 49.04760119209295, 50.030601192092945, 50.197301192092944, 50.947301192092944, 51.06396785875961, 51.18063452542628, 51.297301192092945, 51.41396785875961, 51.53063452542628, 51.64730119209295, 51.763967858759614, 51.88063452542628, 51.99730119209295, 52.113967858759615, 52.23063452542628, 52.34730119209295, 52.46396785875962, 52.580634525426284, 52.69730119209295, 52.81396785875962, 53.04730119209295]	2020_Nov_25_1718	59.93626695856209	1	1
2	10	FALSE	NV	v	['N', 'A', 'S', 'P', 'U', 'H', 'T', 'V', 'X', 'J', 'G', 'K', 'B', 'Y', 'Z', 'C']	[1335, 697, 1731, 1456, 2059, 986, 1888, 2245, 4000, 1029, 944, 1122, 760, 2670, 2911, 829]	9	Present	NA	NA	VISUAL	0.5138649940490723	55.00890612602234	57.02089810371399	57.721189975738525	58.07168602943421	61.15117001533508	4.130271911621094	[55.04186511039734, 55.158591985702515, 56.142991065979004, 56.309869050979614, 57.07738018035889, 57.17753219604492, 57.29437518119812, 57.41115617752075, 57.52798914909363, 57.64467406272888, 57.76156997680664, 57.87831902503967, 57.99487113952637, 58.11185312271118, 58.22847509384155, 58.34543704986572, 58.46208715438843, 58.57905697822571, 58.695741176605225, 58.812658071517944, 58.92938017845154, 59.15116906166077]	[55.04730119209295, 55.16396785875962, 56.146967858759616, 56.313667858759615, 57.063667858759615, 57.18033452542628, 57.29700119209295, 57.41366785875962, 57.530334525426284, 57.64700119209295, 57.76366785875962, 57.880334525426285, 57.99700119209295, 58.11366785875962, 58.23033452542629, 58.347001192092954, 58.46366785875962, 58.58033452542629, 58.697001192092955, 58.81366785875962, 58.93033452542629, 59.163667858759624]	2020_Nov_25_1718	59.93626695856209	1	1
2	11	FALSE	NN	v	['G', 'W', 'K', 'U', 'V', 'N', 'M', 'J', 'Y', 'B', 'Z', 'P', 'A', 'R', 'E', 'H']	[944, 2448, 1122, 2059, 2245, 1335, 1224, 1029, 2670, 760, 2911, 1456, 697, 1587, 904, 986]	11	Absent	NA	NA	ABSENT	0.8464469909667969	61.132527112960815	63.13714408874512	64.0708680152893	64.42123699188232	67.26753616333008	4.130392074584961	[61.165486097335815, 61.282018184661865, 62.26629614830017, 62.43304705619812, 63.18388605117798, 63.300889015197754, 63.417426109313965, 63.534440994262695, 63.65104007720947, 63.767829179763794, 63.88471603393555, 64.00163102149963, 64.11827611923218, 64.23497319221497, 64.35174608230591, 64.46857404708862, 64.58546113967896, 64.70223617553711, 64.81908202171326, 64.93589210510254, 65.05265402793884, 65.26753616333008]	[61.163667858759624, 61.28033452542629, 62.26333452542629, 62.43003452542629, 63.18003452542629, 63.296701192092954, 63.41336785875962, 63.53003452542629, 63.646701192092955, 63.76336785875962, 63.88003452542629, 63.99670119209296, 64.11336785875962, 64.23003452542628, 64.34670119209294, 64.4633678587596, 64.58003452542626, 64.69670119209292, 64.81336785875958, 64.93003452542624, 65.0467011920929, 65.28003452542623]	2020_Nov_25_1718	59.93626695856209	1	1
2	12	FALSE	NA	v	['M', 'G', 'A', 'Z', 'E', 'R', 'V', 'T', 'X', 'C', 'H', 'Y', 'U', 'N', 'K', 'S']	[1224, 944, 697, 2911, 904, 1587, 2245, 1888, 4000, 829, 986, 2670, 2059, 1335, 1122, 1731]	9	Present	NA	NA	VISUAL	0.5716409683227539	67.2553060054779	69.253751039505	69.95387506484985	70.30391192436218	73.38390398025513	4.130152940750122	[67.2882661819458, 67.40510106086731, 68.37268400192261, 68.53947806358337, 69.3072760105133, 69.4238760471344, 69.54072618484497, 69.65772604942322, 69.77439212799072, 69.8911681175232, 70.00784707069397, 70.10793113708496, 70.2247359752655, 70.3414740562439, 70.45820116996765, 70.57504510879517, 70.69182205200195, 70.82540917396545, 70.9254150390625, 71.04250121116638, 71.15907311439514, 71.38390398025513]	[67.28003452542623, 67.39670119209289, 68.3797011920929, 68.5464011920929, 69.2964011920929, 69.41306785875956, 69.52973452542622, 69.64640119209288, 69.76306785875954, 69.8797345254262, 69.99640119209286, 70.11306785875952, 70.22973452542618, 70.34640119209284, 70.4630678587595, 70.57973452542616, 70.69640119209282, 70.81306785875948, 70.92973452542614, 71.0464011920928, 71.16306785875946, 71.3964011920928]	2020_Nov_25_1718	59.93626695856209	1	1
2	13	FALSE	NN	v	['W', 'E', 'U', 'H', 'S', 'T', 'G', 'N', 'Y', 'K', 'V', 'B', 'C', 'M', 'R', 'P']	[2448, 904, 2059, 986, 1731, 1888, 944, 1335, 2670, 1122, 2245, 760, 829, 1224, 1587, 1456]	10	Absent	NA	NA	VISUAL	0.5281920433044434	73.36203098297119	75.37020993232727	76.18684506416321	76.53687906265259	79.50027012825012	4.130060195922852	[73.39499020576477, 73.51164317131042, 74.49602699279785, 74.6627721786499, 75.41360306739807, 75.53061318397522, 75.64727020263672, 75.7641670703888, 75.88083410263062, 75.99760317802429, 76.16455316543579, 76.23132705688477, 76.34814500808716, 76.46498918533325, 76.58154010772705, 76.69858002662659, 76.81518912315369, 76.93215799331665, 77.04884219169617, 77.16552710533142, 77.28245306015015, 77.5002691745758]	[73.3964011920928, 73.51306785875946, 74.49606785875946, 74.66276785875947, 75.41276785875947, 75.52943452542613, 75.64610119209279, 75.76276785875945, 75.8794345254261, 75.99610119209277, 76.11276785875943, 76.22943452542609, 76.34610119209275, 76.4627678587594, 76.57943452542607, 76.69610119209273, 76.81276785875939, 76.92943452542605, 77.0461011920927, 77.16276785875937, 77.27943452542603, 77.51276785875936]	2020_Nov_25_1718	59.93626695856209	1	1
2	14	FALSE	NN	v	['S', 'U', 'N', 'J', 'E', 'Y', 'Z', 'R', 'V', 'B', 'P', 'M', 'C', 'K', 'H', 'W']	[1731, 2059, 1335, 1029, 904, 2670, 2911, 1587, 2245, 760, 1456, 1224, 829, 1122, 986, 2448]	14	Absent	NA	NA	VISUAL	0.67768096923828125	79.48514699935913	81.48629093170166	82.76996994018555	83.12022089958191	85.61663699150085	4.130346059799194	[79.51810598373413, 79.63505506515503, 80.6194441318512, 80.78613710403442, 81.53723406791687, 81.65377116203308, 81.77049016952515, 81.88732814788818, 82.00425505638123, 82.1208770275116, 82.23783016204834, 82.35447597503662, 82.47134304046631, 82.58806705474854, 82.70490097999573, 82.82170701026917, 82.938392162323, 83.05531406402588, 83.17220211029053, 83.28875517845154, 83.3888771533966, 83.61663699150085]	[79.51276785875936, 79.62943452542602, 80.61243452542602, 80.77913452542603, 81.52913452542603, 81.64580119209269, 81.76246785875935, 81.87913452542601, 81.99580119209267, 82.11246785875933, 82.22913452542599, 82.34580119209265, 82.46246785875931, 82.57913452542597, 82.69580119209263, 82.81246785875929, 82.92913452542595, 83.04580119209261, 83.16246785875927, 83.27913452542593, 83.39580119209259, 83.62913452542593]	2020_Nov_25_1718	59.93626695856209	1	1
2	15	FALSE	AA	v	['C', 'E', 'R', 'T', 'N', 'K', 'surprise', 'G', 'S', 'X', 'A', 'U', 'Z', 'P', 'Y', 'J']	[829, 904, 1587, 1888, 1335, 1122, 'stimAuditory/all_stimAuditory/213.wav', 944, 1731, 4000, 697, 2059, 2911, 1456, 2670, 1029]	10	Present	stimAuditory/all_stimAuditory/213.wav	stimVisual/all_stimVisual/207.jpg	VISUAL	0.5299830436706543	85.59175491333008	87.60269808769226	88.42023396492004	88.76978397369385	91.73300313949584	4.130305051803589	[85.62471604347229, 85.74141311645508, 86.72590804100037, 86.89269804954529, 87.64341902732849, 87.76039409637451, 87.87698698043823, 87.99399518966675, 88.11060810089111, 88.2275800704956, 88.36104416847229, 88.46120405197144, 88.57783603668213, 88.69478702545166, 88.8113420009613, 88.92834520339966, 89.04495215415955, 89.16184997558594, 89.27859401702881, 89.39526200294495, 89.51220798492432, 89.73300313949585]	[85.62913452542593, 85.74580119209259, 86.72880119209259, 86.8955011920926, 87.6455011920926, 87.76216785875926, 87.87883452542592, 87.99550119209258, 88.11216785875924, 88.2288345254259, 88.34550119209256, 88.46216785875922, 88.57883452542588, 88.69550119209254, 88.8121678587592, 88.92883452542586, 89.04550119209252, 89.16216785875918, 89.27883452542584, 89.3955011920925, 89.51216785875916, 89.74550119209249]	2020_Nov_25_1718	59.93626695856209	1	1
2	16	FALSE	NV	v	['G', 'R', 'A', 'J', 'K', 'E', 'U', 'V', 'X', 'Y', 'P', 'C', 'S', 'Z', 'T', 'M']	[944, 1587, 697, 1029, 1122, 904, 2059, 2245, 4000, 2670, 1456, 829, 1731, 2911, 1888, 1224]	9	Present	NA	NA	VISUAL	0.5186281204223633	91.71524095535278	93.71920800209044	94.41944003105164	94.76942992210388	97.84937000274658	4.130162000656128	[91.74820113182068, 91.86485815048218, 92.84918904304504, 93.01574802398682, 93.76673007011414, 93.88343715667725, 94.00025820732117, 94.11716198921204, 94.23385310173035, 94.35069417953491, 94.46755599975586, 94.58434200286865, 94.70105814933777, 94.81798315048218, 94.93476009368896, 95.05144309997559, 95.16835308074951, 95.28500318527222, 95.40194702148438, 95.51876616477966, 95.63552808761597, 95.84936904907227]	[91.74550119209249, 91.86216785875915, 92.84516785875915, 93.01186785875916, 93.76186785875916, 93.87853452542582, 93.99520119209248, 94.11186785875914, 94.2285345254258, 94.34520119209246, 94.46186785875912, 94.57853452542578, 94.69520119209244, 94.8118678587591, 94.92853452542576, 95.04520119209242, 95.16186785875908, 95.27853452542574, 95.3952011920924, 95.51186785875906, 95.62853452542572, 95.86186785875906]	2020_Nov_25_1718	59.93626695856209	1	1
2	17	FALSE	NA	v	['V', 'W', 'U', 'T', 'K', 'B', 'Z', 'S', 'E', 'J', 'A', 'H', 'Y', 'X', 'P', 'C']	[2245, 2448, 2059, 1888, 1122, 760, 2911, 1731, 904, 1029, 697, 986, 2670, 4000, 1456, 829]	14	Present	NA	NA	VISUAL	0.5558319091796875	97.8382921218872	99.8354320526123	101.11910009384157	101.46920490264893	103.96573615074158	4.1303040981292725	[97.87125301361084, 97.97118210792542, 98.95563220977783, 99.12251615524292, 99.88999009132385, 99.98992919921875, 100.1067681312561, 100.22365498542786, 100.34038019180298, 100.45712900161743, 100.57391214370728, 100.69071102142334, 100.80754208564758, 100.92428016662598, 101.04146313667297, 101.15792918205261, 101.27474308013916, 101.39145612716675, 101.50831818580627, 101.62518310546875, 101.74200415611267, 101.96573615074158]	[97.86186785875906, 97.97853452542572, 98.96153452542572, 99.12823452542573, 99.87823452542573, 99.99490119209239, 100.11156785875905, 100.2282345254257, 100.34490119209237, 100.46156785875903, 100.57823452542569, 100.69490119209235, 100.811567858759, 100.92823452542567, 101.04490119209233, 101.16156785875899, 101.27823452542565, 101.3949011920923, 101.51156785875897, 101.62823452542563, 101.74490119209229, 101.97823452542562]	2020_Nov_25_1718	59.93626695856209	1	1
2	18	FALSE	NV	v	['W', 'Y', 'J', 'M', 'U', 'P', 'R', 'C', 'H', 'A', 'Z', 'B', 'X', 'S', 'E', 'K']	[2448, 2670, 1029, 1224, 2059, 1456, 1587, 829, 986, 697, 2911, 760, 4000, 1731, 904, 1122]	13	Present	NA	NA	VISUAL	0.4245951175689697	103.94473004341124	105.95202803611755	107.11905908584596	107.46873807907104	110.08211398124696	4.1300859451293945	[103.97768902778625, 104.09450912475586, 105.07900810241699, 105.24562811851501, 105.99643611907959, 106.11319899559021, 106.23021602630615, 106.34700298309326, 106.46368217468262, 106.58033418655396, 106.69736814498901, 106.81421303749084, 106.93089008331299, 107.04761719703674, 107.16457009315491, 107.28140997886658, 107.39815020561218, 107.51465916633606, 107.63162398338318, 107.74836111068726, 107.86520314216614, 108.08210301399231]	[103.97823452542562, 104.09490119209228, 105.07790119209228, 105.24460119209229, 105.99460119209229, 106.11126785875895, 106.22793452542561, 106.34460119209227, 106.46126785875893, 106.57793452542559, 106.69460119209225, 106.81126785875891, 106.92793452542557, 107.04460119209223, 107.16126785875889, 107.27793452542555, 107.39460119209221, 107.51126785875887, 107.62793452542553, 107.74460119209219, 107.86126785875885, 108.09460119209218]	2020_Nov_25_1718	59.93626695856209	1	1
2	19	FALSE	VV	v	['Y', 'R', 'J', 'H', 'Z', 'surprise', 'B', 'V', 'X', 'N', 'G', 'K', 'W', 'S', 'U', 'M']	[2670, 1587, 1029, 986, 2911, 'stimAuditory/all_stimAuditory/220.wav', 760, 2245, 4000, 1335, 944, 1122, 2448, 1731, 2059, 1224]	9	Present	NA	stimVisual/all_stimVisual/114.jpg	VISUAL	0.5417830944061279	110.06807708740234	112.068363904953	112.7685809135437	113.1184539794922	116.19847297668456	4.130109071731567	[110.10103607177734, 110.21786904335022, 111.20244216918945, 111.36907410621643, 112.11975812911987, 112.23650407791138, 112.35330700874329, 112.47007918357849, 112.58699917793274, 112.70366501808167, 112.82067108154297, 112.9374520778656, 113.05413317680359, 113.17106509208679, 113.2876250743866, 113.40462613105774, 113.52123212814331, 113.63811898231506, 113.75499510765076, 113.87166118621826, 113.97180104255676, 114.1984691619873]	[110.09460119209218, 110.21126785875884, 111.19426785875885, 111.36096785875885, 112.11096785875885, 112.22763452542551, 112.34430119209217, 112.46096785875883, 112.5776345254255, 112.69430119209215, 112.81096785875881, 112.92763452542547, 113.04430119209214, 113.1609678587588, 113.27763452542546, 113.39430119209212, 113.51096785875878, 113.62763452542544, 113.7443011920921, 113.86096785875876, 113.97763452542542, 114.21096785875875]	2020_Nov_25_1718	59.93626695856209	1	1
2	20	FALSE	NA	v	['U', 'K', 'P', 'E', 'B', 'A', 'H', 'Y', 'J', 'Z', 'V', 'T', 'M', 'X', 'R', 'G']	[2059, 1122, 1456, 904, 760, 697, 986, 2670, 1029, 2911, 2245, 1888, 1224, 4000, 1587, 944]	14	Present	NA	NA	VISUAL	0.7145519256591797	116.17467308044434	118.18439412117004	119.46816396713255	119.81850910186768	122.31483697891235	4.13044285774231	[116.20763206481934, 116.32422399520874, 117.3087911605835, 117.47546219825745, 118.22614812850952, 118.34319305419922, 118.45984411239624, 118.57683515548706, 118.69338703155518, 118.81020998954773, 118.92716002464294, 119.04390621185303, 119.1606330871582, 119.27751398086548, 119.39431810379028, 119.51090407371521, 119.62783312797546, 119.74474620819092, 119.86149311065674, 119.97802305221558, 120.09505105018616, 120.31483602523804]	[116.21096785875875, 116.32763452542541, 117.31063452542541, 117.47733452542542, 118.22733452542542, 118.34400119209208, 118.46066785875874, 118.5773345254254, 118.69400119209206, 118.81066785875872, 118.92733452542538, 119.04400119209204, 119.1606678587587, 119.27733452542536, 119.39400119209202, 119.51066785875868, 119.62733452542534, 119.744001192092, 119.86066785875866, 119.97733452542532, 120.09400119209198, 120.32733452542531]	2020_Nov_25_1718	59.93626695856209	1	1
2	21	FALSE	NA	v	['A', 'T', 'W', 'C', 'B', 'H', 'R', 'S', 'Y', 'E', 'M', 'Z', 'X', 'J', 'G', 'U']	[697, 1888, 2448, 829, 760, 986, 1587, 1731, 2670, 904, 1224, 2911, 4000, 1029, 944, 2059]	13	Present	NA	NA	VISUAL	0.6389260292053223	122.29767894744872	124.30090403556824	125.46794295310974	125.8178780078888	128.43120312690735	4.130299091339111	[122.33063912391663, 122.44736313819885, 123.43186402320862, 123.598806142807, 124.34948301315308, 124.46646118164062, 124.58301401138306, 124.6998770236969, 124.81683802604675, 124.93356800079346, 125.05036211013794, 125.1672191619873, 125.2840051651001, 125.40062618255615, 125.51761317253113, 125.63425898551941, 125.75121116638184, 125.86799716949463, 125.9846920967102, 126.10143899917603, 126.21823811531067, 126.43120408058167]	[122.32733452542531, 122.44400119209197, 123.42700119209198, 123.59370119209198, 124.34370119209198, 124.46036785875864, 124.5770345254253, 124.69370119209196, 124.81036785875862, 124.92703452542528, 125.04370119209194, 125.1603678587586, 125.27703452542526, 125.39370119209192, 125.51036785875858, 125.62703452542524, 125.7437011920919, 125.86036785875856, 125.97703452542522, 126.09370119209188, 126.21036785875854, 126.44370119209188]	2020_Nov_25_1718	59.93626695856209	1	1
2	22	FALSE	NA	v	['N', 'T', 'S', 'E', 'K', 'M', 'P', 'X', 'G', 'C', 'B', 'W', 'Y', 'A', 'H', 'V']	[1335, 1888, 1731, 904, 1122, 1224, 1456, 4000, 944, 829, 760, 2448, 2670, 697, 986, 2245]	8	Present	NA	NA	VISUAL	0.6124069690704346	128.40416193008423	130.41717505455017	131.00093698501587	131.3508780002594	134.54756903648376	4.130393981933594	[128.4371211528778, 128.553946018219, 129.5384750366211, 129.70517110824585, 130.47285914421082, 130.57279014587402, 130.68961119651794, 130.806627035141, 130.92314314842224, 131.04042506217957, 131.15675520896912, 131.27368116378784, 131.3904311656952, 131.50735807418823, 131.62402510643005, 131.74078702926636, 131.8577151298523, 131.97457599639893, 132.0913209915161, 132.20811104774475, 132.32479119300842, 132.54756903648376]	[128.44370119209188, 128.56036785875855, 129.54336785875856, 129.71006785875855, 130.46006785875855, 130.57673452542522, 130.6934011920919, 130.81006785875857, 130.92673452542525, 131.04340119209192, 131.1600678587586, 131.27673452542527, 131.39340119209194, 131.51006785875862, 131.6267345254253, 131.74340119209197, 131.86006785875864, 131.97673452542531, 132.093401192092, 132.21006785875866, 132.32673452542534, 132.56006785875866]	2020_Nov_25_1718	59.93626695856209	1	1
2	23	FALSE	NV	v	['R', 'P', 'W', 'C', 'J', 'M', 'Z', 'E', 'H', 'S', 'N', 'B', 'Y', 'X', 'V', 'K']	[1587, 1456, 2448, 829, 1029, 1224, 2911, 904, 986, 1731, 1335, 760, 2670, 4000, 2245, 1122]	14	Present	NA	NA	VISUAL	0.8648779392242432	134.52766799926758	136.5333640575409	137.81765007972717	138.16747903823853	140.6639370918274	4.130573034286499	[134.56062817573547, 134.6774001121521, 135.66174697875977, 135.8286271095276, 136.57921314239502, 136.69626116752625, 136.8127989768982, 136.9298391342163, 137.04644799232483, 137.16335320472717, 137.2801661491394, 137.39705109596252, 137.51371097564697, 137.63056802749634, 137.74734807014465, 137.86394119262695, 137.98095107078552, 138.09781098365784, 138.21453213691711, 138.33120703697205, 138.44797801971436, 138.66393613815308]	[134.56006785875866, 134.67673452542533, 135.65973452542534, 135.82643452542533, 136.57643452542533, 136.693101192092, 136.80976785875868, 136.92643452542535, 137.04310119209202, 137.1597678587587, 137.27643452542537, 137.39310119209205, 137.50976785875872, 137.6264345254254, 137.74310119209207, 137.85976785875874, 137.97643452542542, 138.0931011920921, 138.20976785875877, 138.32643452542544, 138.44310119209212, 138.67643452542544]	2020_Nov_25_1718	59.93626695856209	1	1
2	24	FALSE	NV	v	['A', 'V', 'R', 'N', 'B', 'W', 'S', 'J', 'U', 'G', 'H', 'T', 'X', 'Y', 'K', 'Z']	[697, 2245, 1587, 1335, 760, 2448, 1731, 1029, 2059, 944, 986, 1888, 4000, 2670, 1122, 2911]	13	Present	NA	NA	VISUAL	0.6139988899230957	140.65065598487854	142.65001392364502	143.81695008277893	144.16737294197085	146.7803041934967	4.130290269851685	[140.68361711502075, 140.80037808418274, 141.7852761745453, 141.95178604125977, 142.70253014564514, 142.81943917274475, 142.93630409240723, 143.0528531074524, 143.16992902755737, 143.28641319274902, 143.40321612358093, 143.5201849937439, 143.63685011863708, 143.75369215011597, 143.870512008667, 143.9875349998474, 144.10427117347717, 144.22100710868835, 144.3208291530609, 144.43768906593323, 144.5546112060547, 144.7803030014038]	[140.67643452542544, 140.7931011920921, 141.7761011920921, 141.9428011920921, 142.6928011920921, 142.80946785875878, 142.92613452542545, 143.04280119209213, 143.1594678587588, 143.27613452542548, 143.39280119209215, 143.50946785875882, 143.6261345254255, 143.74280119209217, 143.85946785875885, 143.97613452542552, 144.0928011920922, 144.20946785875887, 144.32613452542554, 144.44280119209222, 144.5594678587589, 144.7928011920922]	2020_Nov_25_1718	59.93626695856209	1	1
2	25	FALSE	NA	v	['H', 'V', 'A', 'E', 'N', 'T', 'M', 'Z', 'K', 'R', 'Y', 'W', 'X', 'S', 'B', 'U']	[986, 2245, 697, 904, 1335, 1888, 1224, 2911, 1122, 1587, 2670, 2448, 4000, 1731, 760, 2059]	13	Present	NA	NA	VISUAL	0.5545799732208252	146.7572479248047	148.7664349079132	149.93330001831055	150.28329801559448	152.89667010307312	4.130235195159912	[146.79020810127258, 146.9072141647339, 147.89154815673828, 148.05823516845703, 148.80910515785217, 148.92610502243042, 149.04267120361328, 149.15957403182983, 149.27615213394165, 149.39295601844788, 149.50987219810486, 149.62680101394653, 149.74355697631836, 149.86027216911316, 149.97719407081604, 150.09394121170044, 150.21066308021545, 150.32747316360474, 150.444274187088, 150.56101298332214, 150.67790913581848, 150.8966691493988]	[146.7928011920922, 146.9094678587589, 147.8924678587589, 148.05916785875888, 148.80916785875888, 148.92583452542556, 149.04250119209223, 149.1591678587589, 149.27583452542558, 149.39250119209225, 149.50916785875893, 149.6258345254256, 149.74250119209228, 149.85916785875895, 149.97583452542563, 150.0925011920923, 150.20916785875897, 150.32583452542565, 150.44250119209232, 150.559167858759, 150.67583452542567, 150.909167858759]	2020_Nov_25_1718	59.93626695856209	1	1
2	26	FALSE	NV	v	['B', 'E', 'T', 'H', 'V', 'A', 'R', 'Z', 'J', 'U', 'C', 'N', 'G', 'X', 'Y', 'S']	[760, 904, 1888, 986, 2245, 697, 1587, 2911, 1029, 2059, 829, 1335, 944, 4000, 2670, 1731]	14	Present	NA	NA	VISUAL	0.7279679775238037	152.8805959224701	154.88280606269836	156.16640210151672	156.51624298095703	159.01303720474243	4.130231142044067	[152.913556098938, 153.0303840637207, 154.0148720741272, 154.18160915374756, 154.9324140548706, 155.04902911186218, 155.1658730506897, 155.28271007537842, 155.3996901512146, 155.5162980556488, 155.63326001167297, 155.74987816810608, 155.86684799194336, 155.98361015319824, 156.10045909881592, 156.21711015701294, 156.33401703834534, 156.45084309577942, 156.5673999786377, 156.6843740940094, 156.78429508209229, 157.01303720474243]	[152.909167858759, 153.02583452542567, 154.00883452542567, 154.17553452542566, 154.92553452542566, 155.04220119209234, 155.158867858759, 155.27553452542568, 155.39220119209236, 155.50886785875903, 155.6255345254257, 155.74220119209238, 155.85886785875906, 155.97553452542573, 156.0922011920924, 156.20886785875908, 156.32553452542575, 156.44220119209243, 156.5588678587591, 156.67553452542577, 156.79220119209245, 157.02553452542577]	2020_Nov_25_1718	59.93626695856209	1	1
2	27	FALSE	VA	v	['U', 'N', 'V', 'J', 'A', 'Z', 'surprise', 'M', 'E', 'X', 'R', 'T', 'P', 'B', 'C', 'W']	[2059, 1335, 2245, 1029, 697, 2911, 'stimAuditory/all_stimAuditory/207.wav', 1224, 904, 4000, 1587, 1888, 1456, 760, 829, 2448]	10	Present	NA	stimVisual/all_stimVisual/210.jpg	VISUAL	0.5483369827270508	158.98701810836792	160.99895405769348	161.81627202033997	162.1661651134491	165.12940311431885	4.130449056625366	[159.0199761390686, 159.13684821128845, 160.12131214141846, 160.28828120231628, 161.05599212646484, 161.15574717521667, 161.27236604690552, 161.38936805725098, 161.50605010986328, 161.62299609184265, 161.75645303726196, 161.85657906532288, 161.97325801849365, 162.09000205993652, 162.20680117607117, 162.32368397712708, 162.4404420852661, 162.55713415145874, 162.67399716377258, 162.79076218605042, 162.90768814086914, 163.12940216064453]	[159.02553452542577, 159.14220119209244, 160.12520119209245, 160.29190119209244, 161.04190119209244, 161.1585678587591, 161.2752345254258, 161.39190119209246, 161.50856785875914, 161.6252345254258, 161.74190119209248, 161.85856785875916, 161.97523452542583, 162.0919011920925, 162.20856785875918, 162.32523452542586, 162.44190119209253, 162.5585678587592, 162.67523452542588, 162.79190119209255, 162.90856785875923, 163.14190119209255]	2020_Nov_25_1718	59.93626695856209	1	1
2	28	FALSE	NA	v	['V', 'W', 'T', 'A', 'K', 'C', 'U', 'E', 'Z', 'J', 'R', 'Y', 'N', 'X', 'M', 'B']	[2245, 2448, 1888, 697, 1122, 829, 2059, 904, 2911, 1029, 1587, 2670, 1335, 4000, 1224, 760]	14	Present	NA	NA	VISUAL	0.6330091953277588	165.1105511188507	167.11551213264465	168.3996250629425	168.7492389678955	171.24576997756958	4.130257844924927	[165.1435101032257, 165.26034998893738, 166.2444350719452, 166.4114751815796, 167.16219997406006, 167.27894401550293, 167.39561104774475, 167.51250100135803, 167.62934398651123, 167.74602007865906, 167.86297297477722, 167.9798321723938, 168.09653615951538, 168.21317410469055, 168.33013606071472, 168.44682002067566, 168.56374406814575, 168.6805989742279, 168.79745221138, 168.91396403312683, 169.03099513053894, 169.24576902389526]	[165.14190119209255, 165.25856785875922, 166.24156785875923, 166.40826785875922, 167.15826785875922, 167.2749345254259, 167.39160119209257, 167.50826785875924, 167.6249345254259, 167.7416011920926, 167.85826785875926, 167.97493452542594, 168.0916011920926, 168.20826785875929, 168.32493452542596, 168.44160119209263, 168.5582678587593, 168.67493452542598, 168.79160119209266, 168.90826785875933, 169.024934525426, 169.25826785875933]	2020_Nov_25_1718	59.93626695856209	1	1
2	29	FALSE	NV	v	['J', 'H', 'N', 'P', 'Z', 'R', 'V', 'X', 'T', 'M', 'Y', 'E', 'G', 'U', 'S', 'K']	[1029, 986, 1335, 1456, 2911, 1587, 2245, 4000, 1888, 1224, 2670, 904, 944, 2059, 1731, 1122]	8	Present	NA	NA	VISUAL	0.5662209987640381	171.23406195640564	173.23186993598938	173.81554293632507	174.16547799110413	177.3621370792389	4.130267143249512	[171.26702308654785, 171.3834261894226, 172.35101199150085, 172.51781606674194, 173.28535509109497, 173.40213704109192, 173.51914405822754, 173.63586020469666, 173.75245213508606, 173.86944818496704, 173.9863121509552, 174.0860950946808, 174.20288801193237, 174.31970119476318, 174.43655800819397, 174.55332398414612, 174.6701090335846, 174.7869210243225, 174.90371799468994, 175.02049112319946, 175.13749504089355, 175.36213612556458]	[171.25826785875933, 171.374934525426, 172.357934525426, 172.524634525426, 173.274634525426, 173.39130119209267, 173.50796785875934, 173.62463452542602, 173.7413011920927, 173.85796785875937, 173.97463452542604, 174.09130119209271, 174.2079678587594, 174.32463452542606, 174.44130119209274, 174.5579678587594, 174.6746345254261, 174.79130119209276, 174.90796785875943, 175.0246345254261, 175.14130119209278, 175.3746345254261]	2020_Nov_25_1718	59.93626695856209	1	1
2	30	FALSE	NV	v	['S', 'N', 'E', 'B', 'W', 'R', 'Y', 'G', 'J', 'A', 'K', 'Z', 'X', 'P', 'U', 'M']	[1731, 1335, 904, 760, 2448, 1587, 2670, 944, 1029, 697, 1122, 2911, 4000, 1456, 2059, 1224]	13	Present	NA	NA	VISUAL	0.7068150043487549	177.34009504318237	179.34837198257446	180.51516008377075	180.8651840686798	183.4785041809082	4.13013219833374	[177.37305402755737, 177.48993301391602, 178.47435116767883, 178.64109706878662, 179.39188814163208, 179.5088541507721, 179.62563514709473, 179.74235105514526, 179.8590681552887, 179.97584509849548, 180.0927550792694, 180.20940899848938, 180.32636404037476, 180.44303607940674, 180.56008315086365, 180.67679715156555, 180.7936110496521, 180.9103810787201, 181.02737498283386, 181.1437430381775, 181.2608711719513, 181.478502035141]	[177.3746345254261, 177.49130119209278, 178.47430119209278, 178.64100119209277, 179.39100119209277, 179.50766785875945, 179.62433452542612, 179.7410011920928, 179.85766785875947, 179.97433452542614, 180.09100119209282, 180.2076678587595, 180.32433452542617, 180.44100119209284, 180.55766785875952, 180.6743345254262, 180.79100119209286, 180.90766785875954, 181.0243345254262, 181.1410011920929, 181.25766785875956, 181.49100119209288]	2020_Nov_25_1718	59.93626695856209	1	1
2	31	FALSE	NV	v	['G', 'P', 'K', 'M', 'V', 'S', 'W', 'U', 'Y', 'T', 'R', 'E', 'X', 'B', 'C', 'J']	[944, 1456, 1122, 1224, 2245, 1731, 2448, 2059, 2670, 1888, 1587, 904, 4000, 760, 829, 1029]	13	Present	NA	NA	VISUAL	0.7199749946594238	183.46354007720947	185.46477794647217	186.63190698623657	186.98158597946167	189.59487009048465	4.130092144012451	[183.49649906158447, 183.61331915855408, 184.59770011901855, 184.76449513435364, 185.5152690410614, 185.63198709487915, 185.74872708320618, 185.86567616462708, 185.98247599601746, 186.0992271900177, 186.2160680294037, 186.33268904685974, 186.44935417175293, 186.56634402275085, 186.68326210975647, 186.79984498023987, 186.91680812835693, 187.03356003761292, 187.15020513534546, 187.26698207855225, 187.367103099823, 187.59487009048462]	[183.49100119209288, 183.60766785875956, 184.59066785875956, 184.75736785875955, 185.50736785875955, 185.62403452542623, 185.7407011920929, 185.85736785875957, 185.97403452542625, 186.09070119209292, 186.2073678587596, 186.32403452542627, 186.44070119209294, 186.55736785875962, 186.6740345254263, 186.79070119209297, 186.90736785875964, 187.02403452542632, 187.140701192093, 187.25736785875966, 187.37403452542634, 187.60736785875966]	2020_Nov_25_1718	59.93626695856209	1	1
2	32	FALSE	NV	v	['A', 'R', 'T', 'P', 'V', 'S', 'N', 'J', 'U', 'E', 'X', 'W', 'M', 'H', 'Z', 'Y']	[697, 1587, 1888, 1456, 2245, 1731, 1335, 1029, 2059, 904, 4000, 2448, 1224, 986, 2911, 2670]	11	Present	NA	NA	VISUAL	0.7645900249481201	189.56989908218384	191.58077812194824	192.51452112197876	192.8645679950714	195.71123719215393	4.1304590702056885	[189.60286021232605, 189.7198941707611, 190.70419311523438, 190.87106609344482, 191.62187910079956, 191.73865008354187, 191.85530519485474, 191.97217798233032, 192.08893513679504, 192.20578718185425, 192.32250213623047, 192.43921303749084, 192.5562081336975, 192.67297101020813, 192.7896649837494, 192.90656900405884, 193.02338004112244, 193.13995218276978, 193.25695204734802, 193.3735511302948, 193.49046516418457, 193.71123600006104]	[189.60736785875966, 189.72403452542633, 190.70703452542634, 190.87373452542633, 191.62373452542633, 191.740401192093, 191.85706785875968, 191.97373452542635, 192.09040119209303, 192.2070678587597, 192.32373452542637, 192.44040119209305, 192.55706785875972, 192.6737345254264, 192.79040119209307, 192.90706785875975, 193.02373452542642, 193.1404011920931, 193.25706785875977, 193.37373452542644, 193.49040119209312, 193.72373452542644]	2020_Nov_25_1718	59.93626695856209	1	1
2	33	FALSE	VA	v	['N', 'S', 'G', 'Z', 'H', 'B', 'P', 'M', 'J', 'surprise', 'C', 'Y', 'X', 'U', 'E', 'V']	[1335, 1731, 944, 2911, 986, 760, 1456, 1224, 1029, 'stimAuditory/all_stimAuditory/124.wav', 829, 2670, 4000, 2059, 904, 2245]	13	Present	NA	stimVisual/all_stimVisual/250.jpg	VISUAL	0.6330609321594238	195.69319105148315	197.697331905365	198.8644380569458	199.21429109573364	201.82760310173035	4.1302711963653564	[195.72615098953247, 195.8430211544037, 196.82752418518066, 196.9942171573639, 197.74493598937988, 197.86176800727844, 197.97848200798035, 198.09526801109314, 198.2122311592102, 198.3289611339569, 198.4457540512085, 198.5626699924469, 198.67926597595215, 198.79610919952393, 198.9129559993744, 199.02966499328613, 199.1466372013092, 199.26337599754333, 199.380047082901, 199.49684405326843, 199.61382508277893, 199.82760214805603]	[195.72373452542644, 195.8404011920931, 196.82340119209312, 196.9901011920931, 197.7401011920931, 197.85676785875978, 197.97343452542646, 198.09010119209313, 198.2067678587598, 198.32343452542648, 198.44010119209315, 198.55676785875983, 198.6734345254265, 198.79010119209318, 198.90676785875985, 199.02343452542652, 199.1401011920932, 199.25676785875987, 199.37343452542655, 199.49010119209322, 199.6067678587599, 199.84010119209321]	2020_Nov_25_1718	59.93626695856209	1	1
2	34	FALSE	NN	v	['C', 'P', 'H', 'J', 'Y', 'N', 'K', 'B', 'Z', 'W', 'V', 'U', 'R', 'T', 'E', 'M']	[829, 1456, 986, 1029, 2670, 1335, 1122, 760, 2911, 2448, 2245, 2059, 1587, 1888, 904, 1224]	9	Absent	NA	NA	NONE	-1	201.81672191619873	203.81364512443545	204.51398611068728	204.86423897743225	207.9559280872345	4.142282962799072	[201.84968209266663, 201.94935703277588, 202.9339780807495, 203.10061407089233, 203.86833119392395, 203.96824717521667, 204.08504700660706, 204.20178318023682, 204.31860518455505, 204.4353790283203, 204.55215215682983, 204.66900205612183, 204.78569507598877, 204.90253901481628, 205.01934218406677, 205.13611102104187, 205.25303602218628, 205.36995220184326, 205.48668217658997, 205.60332417488098, 205.72031211853027, 205.94397020339966]	[201.84010119209321, 201.9567678587599, 202.9397678587599, 203.10646785875988, 203.85646785875988, 203.97313452542656, 204.08980119209323, 204.2064678587599, 204.32313452542658, 204.43980119209326, 204.55646785875993, 204.6731345254266, 204.78980119209328, 204.90646785875995, 205.02313452542663, 205.1398011920933, 205.25646785875998, 205.37313452542665, 205.48980119209332, 205.60646785876, 205.72313452542667, 205.95646785876]	2020_Nov_25_1718	59.93626695856209	1	1
2	35	FALSE	NN	v	['N', 'U', 'B', 'G', 'W', 'S', 'H', 'R', 'Y', 'C', 'E', 'A', 'K', 'Z', 'T', 'J']	[1335, 2059, 760, 944, 2448, 1731, 986, 1587, 2670, 829, 904, 697, 1122, 2911, 1888, 1029]	12	Absent	NA	NA	VISUAL	0.5790841579437256	207.9396460056305	209.93010306358337	210.9803740978241	211.33042907714844	214.06033611297607	4.1302330493927	[207.9726061820984, 208.07283520698547, 209.05698800086975, 209.22390699386597, 209.97471499443054, 210.09152913093567, 210.20849418640137, 210.32511115074158, 210.44203901290894, 210.55873107910156, 210.67567110061646, 210.7922191619873, 210.90922117233276, 211.02614998817444, 211.14276218414307, 211.2594120502472, 211.37627601623535, 211.49301409721375, 211.60993218421936, 211.72654819488525, 211.84352898597717, 212.0603370666504]	[207.95646785876, 208.07313452542667, 209.05613452542667, 209.22283452542666, 209.97283452542666, 210.08950119209334, 210.20616785876, 210.32283452542669, 210.43950119209336, 210.55616785876003, 210.6728345254267, 210.78950119209338, 210.90616785876006, 211.02283452542673, 211.1395011920934, 211.25616785876008, 211.37283452542675, 211.48950119209343, 211.6061678587601, 211.72283452542678, 211.83950119209345, 212.07283452542677]	2020_Nov_25_1718	59.93626695856209	1	1
2	36	FALSE	AA	v	['J', 'Z', 'R', 'E', 'W', 'V', 'G', 'surprise', 'B', 'Y', 'X', 'H', 'A', 'U', 'C', 'K']	[1029, 2911, 1587, 904, 2448, 2245, 944, 'stimAuditory/all_stimAuditory/204.wav', 760, 2670, 4000, 986, 697, 2059, 829, 1122]	11	Present	stimAuditory/all_stimAuditory/220.wav	stimVisual/all_stimVisual/102.jpg	VISUAL	0.5443599224090576	214.0462701320648	216.04635500907895	216.98006296157837	217.33005809783936	220.1767041683197	4.130349159240723	[214.07923007011414, 214.19603204727173, 215.18033409118652, 215.3471131324768, 216.0981001853943, 216.21489810943604, 216.331561088562, 216.44837498664856, 216.565279006958, 216.68211197853088, 216.79884719848633, 216.91560316085815, 217.03247499465942, 217.1491560935974, 217.26601719856262, 217.382826089859, 217.49941611289978, 217.61632800102234, 217.733225107193, 217.8497769832611, 217.94984197616577, 218.1767041683197]	[214.07283452542677, 214.18950119209345, 215.17250119209345, 215.33920119209344, 216.08920119209344, 216.20586785876012, 216.3225345254268, 216.43920119209346, 216.55586785876014, 216.6725345254268, 216.7892011920935, 216.90586785876016, 217.02253452542683, 217.1392011920935, 217.25586785876018, 217.37253452542686, 217.48920119209353, 217.6058678587602, 217.72253452542688, 217.83920119209355, 217.95586785876023, 218.18920119209355]	2020_Nov_25_1718	59.93626695856209	1	1
2	37	FALSE	NV	v	['V', 'G', 'Y', 'N', 'R', 'M', 'P', 'H', 'J', 'Z', 'K', 'S', 'W', 'X', 'B', 'C']	[2245, 944, 2670, 1335, 1587, 1224, 1456, 986, 1029, 2911, 1122, 1731, 2448, 4000, 760, 829]	14	Present	NA	NA	VISUAL	0.5410981178283691	220.1526679992676	222.16298699378967	223.44648694992063	223.79637789726257	226.29307007789612	4.130083084106445	[220.18562698364258, 220.3027801513672, 221.2873079776764, 221.45371007919312, 222.20449304580688, 222.32127404212952, 222.43835401535034, 222.55503797531128, 222.67180013656616, 222.78839111328125, 222.9054160118103, 223.0220592021942, 223.1389651298523, 223.2555890083313, 223.37252712249756, 223.48936104774475, 223.606183052063, 223.7228400707245, 223.8397409915924, 223.95641899108887, 224.07322907447815, 224.29307007789612]	[220.18920119209355, 220.30586785876022, 221.28886785876023, 221.45556785876022, 222.20556785876022, 222.3222345254269, 222.43890119209357, 222.55556785876024, 222.67223452542692, 222.7889011920936, 222.90556785876026, 223.02223452542694, 223.1389011920936, 223.2555678587603, 223.37223452542696, 223.48890119209364, 223.6055678587603, 223.72223452542698, 223.83890119209366, 223.95556785876033, 224.072234525427, 224.30556785876033]	2020_Nov_25_1718	59.93626695856209	1	1
2	38	FALSE	NA	v	['U', 'N', 'W', 'A', 'Y', 'T', 'R', 'K', 'Z', 'X', 'P', 'J', 'M', 'E', 'H', 'B']	[2059, 1335, 2448, 697, 2670, 1888, 1587, 1122, 2911, 4000, 1456, 1029, 1224, 904, 986, 760]	10	Present	NA	NA	VISUAL	0.6095030307769775	226.27601599693295	228.27905702590945	229.09617710113525	229.44611597061157	232.40943717956543	4.130380153656006	[226.30897498130798, 226.42582321166992, 227.41020703315735, 227.5770571231842, 228.3278090953827, 228.44452905654907, 228.5614151954651, 228.67807006835938, 228.79493308067322, 228.9117670059204, 229.02874517440796, 229.1454381942749, 229.26231908798218, 229.3789780139923, 229.49577617645264, 229.6125361919403, 229.72920107841492, 229.84606409072876, 229.9628140926361, 230.07974100112915, 230.19649004936218, 230.40943598747253]	[226.30556785876033, 226.422234525427, 227.405234525427, 227.571934525427, 228.321934525427, 228.43860119209367, 228.55526785876035, 228.67193452542702, 228.7886011920937, 228.90526785876037, 229.02193452542704, 229.13860119209372, 229.2552678587604, 229.37193452542706, 229.48860119209374, 229.6052678587604, 229.7219345254271, 229.83860119209376, 229.95526785876044, 230.0719345254271, 230.18860119209378, 230.4219345254271]	2020_Nov_25_1718	59.93626695856209	1	1
2	39	FALSE	NA	v	['N', 'G', 'S', 'K', 'V', 'Y', 'U', 'W', 'B', 'X', 'E', 'C', 'T', 'P', 'Z', 'H']	[1335, 944, 1731, 1122, 2245, 2670, 2059, 2448, 760, 4000, 904, 829, 1888, 1456, 2911, 986]	10	Present	NA	NA	VISUAL	0.5908570289611816	232.38242292404175	234.39540791511536	235.21268606185913	235.56281900405884	238.52580308914185	4.130395174026489	[232.41538214683533, 232.53241610527039, 233.51674509048462, 233.6833930015564, 234.45098900794983, 234.55119013786316, 234.6678011417389, 234.78485107421875, 234.90137004852295, 235.0184450149536, 235.13518905639648, 235.25206804275513, 235.36872720718384, 235.4854781627655, 235.6022961139679, 235.71912097930908, 235.8358781337738, 235.9525489807129, 236.06945610046387, 236.18626403808594, 236.30308508872986, 236.52580404281616]	[232.4219345254271, 232.53860119209378, 233.52160119209378, 233.68830119209377, 234.43830119209377, 234.55496785876045, 234.67163452542712, 234.7883011920938, 234.90496785876047, 235.02163452542715, 235.13830119209382, 235.2549678587605, 235.37163452542717, 235.48830119209384, 235.60496785876052, 235.7216345254272, 235.83830119209387, 235.95496785876054, 236.0716345254272, 236.1883011920939, 236.30496785876056, 236.53830119209388]	2020_Nov_25_1718	59.93626695856209	1	1
2	40	FALSE	NN	v	['A', 'B', 'K', 'N', 'Y', 'G', 'M', 'Z', 'U', 'R', 'C', 'W', 'T', 'S', 'V', 'P']	[697, 760, 1122, 1335, 2670, 944, 1224, 2911, 2059, 1587, 829, 2448, 1888, 1731, 2245, 1456]	8	Absent	NA	NA	VISUAL	0.5313930511474609	238.5057590007782	240.5119590759277	241.09557509422305	241.44565391540527	244.64217019081116	4.130211114883423	[238.5387191772461, 238.65571904182434, 239.63989210128784, 239.8067810535431, 240.55763006210327, 240.67435097694397, 240.79130911827087, 240.90811920166016, 241.02519512176514, 241.14155912399292, 241.25832605361938, 241.3751142024994, 241.49202418327332, 241.60872101783752, 241.72549700737, 241.84226202964783, 241.95908617973328, 242.0758261680603, 242.19269013404846, 242.30942511558533, 242.42622113227844, 242.64217019081116]	[238.53830119209388, 238.65496785876056, 239.63796785876056, 239.80466785876055, 240.55466785876055, 240.67133452542723, 240.7880011920939, 240.90466785876058, 241.02133452542725, 241.13800119209392, 241.2546678587606, 241.37133452542727, 241.48800119209395, 241.60466785876062, 241.7213345254273, 241.83800119209397, 241.95466785876064, 242.07133452542732, 242.188001192094, 242.30466785876067, 242.42133452542734, 242.65466785876066]	2020_Nov_25_1718	59.93626695856209	1	1
2	41	FALSE	NV	v	['M', 'C', 'N', 'V', 'E', 'G', 'B', 'A', 'X', 'S', 'T', 'P', 'W', 'Y', 'R', 'K']	[1224, 829, 1335, 2245, 904, 944, 760, 697, 4000, 1731, 1888, 1456, 2448, 2670, 1587, 1122]	9	Present	NA	NA	VISUAL	0.6406660079956055	244.62910389900208	246.62818098068237	247.32853198051453	247.67860507965088	250.7585370540619	4.130356073379517	[244.66206312179565, 244.77883410453796, 245.74644017219543, 245.91319012641907, 246.68083119392395, 246.79778909683228, 246.91433906555176, 247.0312430858612, 247.1480791568756, 247.264888048172, 247.38166308403015, 247.49847412109375, 247.61530709266663, 247.73196411132812, 247.84891510009766, 247.9656801223755, 248.0822491645813, 248.19928312301636, 248.31598615646362, 248.4331991672516, 248.53285002708435, 248.75853610038757]	[244.65466785876066, 244.77133452542733, 245.75433452542734, 245.92103452542733, 246.67103452542733, 246.787701192094, 246.90436785876068, 247.02103452542735, 247.13770119209403, 247.2543678587607, 247.37103452542738, 247.48770119209405, 247.60436785876072, 247.7210345254274, 247.83770119209407, 247.95436785876075, 248.07103452542742, 248.1877011920941, 248.30436785876077, 248.42103452542744, 248.53770119209412, 248.77103452542744]	2020_Nov_25_1718	59.93626695856209	1	1
2	42	FALSE	AV	v	['E', 'C', 'W', 'Y', 'surprise', 'M', 'S', 'X', 'V', 'P', 'T', 'U', 'J', 'A', 'B', 'H']	[904, 829, 2448, 2670, 'stimAuditory/all_stimAuditory/102.wav', 1224, 1731, 4000, 2245, 1456, 1888, 2059, 1029, 697, 760, 986]	8	Present	stimAuditory/all_stimAuditory/207.wav	stimVisual/all_stimVisual/118.jpg	VISUAL	0.5410709381103516	250.73551106452945	252.7446699142456	253.32829809188843	253.67858004570007	256.8749041557312	4.130234241485596	[250.76847219467163, 250.8854501247406, 251.87014818191528, 252.03665804862976, 252.78733015060425, 252.9043140411377, 253.02099704742432, 253.13763117790222, 253.2546830177307, 253.37125611305237, 253.48816800117493, 253.60507106781006, 253.7218370437622, 253.8384711742401, 253.95549416542053, 254.07212209701538, 254.189040184021, 254.30572199821472, 254.42261219024658, 254.53922605514526, 254.656023979187, 254.8749041557312]	[250.77103452542744, 250.8877011920941, 251.87070119209412, 252.0374011920941, 252.7874011920941, 252.90406785876078, 253.02073452542746, 253.13740119209413, 253.2540678587608, 253.37073452542748, 253.48740119209415, 253.60406785876083, 253.7207345254275, 253.83740119209418, 253.95406785876085, 254.07073452542753, 254.1874011920942, 254.30406785876087, 254.42073452542755, 254.53740119209422, 254.6540678587609, 254.88740119209422]	2020_Nov_25_1718	59.93626695856209	1	1
2	43	FALSE	NN	v	['V', 'T', 'B', 'A', 'S', 'C', 'Y', 'U', 'P', 'J', 'W', 'K', 'M', 'G', 'E', 'H']	[2245, 1888, 760, 697, 1731, 829, 2670, 2059, 1456, 1029, 2448, 1122, 1224, 944, 904, 986]	12	Absent	NA	NA	VISUAL	1.3142499923706057	256.85887908935547	258.86099100112915	259.9113619327545	260.26141810417175	262.9912700653076	4.130279064178467	[256.8918390274048, 257.0085301399231, 257.9928979873657, 258.159921169281, 258.9106650352478, 259.0274271965027, 259.1441249847412, 259.2611150741577, 259.37767219543457, 259.49457597732544, 259.61134815216064, 259.7282521724701, 259.84525203704834, 259.96173310279846, 260.07856917381287, 260.19554901123047, 260.3121659755707, 260.42900919914246, 260.5456840991974, 260.6624619960785, 260.76249408721924, 260.9912700653076]	[256.8874011920942, 257.0040678587609, 257.9870678587609, 258.1537678587609, 258.9037678587609, 259.02043452542756, 259.13710119209424, 259.2537678587609, 259.3704345254276, 259.48710119209426, 259.60376785876093, 259.7204345254276, 259.8371011920943, 259.95376785876095, 260.07043452542763, 260.1871011920943, 260.303767858761, 260.42043452542765, 260.5371011920943, 260.653767858761, 260.7704345254277, 261.003767858761]	2020_Nov_25_1718	59.93626695856209	1	1
2	44	FALSE	NN	v	['U', 'J', 'K', 'S', 'A', 'Y', 'T', 'W', 'B', 'C', 'H', 'E', 'R', 'P', 'V', 'G']	[2059, 1029, 1122, 1731, 697, 2670, 1888, 2448, 760, 829, 986, 904, 1587, 1456, 2245, 944]	11	Absent	NA	NA	ABSENT	0.5830259323120117	262.9653389453888	264.9771249294281	265.91105103492737	266.2609739303589	269.10763716697693	4.130512237548828	[262.9982981681824, 263.1152009963989, 264.09944701194763, 264.2663850784302, 265.03381419181824, 265.13391518592834, 265.2507610321045, 265.3674991130829, 265.4844090938568, 265.60119915008545, 265.7179570198059, 265.8347849845886, 265.95159697532654, 266.0682461261749, 266.1852340698242, 266.3019790649414, 266.4188141822815, 266.5353801250458, 266.65231800079346, 266.76894211769104, 266.88590908050537, 267.10763716697693]	[263.003767858761, 263.1204345254277, 264.1034345254277, 264.2701345254277, 265.0201345254277, 265.13680119209437, 265.25346785876104, 265.3701345254277, 265.4868011920944, 265.60346785876106, 265.72013452542774, 265.8368011920944, 265.9534678587611, 266.07013452542776, 266.18680119209444, 266.3034678587611, 266.4201345254278, 266.53680119209446, 266.65346785876113, 266.7701345254278, 266.8868011920945, 267.12013452542783]	2020_Nov_25_1718	59.93626695856209	1	1
2	45	FALSE	VN	v	['B', 'Y', 'V', 'K', 'J', 'Z', 'surprise', 'H', 'U', 'E', 'R', 'C', 'A', 'G', 'T', 'W']	[760, 2670, 2245, 1122, 1029, 2911, 'stimAuditory/all_stimAuditory/107.wav', 986, 2059, 904, 1587, 829, 697, 944, 1888, 2448]	10	Absent	NA	stimVisual/all_stimVisual/105.jpg	ABSENT	0.571558952331543	269.0885739326477	271.09367299079895	271.9109630584717	272.26077103614807	275.22400403022766	4.130331039428711	[269.1215331554413, 269.2384819984436, 270.2227339744568, 270.38965606689453, 271.1408021450043, 271.25710701942444, 271.37409806251526, 271.49068808555603, 271.6077301502228, 271.724436044693, 271.8412380218506, 271.957976102829, 272.07480120658875, 272.19157004356384, 272.30844712257385, 272.4251811504364, 272.54199719429016, 272.6588411331177, 272.77564120292664, 272.8922441005707, 273.0092120170593, 273.22400403022766]	[269.12013452542783, 269.2368011920945, 270.2198011920945, 270.3865011920945, 271.1365011920945, 271.2531678587612, 271.36983452542785, 271.4865011920945, 271.6031678587612, 271.71983452542787, 271.83650119209454, 271.9531678587612, 272.0698345254279, 272.18650119209457, 272.30316785876124, 272.4198345254279, 272.5365011920946, 272.65316785876126, 272.76983452542794, 272.8865011920946, 273.0031678587613, 273.23650119209464]	2020_Nov_25_1718	59.93626695856209	1	1
2	46	FALSE	NN	v	['W', 'U', 'Y', 'E', 'A', 'G', 'S', 'K', 'J', 'T', 'P', 'Z', 'C', 'V', 'H', 'B']	[2448, 2059, 2670, 904, 697, 944, 1731, 1122, 1029, 1888, 1456, 2911, 829, 2245, 986, 760]	13	Absent	NA	NA	ABSENT	0.7929279804229736	275.2119688987732	277.20985102653503	278.3772609233856	278.7271800041199	281.34037017822266	4.130519151687622	[275.2449281215668, 275.36156606674194, 276.32925605773926, 276.4960560798645, 277.2635850906372, 277.3805181980133, 277.497132062912, 277.61415910720825, 277.73076701164246, 277.8475670814514, 277.9475100040436, 278.0643951892853, 278.19797706604004, 278.2980329990387, 278.4148461818695, 278.5316381454468, 278.64838004112244, 278.76523518562317, 278.8819739818573, 278.99871802330017, 279.11561012268066, 279.34036898612976]	[275.23650119209464, 275.3531678587613, 276.3361678587613, 276.5028678587613, 277.2528678587613, 277.369534525428, 277.48620119209465, 277.60286785876133, 277.719534525428, 277.8362011920947, 277.95286785876135, 278.069534525428, 278.1862011920947, 278.3028678587614, 278.41953452542805, 278.5362011920947, 278.6528678587614, 278.76953452542807, 278.88620119209475, 279.0028678587614, 279.1195345254281, 279.35286785876144]	2020_Nov_25_1718	59.93626695856209	1	1
2	47	FALSE	NV	v	['Y', 'A', 'U', 'G', 'J', 'B', 'V', 'N', 'S', 'H', 'X', 'P', 'K', 'T', 'R', 'M']	[2670, 697, 2059, 944, 1029, 760, 2245, 1335, 1731, 986, 4000, 1456, 1122, 1888, 1587, 1224]	11	Present	NA	NA	VISUAL	0.5495319366455078	281.31879591941833	283.3264479637146	284.26007604599	284.61013197898865	287.4567360877991	4.130288124084473	[281.35175609588623, 281.46828508377075, 282.45248913764954, 282.6195011138916, 283.3701891899109, 283.48697304725647, 283.60391998291016, 283.7205591201782, 283.83744716644287, 283.95416712760925, 284.07107615470886, 284.18776297569275, 284.30464911460876, 284.42134308815, 284.53822112083435, 284.6549160480499, 284.7716500759125, 284.888521194458, 285.0054512023926, 285.12195205688477, 285.2388081550598, 285.4567360877991]	[281.35286785876144, 281.4695345254281, 282.4525345254281, 282.6192345254281, 283.3692345254281, 283.4859011920948, 283.60256785876146, 283.71923452542813, 283.8359011920948, 283.9525678587615, 284.06923452542816, 284.18590119209483, 284.3025678587615, 284.4192345254282, 284.53590119209485, 284.65256785876153, 284.7692345254282, 284.8859011920949, 285.00256785876155, 285.1192345254282, 285.2359011920949, 285.46923452542825]	2020_Nov_25_1718	59.93626695856209	1	1
2	48	FALSE	NN	v	['H', 'U', 'E', 'M', 'S', 'Z', 'Y', 'A', 'K', 'R', 'P', 'N', 'J', 'V', 'C', 'G']	[986, 2059, 904, 1224, 1731, 2911, 2670, 697, 1122, 1587, 1456, 1335, 1029, 2245, 829, 944]	13	Absent	NA	NA	ABSENT	0.7149899005889893	287.4417099952698	289.44269704818726	290.60976791381836	290.9598560333252	293.5731031894684	4.130406141281128	[287.47467017173767, 287.59151005744934, 288.5758330821991, 288.7427260875702, 289.49339604377747, 289.61027812957764, 289.7269320487976, 289.84396719932556, 289.9605131149292, 290.07740902900696, 290.19428300857544, 290.31109714508057, 290.4278030395508, 290.54474997520447, 290.66147804260254, 290.77815413475037, 290.8950581550598, 291.01220297813416, 291.12856698036194, 291.24532318115234, 291.34526205062866, 291.5731041431427]	[287.46923452542825, 287.5859011920949, 288.5689011920949, 288.7356011920949, 289.4856011920949, 289.6022678587616, 289.71893452542827, 289.83560119209494, 289.9522678587616, 290.0689345254283, 290.18560119209496, 290.30226785876164, 290.4189345254283, 290.535601192095, 290.65226785876166, 290.76893452542834, 290.885601192095, 291.0022678587617, 291.11893452542836, 291.23560119209503, 291.3522678587617, 291.58560119209506]	2020_Nov_25_1718	59.93626695856209	1	1
2	49	FALSE	NA	v	['B', 'N', 'C', 'R', 'M', 'K', 'J', 'P', 'E', 'V', 'S', 'U', 'X', 'W', 'Y', 'G']	[760, 1335, 829, 1587, 1224, 1122, 1029, 1456, 904, 2245, 1731, 2059, 4000, 2448, 2670, 944]	13	Present	NA	NA	VISUAL	0.5833570957183838	293.5482530593872	295.5592589378357	296.72615003585815	297.0762150287628	299.6894700527191	4.130211114883423	[293.5812120437622, 293.69806003570557, 294.6823019981384, 294.8491439819336, 295.59987807273865, 295.71668910980225, 295.8337230682373, 295.95033407211304, 296.0672290325165, 296.1840000152588, 296.3007001876831, 296.4176061153412, 296.5343270301819, 296.6510682106018, 296.7681210041046, 296.88474917411804, 297.0014691352844, 297.11834502220154, 297.2352731227875, 297.3518500328064, 297.46881008148193, 297.6894690990448]	[293.58560119209506, 293.70226785876173, 294.68526785876173, 294.8519678587617, 295.6019678587617, 295.7186345254284, 295.8353011920951, 295.95196785876175, 296.0686345254284, 296.1853011920951, 296.30196785876177, 296.41863452542844, 296.5353011920951, 296.6519678587618, 296.76863452542847, 296.88530119209514, 297.0019678587618, 297.1186345254285, 297.23530119209516, 297.35196785876184, 297.4686345254285, 297.70196785876186]	2020_Nov_25_1718	59.93626695856209	1	1
2	50	FALSE	VN	v	['K', 'T', 'Z', 'C', 'A', 'G', 'V', 'U', 'surprise', 'M', 'S', 'R', 'B', 'N', 'H', 'P']	[1122, 1888, 2911, 829, 697, 944, 2245, 2059, 'stimAuditory/all_stimAuditory/123.wav', 1224, 1731, 1587, 760, 1335, 986, 1456]	12	Absent	NA	stimVisual/all_stimVisual/108.jpg	VISUAL	1.235954999923706	299.67152094841003	301.675607919693	302.72594690322876	303.0759229660034	305.8058371543884	4.130229234695435	[299.70448112487793, 299.8210229873657, 300.805655002594, 300.97250604629517, 301.72337007522583, 301.8400571346283, 301.9568381309509, 302.07357001304626, 302.19042706489563, 302.30717515945435, 302.4241449832916, 302.54081106185913, 302.6575059890747, 302.77432513237, 302.8911211490631, 303.00812697410583, 303.1247351169586, 303.2416100502014, 303.35825300216675, 303.47517013549805, 303.5920081138611, 303.8058362007141]	[299.70196785876186, 299.81863452542854, 300.80163452542854, 300.96833452542853, 301.71833452542853, 301.8350011920952, 301.9516678587619, 302.06833452542855, 302.1850011920952, 302.3016678587619, 302.4183345254286, 302.53500119209525, 302.6516678587619, 302.7683345254286, 302.8850011920953, 303.00166785876195, 303.1183345254286, 303.2350011920953, 303.35166785876197, 303.46833452542865, 303.5850011920953, 303.81833452542867]	2020_Nov_25_1718	59.93626695856209	1	1
2	51	FALSE	NA	v	['A', 'V', 'Z', 'C', 'U', 'H', 'M', 'J', 'B', 'W', 'X', 'T', 'S', 'R', 'P', 'E']	[697, 2245, 2911, 829, 2059, 986, 1224, 1029, 760, 2448, 4000, 1888, 1731, 1587, 1456, 904]	11	Present	NA	NA	VISUAL	0.5370650291442871	305.79462695121765	307.79200410842896	308.7257089614868	309.07568192481995	311.92220306396484	4.130198955535889	[305.82758617401123, 305.92766308784485, 306.9122030735016, 307.0789330005646, 307.8463590145111, 307.96339106559753, 308.06320905685425, 308.18009400367737, 308.296875, 308.41365098953247, 308.5304660797119, 308.6472170352936, 308.76417303085327, 308.8808100223541, 308.99775218963623, 309.11439204216003, 309.2313551902771, 309.3479890823364, 309.46491599082947, 309.58159017562866, 309.69834208488464, 309.92220401763916]	[305.81833452542867, 305.93500119209534, 306.91800119209535, 307.08470119209534, 307.83470119209534, 307.951367858762, 308.0680345254287, 308.18470119209536, 308.30136785876203, 308.4180345254287, 308.5347011920954, 308.65136785876206, 308.76803452542873, 308.8847011920954, 309.0013678587621, 309.11803452542875, 309.23470119209543, 309.3513678587621, 309.4680345254288, 309.58470119209545, 309.7013678587621, 309.9347011920955]	2020_Nov_25_1718	59.93626695856209	1	1
2	52	FALSE	NA	v	['S', 'H', 'M', 'N', 'A', 'K', 'P', 'X', 'J', 'U', 'B', 'Z', 'V', 'E', 'R', 'C']	[1731, 986, 1224, 1335, 697, 1122, 1456, 4000, 1029, 2059, 760, 2911, 2245, 904, 1587, 829]	8	Present	NA	NA	VISUAL	0.693640947341919	311.9015839099884	313.90826892852783	314.49200892448425	314.8420259952545	318.03857016563416	4.130301237106323	[311.934543132782, 312.05107498168945, 313.0353410243988, 313.2023379802704, 313.9530580043793, 314.06964206695557, 314.1867530345917, 314.3032901287079, 314.4204261302948, 314.5369870662689, 314.6537470817566, 314.77051615715027, 314.8872811794281, 315.0041811466217, 315.12099719047546, 315.2378602027893, 315.3546030521393, 315.47132110595703, 315.58820819854736, 315.7047941684723, 315.82169103622437, 316.03857016563416]	[311.9347011920955, 312.05136785876215, 313.03436785876215, 313.20106785876214, 313.95106785876214, 314.0677345254288, 314.1844011920955, 314.30106785876217, 314.41773452542884, 314.5344011920955, 314.6510678587622, 314.76773452542886, 314.88440119209554, 315.0010678587622, 315.1177345254289, 315.23440119209556, 315.35106785876224, 315.4677345254289, 315.5844011920956, 315.70106785876226, 315.81773452542893, 316.0510678587623]	2020_Nov_25_1718	59.93626695856209	1	1
2	53	FALSE	NA	v	['H', 'N', 'U', 'V', 'Z', 'A', 'C', 'Y', 'X', 'J', 'E', 'B', 'P', 'R', 'T', 'K']	[986, 1335, 2059, 2245, 2911, 697, 829, 2670, 4000, 1029, 904, 760, 1456, 1587, 1888, 1122]	9	Present	NA	NA	VISUAL	0.674893856048584	318.0246031284332	320.02455401420593	320.72495102882385	321.075012922287	324.1549370288849	4.130383014678955	[318.0575621128082, 318.1740691661835, 319.1585621833801, 319.3253719806671, 320.0761821269989, 320.1931450366974, 320.30969500541687, 320.42677903175354, 320.54349398612976, 320.6603500843048, 320.7770721912384, 320.8938410282135, 321.01087713241577, 321.127552986145, 321.24410820007324, 321.36110615730286, 321.4777421951294, 321.59465312957764, 321.71147108078003, 321.82813000679016, 321.92832708358765, 322.1549370288849]	[318.0510678587623, 318.16773452542895, 319.15073452542896, 319.31743452542895, 320.06743452542895, 320.1841011920956, 320.3007678587623, 320.417434525429, 320.53410119209565, 320.6507678587623, 320.767434525429, 320.88410119209567, 321.00076785876234, 321.117434525429, 321.2341011920957, 321.35076785876237, 321.46743452542904, 321.5841011920957, 321.7007678587624, 321.81743452542906, 321.93410119209574, 322.1674345254291]	2020_Nov_25_1718	59.93626695856209	1	1
2	54	FALSE	NA	v	['M', 'K', 'T', 'P', 'H', 'A', 'V', 'B', 'N', 'X', 'S', 'G', 'U', 'E', 'Z', 'J']	[1224, 1122, 1888, 1456, 986, 697, 2245, 760, 1335, 4000, 1731, 944, 2059, 904, 2911, 1029]	10	Present	NA	NA	VISUAL	0.6715960502624512	324.13097190856934	326.1409900188446	326.9583480358124	327.30797600746155	330.2713041305542	4.130314111709595	[324.1639311313629, 324.2809040546417, 325.26502799987793, 325.4320809841156, 326.18290615081787, 326.29963302612305, 326.4164171218872, 326.53304719924927, 326.6500861644745, 326.7667829990387, 326.88358306884766, 327.000226020813, 327.1171860694885, 327.2339150905609, 327.35075211524963, 327.46749901771545, 327.58441710472107, 327.70113015174866, 327.8180491924286, 327.9346890449524, 328.0515420436859, 328.2713041305542]	[324.1674345254291, 324.28410119209576, 325.26710119209577, 325.43380119209576, 326.18380119209576, 326.30046785876243, 326.4171345254291, 326.5338011920958, 326.65046785876245, 326.7671345254291, 326.8838011920958, 327.0004678587625, 327.11713452542915, 327.2338011920958, 327.3504678587625, 327.4671345254292, 327.58380119209585, 327.7004678587625, 327.8171345254292, 327.93380119209587, 328.05046785876254, 328.2838011920959]	2020_Nov_25_1718	59.93626695856209	1	1
2	55	FALSE	VA	v	['E', 'Z', 'J', 'V', 'T', 'K', 'H', 'N', 'G', 'surprise', 'C', 'A', 'X', 'S', 'W', 'P']	[904, 2911, 1029, 2245, 1888, 1122, 986, 1335, 944, 'stimAuditory/all_stimAuditory/218.wav', 829, 697, 4000, 1731, 2448, 1456]	13	Present	NA	stimVisual/all_stimVisual/122.jpg	VISUAL	0.763948917388916	330.25439190864563	332.25746512413025	333.42469906806946	333.77438592910767	336.3876700401306	4.130204916000366	[330.2873511314392, 330.40408301353455, 331.38872718811035, 331.55535101890564, 332.3060209751129, 332.4229431152344, 332.5396931171417, 332.65648317337036, 332.7731330394745, 332.890025138855, 333.0067331790924, 333.12365102767944, 333.2403221130371, 333.3572201728821, 333.4739592075348, 333.5908980369568, 333.7075991630554, 333.8244571685791, 333.94105219841003, 334.0578260421753, 334.17481303215027, 334.3876690864563]	[330.2838011920959, 330.40046785876257, 331.3834678587626, 331.55016785876256, 332.30016785876256, 332.41683452542924, 332.5335011920959, 332.6501678587626, 332.76683452542926, 332.88350119209593, 333.0001678587626, 333.1168345254293, 333.23350119209596, 333.35016785876263, 333.4668345254293, 333.583501192096, 333.70016785876265, 333.81683452542933, 333.933501192096, 334.0501678587627, 334.16683452542935, 334.4001678587627]	2020_Nov_25_1718	59.93626695856209	1	1
2	56	FALSE	NN	v	['M', 'W', 'V', 'B', 'C', 'K', 'T', 'H', 'E', 'P', 'R', 'G', 'A', 'Y', 'J', 'Z']	[1224, 2448, 2245, 760, 829, 1122, 1888, 986, 904, 1456, 1587, 944, 697, 2670, 1029, 2911]	12	Absent	NA	NA	ABSENT	0.7213480472564697	336.3607540130615	338.37377095222473	339.4241111278534	339.7743310928345	342.5040371417999	4.130266189575195	[336.3937129974365, 336.5107181072235, 337.49501299858093, 337.6618790626526, 338.4292531013489, 338.5293571949005, 338.64613819122314, 338.76294112205505, 338.87966299057007, 338.99649715423584, 339.11329412460327, 339.2300741672516, 339.34703612327576, 339.46382308006287, 339.5806450843811, 339.697242975235, 339.8141281604767, 339.9308741092682, 340.04752707481384, 340.1644129753113, 340.28128719329834, 340.5040361881256]	[336.4001678587627, 336.5168345254294, 337.4998345254294, 337.66653452542937, 338.41653452542937, 338.53320119209604, 338.6498678587627, 338.7665345254294, 338.88320119209607, 338.99986785876274, 339.1165345254294, 339.2332011920961, 339.34986785876276, 339.46653452542944, 339.5832011920961, 339.6998678587628, 339.81653452542946, 339.93320119209613, 340.0498678587628, 340.1665345254295, 340.28320119209616, 340.5165345254295]	2020_Nov_25_1718	59.93626695856209	1	1
2	57	FALSE	NA	v	['N', 'C', 'R', 'Z', 'E', 'J', 'H', 'X', 'M', 'G', 'P', 'W', 'Y', 'V', 'S', 'T']	[1335, 829, 1587, 2911, 904, 1029, 986, 4000, 1224, 944, 1456, 2448, 2670, 2245, 1731, 1888]	8	Present	NA	NA	VISUAL	0.6458649635314941	342.48406505584717	344.4900770187378	345.07433700561523	345.42385697364807	348.62040400505066	4.130326986312866	[342.5170261859894, 342.6339089870453, 343.61813402175903, 343.784991979599, 344.53586506843567, 344.65261220932007, 344.7694079875946, 344.8862991333008, 345.00309920310974, 345.11976504325867, 345.2365531921387, 345.35334300994873, 345.4702000617981, 345.58700919151306, 345.70372009277344, 345.8206880092621, 345.93737602233887, 346.0542690753937, 346.1708731651306, 346.2876000404358, 346.40459299087524, 346.620402097702]	[342.5165345254295, 342.6332011920962, 343.6162011920962, 343.7829011920962, 344.5329011920962, 344.64956785876285, 344.7662345254295, 344.8829011920962, 344.9995678587629, 345.11623452542955, 345.2329011920962, 345.3495678587629, 345.46623452542957, 345.58290119209624, 345.6995678587629, 345.8162345254296, 345.93290119209627, 346.04956785876294, 346.1662345254296, 346.2829011920963, 346.39956785876296, 346.6329011920963]	2020_Nov_25_1718	59.93626695856209	1	1
2	58	FALSE	VV	v	['N', 'V', 'R', 'H', 'surprise', 'P', 'Y', 'X', 'Z', 'G', 'E', 'J', 'W', 'T', 'S', 'B']	[1335, 2245, 1587, 986, 'stimAuditory/all_stimAuditory/211.wav', 1456, 2670, 4000, 2911, 944, 904, 1029, 2448, 1888, 1731, 760]	8	Present	NA	stimVisual/all_stimVisual/50.jpg	VISUAL	0.7472310066223145	348.60723400115967	350.60635590553284	351.19020199775696	351.5407009124756	354.73677015304565	4.130414247512817	[348.6401951313019, 348.7572431564331, 349.7415180206299, 349.89142417907715, 350.65896010398865, 350.77597403526306, 350.8925311565399, 351.00974011421204, 351.1264281272888, 351.24302101135254, 351.3597900867462, 351.47662806510925, 351.593474149704, 351.7103111743927, 351.8270540237427, 351.9438819885254, 352.0604820251465, 352.1772630214691, 352.2940630912781, 352.3941102027893, 352.51096415519714, 352.73677015304565]	[348.6329011920963, 348.749567858763, 349.732567858763, 349.899267858763, 350.649267858763, 350.76593452542966, 350.88260119209633, 350.999267858763, 351.1159345254297, 351.23260119209635, 351.349267858763, 351.4659345254297, 351.5826011920964, 351.69926785876305, 351.8159345254297, 351.9326011920964, 352.0492678587631, 352.16593452542975, 352.2826011920964, 352.3992678587631, 352.51593452542977, 352.7492678587631]	2020_Nov_25_1718	59.93626695856209	1	1
2	59	FALSE	NA	v	['P', 'Y', 'V', 'T', 'R', 'U', 'K', 'J', 'B', 'Z', 'N', 'X', 'S', 'E', 'W', 'G']	[1456, 2670, 2245, 1888, 1587, 2059, 1122, 1029, 760, 2911, 1335, 4000, 1731, 904, 2448, 944]	12	Present	NA	NA	VISUAL	0.5677399635314941	354.7138659954071	356.7227849960327	357.77321910858154	358.1233170032501	360.8531370162964	4.130352020263672	[354.7468249797821, 354.86335015296936, 355.8478741645813, 356.01478719711304, 356.7655601501465, 356.8826141357422, 356.99933099746704, 357.1160190105438, 357.2329270839691, 357.34961199760437, 357.4662780761719, 357.58320116996765, 357.69986510276794, 357.8167450428009, 357.93344712257385, 358.0504331588745, 358.1669759750366, 358.2839241027832, 358.4005470275879, 358.517560005188, 358.63432216644287, 358.85313606262207]	[354.7492678587631, 354.8659345254298, 355.8489345254298, 356.0156345254298, 356.7656345254298, 356.88230119209646, 356.99896785876314, 357.1156345254298, 357.2323011920965, 357.34896785876316, 357.46563452542983, 357.5823011920965, 357.6989678587632, 357.81563452542986, 357.93230119209653, 358.0489678587632, 358.1656345254299, 358.28230119209655, 358.3989678587632, 358.5156345254299, 358.6323011920966, 358.8656345254299]	2020_Nov_25_1718	59.93626695856209	1	1
2	60	FALSE	NV	v	['G', 'P', 'A', 'W', 'K', 'S', 'B', 'X', 'M', 'E', 'C', 'T', 'Z', 'H', 'U', 'V']	[944, 1456, 697, 2448, 1122, 1731, 760, 4000, 1224, 904, 829, 1888, 2911, 986, 2059, 2245]	8	Present	NA	NA	VISUAL	0.7091350555419922	360.8371911048889	362.8390669822693	363.4229099750519	363.7728090286255	366.96950507164	4.1304380893707275	[360.8701500892639, 360.98716402053833, 361.9711480140686, 362.1380670070648, 362.88879013061523, 363.00574707984924, 363.1224501132965, 363.23933720588684, 363.3559720516205, 363.47287011146545, 363.58962297439575, 363.7064251899719, 363.8230140209198, 363.9400591850281, 364.0566601753235, 364.1736030578613, 364.2904109954834, 364.4072971343994, 364.5239751338959, 364.6406681537628, 364.74065709114075, 364.9695041179657]	[360.8656345254299, 360.9823011920966, 361.9653011920966, 362.1320011920966, 362.8820011920966, 362.99866785876327, 363.11533452542994, 363.2320011920966, 363.3486678587633, 363.46533452542997, 363.58200119209664, 363.6986678587633, 363.81533452543, 363.93200119209666, 364.04866785876334, 364.16533452543, 364.2820011920967, 364.39866785876336, 364.51533452543003, 364.6320011920967, 364.7486678587634, 364.98200119209673]	2020_Nov_25_1718	59.93626695856209	1	1
2	61	FALSE	NN	v	['J', 'Z', 'K', 'W', 'T', 'Y', 'G', 'R', 'S', 'H', 'C', 'V', 'E', 'N', 'P', 'M']	[1029, 2911, 1122, 2448, 1888, 2670, 944, 1587, 1731, 986, 829, 2245, 904, 1335, 1456, 1224]	13	Absent	NA	NA	VISUAL	0.561208963394165	366.94366812705994	368.95566606521606	370.1224920749664	370.47261595726013	373.0858700275421	4.13020396232605	[366.97662711143494, 367.0932021141052, 368.0778250694275, 368.2446331977844, 369.0120220184326, 369.11207914352417, 369.2290551662445, 369.34571409225464, 369.4626200199127, 369.5792591571808, 369.696191072464, 369.81269001960754, 369.92951917648315, 370.0465450286865, 370.1633610725403, 370.27997517585754, 370.3967092037201, 370.51369404792786, 370.63031911849976, 370.747367143631, 370.8640069961548, 371.0858700275421]	[366.98200119209673, 367.0986678587634, 368.0816678587634, 368.2483678587634, 368.9983678587634, 369.1150345254301, 369.23170119209675, 369.3483678587634, 369.4650345254301, 369.5817011920968, 369.69836785876345, 369.8150345254301, 369.9317011920968, 370.04836785876347, 370.16503452543014, 370.2817011920968, 370.3983678587635, 370.51503452543017, 370.63170119209684, 370.7483678587635, 370.8650345254302, 371.09836785876354]	2020_Nov_25_1718	59.93626695856209	1	1
2	62	FALSE	NA	v	['Y', 'M', 'T', 'N', 'H', 'S', 'Z', 'X', 'A', 'B', 'U', 'R', 'K', 'V', 'E', 'J']	[2670, 1224, 1888, 1335, 986, 1731, 2911, 4000, 697, 760, 2059, 1587, 1122, 2245, 904, 1029]	8	Present	NA	NA	VISUAL	0.5665278434753418	373.06727600097656	375.07178711891174	375.6557381153106	376.0056309700012	379.2022371292114	4.130450010299683	[373.1002461910248, 373.2164890766144, 374.2010130882263, 374.3678741455078, 375.11854815483093, 375.23550510406494, 375.3521981239319, 375.4690430164337, 375.58585715293884, 375.7026569843292, 375.819372177124, 375.93621015548706, 376.052885055542, 376.16984009742737, 376.2864902019501, 376.40346813201904, 376.5201690196991, 376.63702511787415, 376.75384306907654, 376.8705451488495, 376.98740911483765, 377.2022361755371]	[373.09836785876354, 373.2150345254302, 374.1980345254302, 374.3647345254302, 375.1147345254302, 375.2314011920969, 375.34806785876356, 375.46473452543023, 375.5814011920969, 375.6980678587636, 375.81473452543025, 375.9314011920969, 376.0480678587636, 376.1647345254303, 376.28140119209695, 376.3980678587636, 376.5147345254303, 376.631401192097, 376.74806785876365, 376.8647345254303, 376.981401192097, 377.21473452543034]	2020_Nov_25_1718	59.93626695856209	1	1
2	63	FALSE	NA	v	['H', 'K', 'M', 'U', 'A', 'W', 'E', 'T', 'C', 'X', 'Y', 'N', 'J', 'G', 'P', 'V']	[986, 1122, 1224, 2059, 697, 2448, 904, 1888, 829, 4000, 2670, 1335, 1029, 944, 1456, 2245]	10	Present	NA	NA	VISUAL	0.7556099891662598	379.19009494781494	381.1884241104126	382.0055088996887	382.35528206825256	385.31860399246216	4.1301798820495605	[379.22306299209595, 379.3399541378021, 380.307363986969, 380.4742181301117, 381.2420880794525, 381.3587770462036, 381.4753301143646, 381.5923562049866, 381.70901107788086, 381.8259630203247, 381.94259309768677, 382.05947613716125, 382.15946912765503, 382.29302501678467, 382.3929932117462, 382.5097930431366, 382.6265230178833, 382.7433400154114, 382.86017513275146, 382.9769251346588, 383.0939350128174, 383.31860399246216]	[379.21473452543034, 379.331401192097, 380.314401192097, 380.481101192097, 381.231101192097, 381.3477678587637, 381.46443452543036, 381.58110119209704, 381.6977678587637, 381.8144345254304, 381.93110119209706, 382.04776785876373, 382.1644345254304, 382.2811011920971, 382.39776785876376, 382.51443452543043, 382.6311011920971, 382.7477678587638, 382.86443452543045, 382.9811011920971, 383.0977678587638, 383.33110119209715]	2020_Nov_25_1718	59.93626695856209	1	1
2	64	FALSE	NN	v	['J', 'N', 'G', 'A', 'S', 'V', 'C', 'M', 'U', 'Y', 'R', 'P', 'E', 'K', 'Z', 'T']	[1029, 1335, 944, 697, 1731, 2245, 829, 1224, 2059, 2670, 1587, 1456, 904, 1122, 2911, 1888]	14	Absent	NA	NA	VISUAL	0.6640980243682861	385.296679019928	387.3045411109924	388.58886098861694	388.93836092948914	391.4349701404571	4.130429029464722	[385.329638004303, 385.4462671279907, 386.4308590888977, 386.5976860523224, 387.34825801849365, 387.4651679992676, 387.581915140152, 387.69866919517517, 387.8157579898834, 387.93238711357117, 388.04911398887634, 388.16605019569397, 388.2826521396637, 388.39952516555786, 388.5164110660553, 388.6331510543823, 388.7499041557312, 388.8667252063751, 388.9833722114563, 389.1003041267395, 389.2171561717987, 389.43496918678284]	[385.33110119209715, 385.4477678587638, 386.43076785876383, 386.5974678587638, 387.3474678587638, 387.4641345254305, 387.58080119209717, 387.69746785876384, 387.8141345254305, 387.9308011920972, 388.04746785876387, 388.16413452543054, 388.2808011920972, 388.3974678587639, 388.51413452543056, 388.63080119209724, 388.7474678587639, 388.8641345254306, 388.98080119209726, 389.09746785876393, 389.2141345254306, 389.44746785876396]	2020_Nov_25_1718	59.93626695856209	1	1
2	65	FALSE	NV	v	['Y', 'H', 'M', 'T', 'Z', 'J', 'N', 'S', 'G', 'X', 'K', 'A', 'R', 'P', 'V', 'U']	[2670, 986, 1224, 1888, 2911, 1029, 1335, 1731, 944, 4000, 1122, 697, 1587, 1456, 2245, 2059]	10	Present	NA	NA	VISUAL	0.7576630115509033	391.4202020168304	393.4208431243897	394.2380800247192	394.5879280567169	397.5513370037079	4.130493879318237	[391.45316100120544, 391.5698220729828, 392.5539321899414, 392.7209150791168, 393.4715881347656, 393.58846616744995, 393.7051100730896, 393.8219871520996, 393.93882608413696, 394.0555171966553, 394.1724920272827, 394.2893052101135, 394.40593099594116, 394.522824048996, 394.63955211639404, 394.75641417503357, 394.8731601238251, 394.9900360107422, 395.10671520233154, 395.22346210479736, 395.3234760761261, 395.55133605003357]	[391.44746785876396, 391.56413452543063, 392.54713452543064, 392.7138345254306, 393.4638345254306, 393.5805011920973, 393.697167858764, 393.81383452543065, 393.9305011920973, 394.047167858764, 394.1638345254307, 394.28050119209735, 394.397167858764, 394.5138345254307, 394.63050119209737, 394.74716785876404, 394.8638345254307, 394.9805011920974, 395.09716785876407, 395.21383452543074, 395.3305011920974, 395.56383452543076]	2020_Nov_25_1718	59.93626695856209	1	1
2	66	FALSE	NV	v	['N', 'B', 'J', 'G', 'W', 'R', 'A', 'V', 'U', 'X', 'K', 'T', 'Y', 'C', 'S', 'P']	[1335, 760, 1029, 944, 2448, 1587, 697, 2245, 2059, 4000, 1122, 1888, 2670, 829, 1731, 1456]	10	Present	NA	NA	VISUAL	0.865962028503418	397.5263919830322	399.5375030040741	400.354453086853	400.7044620513916	403.6677041053772	4.130201101303101	[397.5593521595001, 397.67597007751465, 398.6605200767517, 398.8273150920868, 399.57803320884705, 399.6950161457062, 399.81167006492615, 399.9285411834717, 400.045214176178, 400.1622610092163, 400.2790720462799, 400.3957200050354, 400.51255106925964, 400.6294140815735, 400.74621200561523, 400.862930059433, 400.9797360897064, 401.0968441963196, 401.21314311027527, 401.33015608787537, 401.44679713249207, 401.6677031517029]	[397.56383452543076, 397.68050119209744, 398.66350119209744, 398.83020119209743, 399.58020119209743, 399.6968678587641, 399.8135345254308, 399.93020119209746, 400.04686785876413, 400.1635345254308, 400.2802011920975, 400.39686785876415, 400.5135345254308, 400.6302011920975, 400.7468678587642, 400.86353452543085, 400.9802011920975, 401.0968678587642, 401.2135345254309, 401.33020119209755, 401.4468678587642, 401.68020119209757]	2020_Nov_25_1718	59.93626695856209	1	1
2	67	FALSE	NA	v	['G', 'A', 'P', 'R', 'J', 'K', 'M', 'W', 'U', 'X', 'N', 'E', 'T', 'H', 'S', 'Z']	[944, 697, 1456, 1587, 1029, 1122, 1224, 2448, 2059, 4000, 1335, 904, 1888, 986, 1731, 2911]	10	Present	NA	NA	VISUAL	0.6304020881652832	403.6497421264648	405.6538009643554	406.4708299636841	406.82068705558777	409.7840690612793	4.130268096923828	[403.68270206451416, 403.79937410354614, 404.7837619781494, 404.9504280090332, 405.7012701034546, 405.8183181285858, 405.9349491596222, 406.0518641471863, 406.16868901252747, 406.2855131626129, 406.40224719047546, 406.51908898353577, 406.6357481479645, 406.75250601768494, 406.8692421913147, 406.98618602752686, 407.1030020713806, 407.2197620868683, 407.33649015426636, 407.45318698883057, 407.57021617889404, 407.784068107605]	[403.68020119209757, 403.79686785876424, 404.77986785876425, 404.94656785876424, 405.69656785876424, 405.8132345254309, 405.9299011920976, 406.04656785876426, 406.16323452543094, 406.2799011920976, 406.3965678587643, 406.51323452543096, 406.62990119209763, 406.7465678587643, 406.863234525431, 406.97990119209766, 407.09656785876433, 407.213234525431, 407.3299011920977, 407.44656785876435, 407.563234525431, 407.7965678587644]	2020_Nov_25_1718	59.93626695856209	1	1
2	68	FALSE	NN	v	['S', 'K', 'T', 'P', 'Z', 'Y', 'G', 'M', 'H', 'R', 'N', 'W', 'J', 'E', 'U', 'A']	[1731, 1122, 1888, 1456, 2911, 2670, 944, 1224, 986, 1587, 1335, 2448, 1029, 904, 2059, 697]	10	Absent	NA	NA	ABSENT	1.1318471431732178	409.77297592163086	411.7702100276947	412.5871701240539	412.93751311302185	415.9004371166229	4.130227088928223	[409.80593514442444, 409.9058270454407, 410.8902521133423, 411.0575821399689, 411.8246810436249, 411.92449617385864, 412.04143810272217, 412.1582670211792, 412.27496314048767, 412.39185214042664, 412.5085690021515, 412.6253981590271, 412.74225211143494, 412.8589611053467, 412.9758150577545, 413.0925931930542, 413.20931100845337, 413.32615399360657, 413.4429039955139, 413.5598750114441, 413.67669916152954, 413.9004361629486]	[409.7965678587644, 409.91323452543105, 410.89623452543105, 411.06293452543105, 411.81293452543105, 411.9296011920977, 412.0462678587644, 412.16293452543107, 412.27960119209774, 412.3962678587644, 412.5129345254311, 412.62960119209777, 412.74626785876444, 412.8629345254311, 412.9796011920978, 413.09626785876446, 413.21293452543114, 413.3296011920978, 413.4462678587645, 413.56293452543116, 413.67960119209783, 413.9129345254312]	2020_Nov_25_1718	59.93626695856209	1	1
2	69	FALSE	AA	v	['A', 'Y', 'U', 'S', 'V', 'surprise', 'P', 'W', 'X', 'M', 'K', 'E', 'H', 'C', 'T', 'J']	[697, 2670, 2059, 1731, 2245, 'stimAuditory/all_stimAuditory/212.wav', 1456, 2448, 4000, 1224, 1122, 904, 986, 829, 1888, 1029]	9	Present	stimAuditory/all_stimAuditory/124.wav	stimVisual/all_stimVisual/119.jpg	VISUAL	0.600308895111084	415.87950706481934	417.88644194602966	418.58707094192505	418.9369959831238	422.01680397987366	4.130362033843994	[415.91246604919434, 416.02912998199463, 417.0135200023651, 417.1802771091461, 417.9311020374298, 418.04808497428894, 418.1647961139679, 418.2815670967102, 418.3982501029968, 418.5151700973511, 418.6318051815033, 418.74883818626404, 418.86544013023376, 418.9823520183563, 419.09912109375, 419.21609807014465, 419.33270716667175, 419.4495379924774, 419.5662682056427, 419.6829900741577, 419.7998640537262, 420.01680397987366]	[415.9129345254312, 416.02960119209786, 417.01260119209786, 417.17930119209785, 417.92930119209785, 418.0459678587645, 418.1626345254312, 418.2793011920979, 418.39596785876455, 418.5126345254312, 418.6293011920979, 418.7459678587646, 418.86263452543125, 418.9793011920979, 419.0959678587646, 419.21263452543127, 419.32930119209794, 419.4459678587646, 419.5626345254313, 419.67930119209797, 419.79596785876464, 420.029301192098]	2020_Nov_25_1718	59.93626695856209	1	1
2	70	FALSE	NN	v	['M', 'S', 'A', 'Y', 'C', 'H', 'N', 'K', 'P', 'R', 'J', 'B', 'V', 'E', 'T', 'G']	[1224, 1731, 697, 2670, 829, 986, 1335, 1122, 1456, 1587, 1029, 760, 2245, 904, 1888, 944]	14	Absent	NA	NA	VISUAL	0.9496779441833496	422.0029520988464	424.00269198417664	425.2867519855499	425.6365170478821	428.13317012786865	4.130478143692017	[422.03591418266296, 422.1524341106415, 423.13688707351685, 423.3038070201874, 424.05438804626465, 424.1715040206909, 424.28789806365967, 424.4048709869385, 424.52166414260864, 424.6383261680603, 424.75529408454895, 424.87213802337646, 424.9888880252838, 425.1057081222534, 425.222451210022, 425.3393051624298, 425.4560921192169, 425.57272505760193, 425.6896970272064, 425.80613899230957, 425.90649914741516, 426.13316917419434]	[422.029301192098, 422.14596785876466, 423.12896785876467, 423.29566785876466, 424.04566785876466, 424.16233452543133, 424.279001192098, 424.3956678587647, 424.51233452543136, 424.62900119209803, 424.7456678587647, 424.8623345254314, 424.97900119209805, 425.0956678587647, 425.2123345254314, 425.3290011920981, 425.44566785876475, 425.5623345254314, 425.6790011920981, 425.7956678587648, 425.91233452543145, 426.1456678587648]	2020_Nov_25_1718	59.93626695856209	1	1
2	71	FALSE	NV	v	['A', 'Y', 'M', 'S', 'V', 'E', 'H', 'W', 'R', 'X', 'U', 'T', 'N', 'P', 'G', 'C']	[697, 2670, 1224, 1731, 2245, 904, 986, 2448, 1587, 4000, 2059, 1888, 1335, 1456, 944, 829]	10	Present	NA	NA	VISUAL	0.95415496826171875	428.1092119216919	430.1191251277923	430.93620800971985	431.2862920761109	434.2495369911194	4.130411863327026	[428.1421720981598, 428.25881814956665, 429.2432641983032, 429.4102711677551, 430.16084814071655, 430.2777500152588, 430.39459013938904, 430.5113060474396, 430.62807416915894, 430.7449851036072, 430.86177706718445, 430.9785780906677, 431.0951521396637, 431.2122139930725, 431.32882499694824, 431.4458701610565, 431.56247115135193, 431.6794111728668, 431.7959620952606, 431.9128141403198, 432.02988600730896, 432.2495369911194]	[428.1456678587648, 428.26233452543147, 429.2453345254315, 429.41203452543147, 430.16203452543147, 430.27870119209814, 430.3953678587648, 430.5120345254315, 430.62870119209816, 430.74536785876484, 430.8620345254315, 430.9787011920982, 431.09536785876486, 431.21203452543153, 431.3287011920982, 431.4453678587649, 431.56203452543156, 431.67870119209823, 431.7953678587649, 431.9120345254316, 432.02870119209825, 432.2620345254316]	2020_Nov_25_1718	59.93626695856209	1	1
2	72	FALSE	AA	v	['G', 'R', 'J', 'Y', 'Z', 'N', 'E', 'surprise', 'T', 'M', 'X', 'A', 'P', 'C', 'H', 'W']	[944, 1587, 1029, 2670, 2911, 1335, 904, 'stimAuditory/all_stimAuditory/104.wav', 1888, 1224, 4000, 697, 1456, 829, 986, 2448]	11	Present	stimAuditory/all_stimAuditory/204.wav	stimVisual/all_stimVisual/209.jpg	VISUAL	0.6546881198883057	434.23257398605347	436.2353761196137	437.169340133667	437.5196421146393	440.3659040927887	4.130527973175049	[434.26553320884705, 434.38210916519165, 435.3666820526123, 435.53328013420105, 436.28417706489563, 436.40104699134827, 436.5177321434021, 436.63441610336304, 436.75131607055664, 436.8683650493622, 436.98486709594727, 437.1017231941223, 437.21857213974, 437.3354151248932, 437.4522590637207, 437.56904911994934, 437.68577909469604, 437.80254220962524, 437.91937804222107, 438.0361511707306, 438.1529290676117, 438.3659040927887]	[434.2620345254316, 434.3787011920983, 435.3617011920983, 435.5284011920983, 436.2784011920983, 436.39506785876495, 436.5117345254316, 436.6284011920983, 436.74506785876497, 436.86173452543164, 436.9784011920983, 437.095067858765, 437.21173452543167, 437.32840119209834, 437.445067858765, 437.5617345254317, 437.67840119209836, 437.79506785876504, 437.9117345254317, 438.0284011920984, 438.14506785876506, 438.3784011920984]	2020_Nov_25_1718	59.93626695856209	1	1
2	73	FALSE	NV	v	['R', 'A', 'G', 'B', 'C', 'P', 'H', 'K', 'V', 'Y', 'X', 'E', 'T', 'M', 'N', 'J']	[1587, 697, 944, 760, 829, 1456, 986, 1122, 2245, 2670, 4000, 904, 1888, 1224, 1335, 1029]	11	Present	NA	NA	VISUAL	0.7080349922180176	440.3387770652771	442.35204005241394	443.2856419086456	443.635684967041	446.4822700023651	4.130229949951172	[440.3717360496521, 440.48859310150146, 441.47306418418884, 441.63999605178833, 442.40766310691833, 442.5074610710144, 442.6242470741272, 442.74103808403015, 442.8578541278839, 442.97474098205566, 443.09138202667236, 443.2083361148834, 443.3250780105591, 443.4419300556183, 443.558580160141, 443.6755790710449, 443.79213309288025, 443.909126996994, 444.0257132053375, 444.1427011489868, 444.2593741416931, 444.4822690486908]	[440.3784011920984, 440.4950678587651, 441.4780678587651, 441.6447678587651, 442.3947678587651, 442.51143452543175, 442.6281011920984, 442.7447678587651, 442.8614345254318, 442.97810119209845, 443.0947678587651, 443.2114345254318, 443.3281011920985, 443.44476785876515, 443.5614345254318, 443.6781011920985, 443.79476785876517, 443.91143452543184, 444.0281011920985, 444.1447678587652, 444.26143452543187, 444.4947678587652]	2020_Nov_25_1718	59.93626695856209	1	1
2	74	FALSE	NV	v	['P', 'C', 'E', 'N', 'S', 'W', 'M', 'V', 'Z', 'B', 'R', 'X', 'K', 'A', 'Y', 'U']	[1456, 829, 904, 1335, 1731, 2448, 1224, 2245, 2911, 760, 1587, 4000, 1122, 697, 2670, 2059]	12	Present	NA	NA	VISUAL	0.8325281143188477	446.4622809886933	448.4682650566101	449.5187120437622	449.8686800003052	452.5986371040344	4.130372047424316	[446.49524116516113, 446.611958026886, 447.59630608558655, 447.7632431983948, 448.5139172077179, 448.63082814216614, 448.7474431991577, 448.86437797546387, 448.9810981750488, 449.09798216819763, 449.2146511077881, 449.3316512107849, 449.4482481479645, 449.5651891231537, 449.6818890571594, 449.7988200187683, 449.91548800468445, 450.03245997428894, 450.14913415908813, 450.26572608947754, 450.38283610343933, 450.5986361503601]	[446.4947678587652, 446.6114345254319, 447.5944345254319, 447.7611345254319, 448.5111345254319, 448.62780119209856, 448.74446785876523, 448.8611345254319, 448.9778011920986, 449.09446785876526, 449.21113452543193, 449.3278011920986, 449.4444678587653, 449.56113452543195, 449.6778011920986, 449.7944678587653, 449.911134525432, 450.02780119209865, 450.1444678587653, 450.261134525432, 450.3778011920987, 450.611134525432]	2020_Nov_25_1718	59.93626695856209	1	1
2	75	FALSE	NA	v	['M', 'T', 'B', 'R', 'P', 'W', 'J', 'G', 'H', 'Z', 'K', 'A', 'Y', 'X', 'V', 'C']	[1224, 1888, 760, 1587, 1456, 2448, 1029, 944, 986, 2911, 1122, 697, 2670, 4000, 2245, 829]	14	Present	NA	NA	VISUAL	0.7900650501251221	452.5857849121094	454.58483600616455	455.86841893196106	456.2183921337128	458.71500420570374	4.130168199539185	[452.61874413490295, 452.73525309562683, 453.7197051048279, 453.86954498291016, 454.6371421813965, 454.75408601760864, 454.87074398994446, 454.98759603500366, 455.1044909954071, 455.22111201286316, 455.33792901039124, 455.45489501953125, 455.5716371536255, 455.6883211135864, 455.80528807640076, 455.9220550060272, 456.03860902786255, 456.1553690433502, 456.272488117218, 456.3722631931305, 456.4891359806061, 456.71500301361084]	[452.611134525432, 452.7278011920987, 453.7108011920987, 453.8775011920987, 454.6275011920987, 454.74416785876537, 454.86083452543204, 454.9775011920987, 455.0941678587654, 455.21083452543206, 455.32750119209874, 455.4441678587654, 455.5608345254321, 455.67750119209876, 455.79416785876543, 455.9108345254321, 456.0275011920988, 456.14416785876546, 456.26083452543213, 456.3775011920988, 456.4941678587655, 456.7275011920988]	2020_Nov_25_1718	59.93626695856209	1	1
2	76	FALSE	NN	v	['R', 'S', 'W', 'P', 'H', 'Y', 'J', 'U', 'C', 'E', 'B', 'M', 'Z', 'K', 'N', 'G']	[1587, 1731, 2448, 1456, 986, 2670, 1029, 2059, 829, 904, 760, 1224, 2911, 1122, 1335, 944]	8	Absent	NA	NA	ABSENT	1.1223318576812744	458.6920690536499	460.70095705986023	461.2848129272461	461.63499999046326	464.83137011528015	4.130413055419922	[458.7250280380249, 458.84164118766785, 459.8260769844055, 459.99290704727173, 460.74360704421997, 460.86060404777527, 460.9772729873657, 461.0942680835724, 461.2110290527344, 461.327849149704, 461.4444591999054, 461.56142807006836, 461.67810702323914, 461.79493498802185, 461.91171002388, 462.02881717681885, 462.14521408081055, 462.2621359825134, 462.3789529800415, 462.495726108551, 462.61251521110535, 462.8313729763031]	[458.7275011920988, 458.8441678587655, 459.8271678587655, 459.9938678587655, 460.7438678587655, 460.8605345254322, 460.97720119209885, 461.0938678587655, 461.2105345254322, 461.32720119209887, 461.44386785876554, 461.5605345254322, 461.6772011920989, 461.79386785876557, 461.91053452543224, 462.0272011920989, 462.1438678587656, 462.26053452543226, 462.37720119209894, 462.4938678587656, 462.6105345254323, 462.84386785876563]	2020_Nov_25_1718	59.93626695856209	1	1
2	77	FALSE	NV	v	['W', 'M', 'Z', 'C', 'N', 'J', 'S', 'X', 'K', 'R', 'A', 'E', 'G', 'Y', 'P', 'H']	[2448, 1224, 2911, 829, 1335, 1029, 1731, 4000, 1122, 1587, 697, 904, 944, 2670, 1456, 986]	8	Present	NA	NA	VISUAL	0.6318690776824951	464.8150579929352	466.81738591194153	467.4011900424957	467.7511501312256	470.9477369785309	4.1303510665893555	[464.8480181694031, 464.96494698524475, 465.9494559764862, 466.11608505249023, 466.8670630455017, 466.9838230609894, 467.10068702697754, 467.21726298332214, 467.3343071937561, 467.45104217529297, 467.5677001476288, 467.6846001148224, 467.8012320995331, 467.9181020259857, 468.03490114212036, 468.15184116363525, 468.268501996994, 468.3852460384369, 468.5022521018982, 468.61878299713135, 468.73578000068665, 468.9477369785309]	[464.84386785876563, 464.9605345254323, 465.9435345254323, 466.1102345254323, 466.8602345254323, 466.976901192099, 467.09356785876565, 467.2102345254323, 467.326901192099, 467.4435678587657, 467.56023452543235, 467.676901192099, 467.7935678587657, 467.9102345254324, 468.02690119209905, 468.1435678587657, 468.2602345254324, 468.37690119209907, 468.49356785876574, 468.6102345254324, 468.7269011920991, 468.96023452543244]	2020_Nov_25_1718	59.93626695856209	1	1
2	78	FALSE	NV	v	['R', 'T', 'N', 'Y', 'G', 'J', 'B', 'Z', 'S', 'M', 'X', 'V', 'C', 'K', 'E', 'H']	[1587, 1888, 1335, 2670, 944, 1029, 760, 2911, 1731, 1224, 4000, 2245, 829, 1122, 904, 986]	11	Present	NA	NA	VISUAL	0.5961980819702148	470.9218940734863	472.9338800907135	473.86745595932007	474.217668056488	477.0641040802002	4.130223989486694	[470.95485401153564, 471.0713720321655, 472.05626916885376, 472.222825050354, 472.9902801513672, 473.0903310775757, 473.20705103874207, 473.3238830566406, 473.44052720069885, 473.5573329925537, 473.67415714263916, 473.7910740375519, 473.9077351093292, 474.0246651172638, 474.1415162086487, 474.2583601474762, 474.3749940395355, 474.49201011657715, 474.6085431575775, 474.7255141735077, 474.84220004081726, 475.0641040802002]	[470.96023452543244, 471.0769011920991, 472.0599011920991, 472.2266011920991, 472.9766011920991, 473.0932678587658, 473.20993452543246, 473.32660119209913, 473.4432678587658, 473.5599345254325, 473.67660119209916, 473.79326785876583, 473.9099345254325, 474.0266011920992, 474.14326785876585, 474.2599345254325, 474.3766011920992, 474.4932678587659, 474.60993452543255, 474.7266011920992, 474.8432678587659, 475.07660119209925]	2020_Nov_25_1718	59.93626695856209	1	1
2	79	FALSE	NV	v	['Z', 'K', 'A', 'H', 'J', 'Y', 'W', 'U', 'V', 'C', 'X', 'R', 'B', 'T', 'S', 'N']	[2911, 1122, 697, 986, 1029, 2670, 2448, 2059, 2245, 829, 4000, 1587, 760, 1888, 1731, 1335]	11	Present	NA	NA	VISUAL	0.6328349113464355	477.0450339317322	479.05021691322327	479.9838941097259	480.3339710235596	483.1804711818695	4.13025426864624	[477.07799315452576, 477.19474720954895, 478.17926716804504, 478.345911026001, 479.09669303894043, 479.2137451171875, 479.3302090167999, 479.4472692012787, 479.5639011859894, 479.68079018592834, 479.7975070476532, 479.91445112228394, 480.0310070514679, 480.14805698394775, 480.2647399902344, 480.38159108161926, 480.4982490539551, 480.6148931980133, 480.73191499710083, 480.8488121032715, 480.9655570983887, 481.1804690361023]	[477.07660119209925, 477.1932678587659, 478.1762678587659, 478.3429678587659, 479.0929678587659, 479.2096345254326, 479.32630119209927, 479.44296785876594, 479.5596345254326, 479.6763011920993, 479.79296785876596, 479.90963452543264, 480.0263011920993, 480.142967858766, 480.25963452543266, 480.37630119209933, 480.492967858766, 480.6096345254327, 480.72630119209936, 480.84296785876603, 480.9596345254327, 481.19296785876605]	2020_Nov_25_1718	59.93626695856209	1	1
