participant	trial_num	practice	task	condition	RSVP	RAP	probePos	probe_presence	surprise_sound	surprise_img	probe_response	probe_resp_time	first_fixation_time	trial_start_time	surprise_start_time	probe_start_time	trial_end_time	trial_duration	actualEventTimes	plannedEventTimes	date	framerate	marker_vol	RAP_vol
2	1	FALSE	NV	a	['H', 'A', 'S', 'N', 'K', 'Y', 'T', 'E', 'R', 'P', 'B', 'V', 'X', 'U', 'Z', 'M']	[986, 697, 1731, 1335, 1122, 2670, 1888, 904, 1587, 1456, 760, 2245, 4000, 2059, 2911, 1224]	13	Present	NA	NA	AUDITORY	0.21771788597106936	2.1457672119140625e-6	1.981100082397461	3.1477767625777835	3.497778669906416	6.1038689613342285	4.122768878936768	[0.02885890007019043, 0.11257600784301758, 1.0871880054473877, 1.2638249397277832, 2.031298875808716, 2.1313698291778564, 2.2479519844055176, 2.3648898601531982, 2.4815127849578857, 2.5984249114990234, 2.715101957321167, 2.832019805908203, 2.9488818645477295, 3.065565824508667, 3.1822848320007324, 3.2991979122161865, 3.415884017944336, 3.53263783454895, 3.6495068073272705, 3.766394853591919, 3.883178949356079, 4.1038689613342285]	[9.5367431640625e-07, 0.11666762033431641, 1.0996676203343163, 1.2663676203343164, 2.016367620334316, 2.133034286994316, 2.249700953654316, 2.3663676203143162, 2.4830342869743163, 2.5997009536343163, 2.7163676202943163, 2.8330342869543164, 2.9497009536143164, 3.0663676202743164, 3.1830342869343164, 3.2997009535943165, 3.4163676202543165, 3.5330342869143165, 3.6497009535743166, 3.7663676202343166, 3.8830342868943166, 4.11636762022765]	2020_Nov_25_1657	59.93258430177313	1	0.375
2	2	FALSE	NA	a	['H', 'Y', 'W', 'Z', 'G', 'R', 'A', 'J', 'X', 'N', 'K', 'V', 'P', 'C', 'E', 'B']	[986, 2670, 2448, 2911, 944, 1587, 697, 1029, 4000, 1335, 1122, 2245, 1456, 829, 904, 760]	9	Present	NA	NA	AUDITORY	0.1902639865875244	6.089799165725708	8.094120025634766	8.794130039175087	9.14413194650372	12.22023582458496	4.126115798950195	[6.118656873703003, 6.235697984695435, 7.203553915023804, 7.386667966842651, 8.137537002563477, 8.254433870315552, 8.371120929718018, 8.488039016723633, 8.604788780212402, 8.721391916275024, 8.838353872299194, 8.955187797546387, 9.071951866149902, 9.188592910766602, 9.305510997772217, 9.42234492301941, 9.539047002792358, 9.65569281578064, 9.772831916809082, 9.889248847961426, 10.006183862686157, 10.220235824584961]	[6.11636762022765, 6.23303428688765, 7.216034286887649, 7.382734286887649, 8.132734286887649, 8.24940095354765, 8.36606762020765, 8.48273428686765, 8.59940095352765, 8.716067620187651, 8.832734286847652, 8.949400953507652, 9.066067620167653, 9.182734286827653, 9.299400953487654, 9.416067620147654, 9.532734286807655, 9.649400953467655, 9.766067620127656, 9.882734286787656, 9.999400953447656, 10.232734286780989]	2020_Nov_25_1657	59.93258430177313	1	0.375
2	3	FALSE	NA	a	['B', 'U', 'P', 'C', 'V', 'G', 'S', 'Y', 'R', 'A', 'J', 'T', 'X', 'Z', 'K', 'M']	[760, 2059, 1456, 829, 2245, 944, 1731, 2670, 1587, 697, 1029, 1888, 4000, 2911, 1122, 1224]	13	Present	NA	NA	AUDITORY	0.2757868766784668	12.213143110275269	14.210442066192629	15.377116600605737	15.727117792678634	18.336602926254272	4.1261608600616455	[12.242000818252563, 12.341852903366089, 13.319923877716064, 13.493109941482544, 14.243745803833008, 14.360718011856079, 14.47762393951416, 14.594368934631348, 14.710997819900513, 14.827968835830688, 14.94472599029541, 15.061546802520752, 15.178390979766846, 15.295054912567139, 15.411824941635132, 15.528725862503052, 15.645411968231201, 15.762280941009521, 15.87893795967102, 15.995912790298462, 16.11249589920044, 16.336602926254272]	[12.232734286780989, 12.34940095344099, 13.33240095344099, 13.49910095344099, 14.24910095344099, 14.365767620100991, 14.482434286760991, 14.599100953420992, 14.715767620080992, 14.832434286740993, 14.949100953400993, 15.065767620060994, 15.182434286720994, 15.299100953380995, 15.415767620040995, 15.532434286700996, 15.649100953360996, 15.765767620020997, 15.882434286680997, 15.999100953340998, 16.115767620000998, 16.349100953334332]	2020_Nov_25_1657	59.93258430177313	1	0.375
2	4	FALSE	NA	a	['K', 'W', 'G', 'T', 'U', 'Z', 'C', 'P', 'J', 'B', 'Y', 'E', 'N', 'X', 'S', 'R']	[1122, 2448, 944, 1888, 2059, 2911, 829, 1456, 1029, 760, 2670, 904, 1335, 4000, 1731, 1587]	14	Present	NA	NA	AUDITORY	0.4480998516082764	18.319337129592896	20.32665705680847	21.60999849630016	21.960000403628793	24.45296883583069	4.126311779022217	[18.34819483757019, 18.465155839920044, 19.43628978729248, 19.61627697944641, 20.367003917694092, 20.483941793441772, 20.600762844085693, 20.717512845993042, 20.834154844284058, 20.95108199119568, 21.067789793014526, 21.18441891670227, 21.301355838775635, 21.418011903762817, 21.534979820251465, 21.651603937149048, 21.768543004989624, 21.88518190383911, 22.002511978149414, 22.118806838989258, 22.235811948776245, 22.45296883583069]	[18.349100953334332, 18.46576761999433, 19.44876761999433, 19.61546761999433, 20.36546761999433, 20.48213428665433, 20.598800953314328, 20.715467619974326, 20.832134286634325, 20.948800953294324, 21.065467619954322, 21.18213428661432, 21.29880095327432, 21.41546761993432, 21.532134286594317, 21.648800953254316, 21.765467619914315, 21.882134286574313, 21.998800953234312, 22.11546761989431, 22.23213428655431, 22.465467619887644]	2020_Nov_25_1657	59.93258430177313	1	0.375
2	5	FALSE	NA	a	['P', 'M', 'Y', 'B', 'V', 'N', 'E', 'Z', 'T', 'A', 'J', 'G', 'X', 'C', 'S', 'R']	[1456, 1224, 2670, 760, 2245, 1335, 904, 2911, 1888, 697, 1029, 944, 4000, 829, 1731, 1587]	13	Present	NA	NA	AUDITORY	0.4295198917388916	24.442471027374268	26.442975997924805	27.60964981708218	27.95965172441081	30.5693359375	4.126359939575195	[24.47132897377014, 24.588226795196533, 25.55265784263611, 25.73951292037964, 26.49015188217163, 26.606920957565308, 26.723761796951294, 26.84039282798767, 26.95737886428833, 27.05731201171875, 27.174073934555054, 27.29089379310608, 27.407599925994873, 27.524532794952393, 27.641255855560303, 27.758018970489502, 27.874791860580444, 27.99156880378723, 28.10844588279724, 28.225220918655396, 28.342010974884033, 28.5693359375]	[24.465467619887644, 24.582134286547642, 25.565134286547643, 25.73183428654764, 26.48183428654764, 26.59850095320764, 26.71516761986764, 26.831834286527638, 26.948500953187636, 27.065167619847635, 27.181834286507634, 27.298500953167633, 27.41516761982763, 27.53183428648763, 27.64850095314763, 27.765167619807627, 27.881834286467626, 27.998500953127625, 28.115167619787623, 28.231834286447622, 28.34850095310762, 28.581834286440955]	2020_Nov_25_1657	59.93258430177313	1	0.375
2	6	FALSE	AV	a	['K', 'C', 'A', 'H', 'S', 'Z', 'M', 'B', 'Y', 'V', 'surprise', 'U', 'E', 'X', 'G', 'P']	[1122, 829, 697, 986, 1731, 2911, 1224, 760, 2670, 2245, 'stimAuditory/all_stimAuditory/201.wav', 2059, 904, 4000, 944, 1456]	14	Present	stimAuditory/all_stimAuditory/201.wav	NA	ABSENT	1.0338430404663086	30.548964023590088	32.55953097343445	33.842871459251825	34.19287336658046	36.68570280075073	4.126171827316284	[30.57782292366028, 30.694641828536987, 31.669023990631104, 31.84568190574646, 32.59680986404419, 32.713406801223755, 32.83019185066223, 32.94710683822632, 33.06372094154358, 33.18052101135254, 33.297276973724365, 33.414153814315796, 33.530860900878906, 33.64777588844299, 33.76446199417114, 33.881340980529785, 33.99800896644592, 34.114975929260254, 34.231661796569824, 34.34833598136902, 34.46526598930359, 34.68570280075073]	[30.581834286440955, 30.698500953100954, 31.681500953100954, 31.848200953100953, 32.59820095310096, 32.71486761976096, 32.83153428642096, 32.94820095308096, 33.064867619740966, 33.18153428640097, 33.29820095306097, 33.41486761972097, 33.531534286380975, 33.64820095304098, 33.76486761970098, 33.88153428636098, 33.998200953020984, 34.114867619680986, 34.23153428634099, 34.34820095300099, 34.46486761966099, 34.69820095299433]	2020_Nov_25_1657	59.93258430177313	1	0.375
2	7	FALSE	NV	a	['T', 'B', 'G', 'Y', 'M', 'U', 'E', 'X', 'K', 'V', 'N', 'Z', 'S', 'R', 'W', 'A']	[1888, 760, 944, 2670, 1224, 2059, 904, 4000, 1122, 2245, 1335, 2911, 1731, 1587, 2448, 697]	8	Present	NA	NA	AUDITORY	0.5188539028167725	36.67198300361633	38.676066160202026	39.259407361315134	39.609409268643766	42.80206894874573	4.126002788543701	[36.70084190368652, 36.81779885292053, 37.78538990020752, 37.96890091896057, 38.71959185600281, 38.83652997016907, 38.95350790023804, 39.070048809051514, 39.18691682815552, 39.30368995666504, 39.42046284675598, 39.53732681274414, 39.65404987335205, 39.770901918411255, 39.88778281211853, 40.00439381599426, 40.12124586105347, 40.23780179023743, 40.35486888885498, 40.47142291069031, 40.58846879005432, 40.80206894874573]	[36.69820095299433, 36.81486761965433, 37.797867619654326, 37.964567619654325, 38.714567619654325, 38.83123428631433, 38.94790095297433, 39.06456761963433, 39.181234286294334, 39.297900952954336, 39.41456761961434, 39.53123428627434, 39.64790095293434, 39.764567619594345, 39.88123428625435, 39.99790095291435, 40.11456761957435, 40.231234286234354, 40.347900952894356, 40.46456761955436, 40.58123428621436, 40.814567619547695]	2020_Nov_25_1657	59.93258430177313	1	0.375
2	8	FALSE	NV	a	['G', 'C', 'R', 'E', 'J', 'W', 'M', 'P', 'Z', 'S', 'K', 'V', 'B', 'X', 'U', 'H']	[944, 829, 1587, 904, 1029, 2448, 1224, 1456, 2911, 1731, 1122, 2245, 760, 4000, 2059, 986]	14	Present	NA	NA	AUDITORY	0.30779600143432617	42.79548501968384	44.79228401184082	46.07562545133251	46.425627358661146	48.918437004089355	4.126152992248535	[42.82434296607971, 42.92391300201416, 43.90175700187683, 44.07543897628784, 44.82598400115967, 44.942927837371826, 45.05960297584534, 45.17652201652527, 45.293200969696045, 45.4101288318634, 45.52677083015442, 45.643714904785156, 45.7604238986969, 45.877216815948486, 45.994077920913696, 46.11075282096863, 46.227433919906616, 46.34438991546631, 46.461036920547485, 46.57799696922302, 46.69478178024292, 46.91843581199646]	[42.814567619547695, 42.9312342862077, 43.914234286207694, 44.08093428620769, 44.83093428620769, 44.947600952867695, 45.0642676195277, 45.1809342861877, 45.2976009528477, 45.414267619507704, 45.53093428616771, 45.64760095282771, 45.76426761948771, 45.88093428614771, 45.997600952807716, 46.11426761946772, 46.23093428612772, 46.34760095278772, 46.464267619447725, 46.58093428610773, 46.69760095276773, 46.93093428610106]	2020_Nov_25_1657	59.93258430177313	1	0.375
2	9	FALSE	NA	a	['W', 'G', 'R', 'Z', 'B', 'H', 'N', 'U', 'C', 'K', 'X', 'P', 'E', 'S', 'M', 'A']	[2448, 944, 1587, 2911, 760, 986, 1335, 2059, 829, 1122, 4000, 1456, 904, 1731, 1224, 697]	11	Present	NA	NA	AUDITORY	0.17623186111450195	48.901472091674805	50.90861797332764	51.84195941283932	52.19196132016796	55.034801959991455	4.126183986663818	[48.93032884597778, 49.04728889465332, 50.018126010894775, 50.198513984680176, 50.94918489456177, 51.06600999832153, 51.18279480934143, 51.299577951431274, 51.41635179519653, 51.53309988975525, 51.64995980262756, 51.76658582687378, 51.88358283042908, 52.00057792663574, 52.11717700958252, 52.233964920043945, 52.35083198547363, 52.467365980148315, 52.584348917007446, 52.70089888572693, 52.817901849746704, 53.034801959991455]	[48.93093428610106, 49.047600952761066, 50.03060095276106, 50.19730095276106, 50.94730095276106, 51.063967619421064, 51.180634286081066, 51.29730095274107, 51.41396761940107, 51.53063428606107, 51.647300952721075, 51.76396761938108, 51.88063428604108, 51.99730095270108, 52.113967619361084, 52.230634286021086, 52.34730095268109, 52.46396761934109, 52.58063428600109, 52.697300952661095, 52.8139676193211, 53.04730095265443]	2020_Nov_25_1657	59.93258430177313	1	0.375
2	10	FALSE	NN	a	['E', 'Y', 'J', 'M', 'G', 'S', 'T', 'B', 'Z', 'C', 'K', 'H', 'A', 'N', 'U', 'R']	[904, 2670, 1029, 1224, 944, 1731, 1888, 760, 2911, 829, 1122, 986, 697, 1335, 2059, 1587]	9	Absent	NA	NA	ABSENT	0.3738141059875488	55.024600982666016	57.02502799034119	57.72503514285856	58.07503705018719	61.15116882324219	4.126140832901001	[55.05345892906189, 55.170204877853394, 56.13449001312256, 56.32159686088562, 57.07223296165466, 57.17235493659973, 57.289060831069946, 57.405884981155396, 57.522674798965454, 57.639402866363525, 57.75612187385559, 57.872973918914795, 57.98982787132263, 58.10665798187256, 58.22343397140503, 58.3401517868042, 58.45695495605469, 58.57373094558716, 58.69054079055786, 58.80752682685852, 58.924147844314575, 59.15116882324219]	[55.04730095265443, 55.163967619314434, 56.14696761931443, 56.31366761931443, 57.06366761931443, 57.18033428597443, 57.297000952634434, 57.413667619294436, 57.53033428595444, 57.64700095261444, 57.76366761927444, 57.880334285934445, 57.99700095259445, 58.11366761925445, 58.23033428591445, 58.347000952574454, 58.46366761923446, 58.58033428589446, 58.69700095255446, 58.81366761921446, 58.930334285874466, 59.1636676192078]	2020_Nov_25_1657	59.93258430177313	1	0.375
2	11	FALSE	NV	a	['J', 'T', 'A', 'C', 'Z', 'G', 'Y', 'R', 'X', 'K', 'E', 'H', 'U', 'W', 'M', 'B']	[1029, 1888, 697, 829, 2911, 944, 2670, 1587, 4000, 1122, 904, 986, 2059, 2448, 1224, 760]	9	Present	NA	NA	AUDITORY	0.9783899784088136	61.130911111831665	63.14123296737671	63.8412410735684	64.19124298089703	67.2675359249115	4.12630295753479	[61.159767866134644, 61.276816844940186, 62.250858783721924, 62.42796778678894, 63.178592920303345, 63.29557681083679, 63.412282943725586, 63.52912878990173, 63.64587879180908, 63.762629985809326, 63.87958884239197, 63.996227979660034, 64.1130428314209, 64.22973084449768, 64.34662294387817, 64.46346092224121, 64.58019685745239, 64.69684195518494, 64.81384301185608, 64.93053984642029, 65.04743194580078, 65.2675359249115]	[61.1636676192078, 61.2803342858678, 62.2633342858678, 62.4300342858678, 63.1800342858678, 63.2967009525278, 63.4133676191878, 63.530034285847805, 63.64670095250781, 63.76336761916781, 63.88003428582781, 63.996700952487814, 64.11336761914781, 64.2300342858078, 64.3467009524678, 64.4633676191278, 64.58003428578779, 64.69670095244778, 64.81336761910778, 64.93003428576777, 65.04670095242777, 65.2800342857611]	2020_Nov_25_1657	59.93258430177313	1	0.375
2	12	FALSE	AA	a	['Y', 'C', 'B', 'R', 'K', 'T', 'U', 'A', 'N', 'H', 'surprise', 'E', 'J', 'X', 'M', 'Z']	[2670, 829, 760, 1587, 1122, 1888, 2059, 697, 1335, 986, 'stimAuditory/all_stimAuditory/203.wav', 904, 1029, 4000, 1224, 2911]	14	Present	stimAuditory/all_stimAuditory/203.wav	NA	ABSENT	0.9191060066223145	67.2540979385376	69.25767707824707	70.54101827932018	70.8910204250674	73.38390278816223	4.126225709915161	[67.28295493125916, 67.39984083175659, 68.36722683906555, 68.55114579200745, 69.3018729686737, 69.41870498657227, 69.53544187545776, 69.6521008014679, 69.76900100708008, 69.88562679290771, 70.00238180160522, 70.11918592453003, 70.23622798919678, 70.35289692878723, 70.46969890594482, 70.58655500411987, 70.70337581634521, 70.82006001472473, 70.93694281578064, 71.05357098579407, 71.1705207824707, 71.38390278816223]	[67.2800342857611, 67.3967009524211, 68.3797009524211, 68.54640095242111, 69.29640095242111, 69.4130676190811, 69.5297342857411, 69.6464009524011, 69.76306761906109, 69.87973428572109, 69.99640095238108, 70.11306761904108, 70.22973428570107, 70.34640095236107, 70.46306761902106, 70.57973428568106, 70.69640095234105, 70.81306761900105, 70.92973428566104, 71.04640095232104, 71.16306761898103, 71.39640095231437]	2020_Nov_25_1657	59.93258430177313	1	0.375
2	13	FALSE	NA	a	['J', 'S', 'H', 'W', 'E', 'Y', 'T', 'P', 'B', 'U', 'V', 'K', 'C', 'X', 'Z', 'G']	[1029, 1731, 986, 2448, 904, 2670, 1888, 1456, 760, 2059, 2245, 1122, 829, 4000, 2911, 944]	14	Present	NA	NA	AUDITORY	0.5641679763793945	73.36040115356445	75.37394499778748	76.65728643727917	77.0072883446078	79.50026893615723	4.126323938369751	[73.38925790786743, 73.50615286827087, 74.48358988761902, 74.65734195709229, 75.40807294845581, 75.52515387535095, 75.6418228149414, 75.75868487358093, 75.87524700164795, 75.99219799041748, 76.1089859008789, 76.22571182250977, 76.34245991706848, 76.45913887023926, 76.57603979110718, 76.69299483299255, 76.80974888801575, 76.92642378807068, 77.04333281517029, 77.16012692451477, 77.2769730091095, 77.50026893615723]	[73.39640095231437, 73.51306761897436, 74.49606761897437, 74.66276761897437, 75.41276761897437, 75.52943428563437, 75.64610095229436, 75.76276761895436, 75.87943428561435, 75.99610095227435, 76.11276761893434, 76.22943428559434, 76.34610095225433, 76.46276761891433, 76.57943428557432, 76.69610095223432, 76.81276761889431, 76.92943428555431, 77.0461009522143, 77.1627676188743, 77.2794342855343, 77.51276761886763]	2020_Nov_25_1657	59.93258430177313	1	0.375
2	14	FALSE	NA	a	['Z', 'P', 'K', 'U', 'T', 'C', 'Y', 'X', 'A', 'B', 'S', 'W', 'M', 'V', 'G', 'N']	[2911, 1456, 1122, 2059, 1888, 829, 2670, 4000, 697, 760, 1731, 2448, 1224, 2245, 944, 1335]	8	Present	NA	NA	AUDITORY	0.7127430438995361	79.48361110687256	81.4903609752655	82.0737024147972	82.42370432212583	85.61663579940796	4.126274824142456	[79.51246881484985, 79.62941884994507, 80.59995985031128, 80.78051996231079, 81.53135299682617, 81.64807796478271, 81.7648229598999, 81.8816339969635, 81.99882292747498, 82.11523294448853, 82.23212385177612, 82.34875798225403, 82.46568393707275, 82.58243083953857, 82.6993157863617, 82.81598901748657, 82.93294382095337, 83.04952788352966, 83.1662859916687, 83.28313183784485, 83.39983797073364, 83.61663579940796]	[79.51276761886763, 79.62943428552762, 80.61243428552763, 80.77913428552763, 81.52913428552763, 81.64580095218763, 81.76246761884762, 81.87913428550762, 81.99580095216761, 82.11246761882761, 82.2291342854876, 82.3458009521476, 82.4624676188076, 82.57913428546759, 82.69580095212758, 82.81246761878758, 82.92913428544757, 83.04580095210757, 83.16246761876756, 83.27913428542756, 83.39580095208755, 83.62913428542089]	2020_Nov_25_1657	59.93258430177313	1	0.375
2	15	FALSE	NV	a	['Z', 'J', 'V', 'C', 'G', 'P', 'A', 'K', 'U', 'B', 'T', 'X', 'R', 'M', 'W', 'Y']	[2911, 1029, 2245, 829, 944, 1456, 697, 1122, 2059, 760, 1888, 4000, 1587, 1224, 2448, 2670]	12	Present	NA	NA	AUDITORY	0.7819409370422363	85.60679197311401	87.60677313804626	88.65678195947369	89.0067841052209	91.73300290107728	4.126229763031006	[85.63564896583557, 85.75251579284668, 86.71632385253906, 86.90367889404297, 87.65437984466553, 87.75437879562378, 87.8711268901825, 87.98801398277283, 88.10475587844849, 88.22154498100281, 88.33833384513855, 88.45513796806335, 88.5719997882843, 88.68868684768677, 88.80546498298645, 88.9222559928894, 89.03908681869507, 89.15588188171387, 89.27281594276428, 89.38967895507812, 89.50634479522705, 89.73300194740295]	[85.62913428542089, 85.74580095208088, 86.72880095208089, 86.8955009520809, 87.6455009520809, 87.76216761874089, 87.87883428540088, 87.99550095206088, 88.11216761872087, 88.22883428538087, 88.34550095204087, 88.46216761870086, 88.57883428536086, 88.69550095202085, 88.81216761868085, 88.92883428534084, 89.04550095200084, 89.16216761866083, 89.27883428532083, 89.39550095198082, 89.51216761864082, 89.74550095197415]	2020_Nov_25_1657	59.93258430177313	1	0.375
2	16	FALSE	NA	a	['H', 'P', 'W', 'G', 'K', 'M', 'R', 'U', 'B', 'T', 'Z', 'J', 'X', 'N', 'S', 'Y']	[986, 1456, 2448, 944, 1122, 1224, 1587, 2059, 760, 1888, 2911, 1029, 4000, 1335, 1731, 2670]	13	Present	NA	NA	AUDITORY	0.8904988765716553	91.71311902999878	93.72291302680968	94.88958779964138	95.23958875329568	97.84936881065369	4.126455783843994	[91.74197697639465, 91.85900282859802, 92.83272099494934, 93.0102219581604, 93.76085090637207, 93.87757182121277, 93.99453091621399, 94.11107993125916, 94.22804379463196, 94.34484100341797, 94.46166682243347, 94.57826399803162, 94.69514584541321, 94.81180191040039, 94.9287748336792, 95.04541993141174, 95.1623477935791, 95.27893090248108, 95.3957769870758, 95.5126748085022, 95.62953996658325, 95.84936881065369]	[91.74550095197415, 91.86216761863415, 92.84516761863415, 93.01186761863416, 93.76186761863416, 93.87853428529415, 93.99520095195415, 94.11186761861414, 94.22853428527414, 94.34520095193413, 94.46186761859413, 94.57853428525412, 94.69520095191412, 94.81186761857411, 94.92853428523411, 95.0452009518941, 95.1618676185541, 95.27853428521409, 95.39520095187409, 95.51186761853408, 95.62853428519408, 95.86186761852741]	2020_Nov_25_1657	59.93258430177313	1	0.375
2	17	FALSE	NV	a	['G', 'J', 'R', 'A', 'M', 'E', 'K', 'H', 'X', 'N', 'Y', 'B', 'U', 'T', 'V', 'C']	[944, 1029, 1587, 697, 1224, 904, 1122, 986, 4000, 1335, 2670, 760, 2059, 1888, 2245, 829]	9	Present	NA	NA	AUDITORY	0.7350170612335205	97.83616900444032	99.83936500549316	100.53937311168484	100.88937501901349	103.965735912323	4.126370906829834	[97.86502695083618, 97.98180198669434, 98.94906091690063, 99.13316082954407, 99.88388991355896, 100.00074481964111, 100.1174578666687, 100.234365940094, 100.35100984573364, 100.46792984008789, 100.58482384681702, 100.70135283470154, 100.81816983222961, 100.9350049495697, 101.05185985565186, 101.16856789588928, 101.28547191619873, 101.40206289291382, 101.51888084411621, 101.63587284088135, 101.7525417804718, 101.965735912323]	[97.86186761852741, 97.97853428518741, 98.96153428518741, 99.12823428518742, 99.87823428518742, 99.99490095184741, 100.11156761850741, 100.2282342851674, 100.3449009518274, 100.4615676184874, 100.57823428514739, 100.69490095180738, 100.81156761846738, 100.92823428512737, 101.04490095178737, 101.16156761844736, 101.27823428510736, 101.39490095176735, 101.51156761842735, 101.62823428508734, 101.74490095174734, 101.97823428508067]	2020_Nov_25_1657	59.93258430177313	1	0.375
2	18	FALSE	NV	a	['T', 'B', 'E', 'W', 'S', 'U', 'C', 'V', 'N', 'Z', 'X', 'Y', 'G', 'A', 'M', 'J']	[1888, 760, 904, 2448, 1731, 2059, 829, 2245, 1335, 2911, 4000, 2670, 944, 697, 1224, 1029]	11	Present	NA	NA	AUDITORY	0.8283839225769043	103.9428050518036	105.95598697662354	106.88932841613524	107.23933032346386	110.08210301399232	4.126116037368774	[103.97166180610657, 104.08841586112976, 105.06542587280273, 105.23947501182556, 105.99017596244812, 106.1072769165039, 106.22382187843323, 106.34077596664429, 106.45750689506531, 106.57431197166443, 106.69110488891602, 106.80793190002441, 106.92467093467712, 107.0415608882904, 107.15827679634094, 107.27505087852478, 107.3919107913971, 107.50855684280396, 107.62542390823364, 107.74216890335083, 107.85911679267883, 108.08210301399231]	[103.97823428508067, 104.09490095174067, 105.07790095174067, 105.24460095174068, 105.99460095174068, 106.11126761840067, 106.22793428506067, 106.34460095172066, 106.46126761838066, 106.57793428504066, 106.69460095170065, 106.81126761836065, 106.92793428502064, 107.04460095168064, 107.16126761834063, 107.27793428500063, 107.39460095166062, 107.51126761832062, 107.62793428498061, 107.7446009516406, 107.8612676183006, 108.09460095163394]	2020_Nov_25_1657	59.93258430177313	1	0.375
2	19	FALSE	NA	a	['R', 'Y', 'J', 'V', 'H', 'M', 'C', 'X', 'T', 'G', 'W', 'S', 'P', 'A', 'B', 'K']	[1587, 2670, 1029, 2245, 986, 1224, 829, 4000, 1888, 944, 2448, 1731, 1456, 697, 760, 1122]	8	Present	NA	NA	AUDITORY	0.848919153213501	110.0657479763031	112.07206201553343	112.65540345506514	113.00540536239376	116.19846892356873	4.126406908035278	[110.09460592269897, 110.21147179603577, 111.18179297447205, 111.3626868724823, 112.11345195770264, 112.23030591011047, 112.34706997871399, 112.4639048576355, 112.58071279525757, 112.69731378555298, 112.81426095962524, 112.93094182014465, 113.04783201217651, 113.16451096534729, 113.28123188018799, 113.39807295799255, 113.51483392715454, 113.63173699378967, 113.7483479976654, 113.86531496047974, 113.98241782188416, 114.19846892356873]	[110.09460095163394, 110.21126761829393, 111.19426761829394, 111.36096761829394, 112.11096761829394, 112.22763428495394, 112.34430095161393, 112.46096761827393, 112.57763428493392, 112.69430095159392, 112.81096761825391, 112.9276342849139, 113.0443009515739, 113.1609676182339, 113.27763428489389, 113.39430095155389, 113.51096761821388, 113.62763428487388, 113.74430095153387, 113.86096761819387, 113.97763428485386, 114.2109676181872]	2020_Nov_25_1657	59.93258430177313	1	0.375
2	20	FALSE	VV	a	['U', 'V', 'P', 'W', 'Y', 'surprise', 'S', 'Z', 'X', 'N', 'C', 'T', 'E', 'H', 'A', 'K']	[2059, 2245, 1456, 2448, 2670, 'stimAuditory/all_stimAuditory/103.wav', 1731, 2911, 4000, 1335, 829, 1888, 904, 986, 697, 1122]	9	Present	NA	NA	ABSENT	1.0301270484924316	116.1889350414276	118.18862509727478	118.88863296504788	119.2386351107951	122.31483578681946	4.126210689544678	[116.21779298782349, 116.3344669342041, 117.2981607913971, 117.48582100868225, 118.23646688461304, 118.33659386634827, 118.4533748626709, 118.57016491889954, 118.68692588806152, 118.80370783805847, 118.92050385475159, 119.03729391098022, 119.1540949344635, 119.2708330154419, 119.38776588439941, 119.50445580482483, 119.62132287025452, 119.73793482780457, 119.85490393638611, 119.97152900695801, 120.08853197097778, 120.31483578681946]	[116.2109676181872, 116.32763428484719, 117.3106342848472, 117.4773342848472, 118.2273342848472, 118.3440009515072, 118.4606676181672, 118.57733428482719, 118.69400095148718, 118.81066761814718, 118.92733428480717, 119.04400095146717, 119.16066761812716, 119.27733428478716, 119.39400095144715, 119.51066761810715, 119.62733428476714, 119.74400095142714, 119.86066761808713, 119.97733428474713, 120.09400095140712, 120.32733428474046]	2020_Nov_25_1657	59.93258430177313	1	0.375
2	21	FALSE	NV	a	['H', 'B', 'V', 'T', 'Y', 'M', 'W', 'X', 'E', 'P', 'C', 'U', 'R', 'J', 'K', 'Z']	[986, 760, 2245, 1888, 2670, 1224, 2448, 4000, 904, 1456, 829, 2059, 1587, 1029, 1122, 2911]	8	Present	NA	NA	AUDITORY	0.7788040637969971	122.29521703720091	124.30494213104248	124.8882833321556	125.23828428580993	128.43120288848877	4.126260757446289	[122.3240737915039, 122.44124579429626, 123.41452693939209, 123.5921688079834, 124.34327697753906, 124.45968580245972, 124.57656979560852, 124.69337582588196, 124.81003785133362, 124.92696595191956, 125.0436339378357, 125.16039085388184, 125.27729082107544, 125.39389181137085, 125.51091194152832, 125.6276388168335, 125.74445700645447, 125.86121201515198, 125.97795987129211, 126.0947048664093, 126.21147298812866, 126.43120193481445]	[122.32733428474046, 122.44400095140045, 123.42700095140046, 123.59370095140046, 124.34370095140046, 124.46036761806046, 124.57703428472045, 124.69370095138045, 124.81036761804044, 124.92703428470044, 125.04370095136044, 125.16036761802043, 125.27703428468043, 125.39370095134042, 125.51036761800042, 125.62703428466041, 125.7437009513204, 125.8603676179804, 125.9770342846404, 126.09370095130039, 126.21036761796039, 126.44370095129372]	2020_Nov_25_1657	59.93258430177313	1	0.375
2	22	FALSE	NN	a	['R', 'P', 'T', 'S', 'M', 'Y', 'J', 'A', 'W', 'G', 'V', 'Z', 'U', 'C', 'N', 'B']	[1587, 1456, 1888, 1731, 1224, 2670, 1029, 697, 2448, 944, 2245, 2911, 2059, 829, 1335, 760]	9	Absent	NA	NA	ABSENT	0.9432950019836426	128.41846203804016	130.42123413085938	131.12124199863248	131.4712441443797	134.5475687980652	4.1263346672058105	[128.44731998443604, 128.56393098831177, 129.53088879585266, 129.7153398990631, 130.46599078178406, 130.58272790908813, 130.69956994056702, 130.8163468837738, 130.93334984779358, 131.04997086524963, 131.16691899299622, 131.28359389305115, 131.40028381347656, 131.51713299751282, 131.63395190238953, 131.75084590911865, 131.8674919605255, 131.98423790931702, 132.10106587409973, 132.2178509235382, 132.33474779129028, 132.54756999015808]	[128.44370095129372, 128.56036761795372, 129.54336761795372, 129.7100676179537, 130.4600676179537, 130.5767342846137, 130.6934009512737, 130.8100676179337, 130.9267342845937, 131.0434009512537, 131.16006761791368, 131.27673428457368, 131.39340095123367, 131.51006761789367, 131.62673428455366, 131.74340095121366, 131.86006761787365, 131.97673428453365, 132.09340095119364, 132.21006761785364, 132.32673428451363, 132.56006761784695]	2020_Nov_25_1657	59.93258430177313	1	0.375
2	23	FALSE	NV	a	['Y', 'K', 'R', 'V', 'S', 'A', 'T', 'W', 'Z', 'J', 'X', 'P', 'H', 'M', 'U', 'N']	[2670, 1122, 1587, 2245, 1731, 697, 1888, 2448, 2911, 1029, 4000, 1456, 986, 1224, 2059, 1335]	11	Present	NA	NA	AUDITORY	0.7406740188598633	134.52495098114014	136.53751301765442	137.4708544571661	137.82085636449474	140.6639358997345	4.126422882080078	[134.5538079738617, 134.6704728603363, 135.64725589752197, 135.82159996032715, 136.5723168849945, 136.6892728805542, 136.80607295036316, 136.92284893989563, 137.03958582878113, 137.1564998626709, 137.27321600914001, 137.38991785049438, 137.50685381889343, 137.62369585037231, 137.74051189422607, 137.85702800750732, 137.97399878501892, 138.0906138420105, 138.20753479003906, 138.32439279556274, 138.44109582901, 138.6639358997345]	[134.56006761784695, 134.67673428450695, 135.65973428450695, 135.82643428450695, 136.57643428450695, 136.69310095116694, 136.80976761782694, 136.92643428448693, 137.04310095114693, 137.15976761780692, 137.27643428446692, 137.3931009511269, 137.5097676177869, 137.6264342844469, 137.7431009511069, 137.8597676177669, 137.9764342844269, 138.09310095108688, 138.20976761774688, 138.32643428440687, 138.44310095106687, 138.6764342844002]	2020_Nov_25_1657	59.93258430177313	1	0.375
2	24	FALSE	NA	a	['T', 'A', 'Y', 'P', 'W', 'V', 'C', 'X', 'E', 'R', 'M', 'J', 'G', 'Z', 'B', 'S']	[1888, 697, 2670, 1456, 2448, 2245, 829, 4000, 904, 1587, 1224, 1029, 944, 2911, 760, 1731]	8	Present	NA	NA	AUDITORY	0.5452640056610107	140.64801812171936	142.65398597717285	143.23732741670457	143.58733027770748	146.7803030014038	4.126317024230957	[140.67687487602234, 140.7934968471527, 141.76362490653992, 141.94479179382324, 142.69552993774414, 142.81248092651367, 142.92909598350525, 143.04581689834595, 143.16280889511108, 143.27937698364258, 143.39619398117065, 143.51291179656982, 143.62973380088806, 143.74667286872864, 143.8634798526764, 143.98065900802612, 144.0971269607544, 144.21391487121582, 144.33051800727844, 144.4472689628601, 144.56426978111267, 144.7803030014038]	[140.6764342844002, 140.79310095106018, 141.7761009510602, 141.94280095106018, 142.69280095106018, 142.80946761772017, 142.92613428438017, 143.04280095104016, 143.15946761770016, 143.27613428436015, 143.39280095102015, 143.50946761768014, 143.62613428434014, 143.74280095100013, 143.85946761766013, 143.97613428432012, 144.09280095098012, 144.20946761764012, 144.3261342843001, 144.4428009509601, 144.5594676176201, 144.79280095095342]	2020_Nov_25_1657	59.93258430177313	1	0.375
2	25	FALSE	VA	a	['J', 'W', 'M', 'E', 'R', 'surprise', 'H', 'Z', 'X', 'C', 'T', 'U', 'Y', 'A', 'N', 'P']	[1029, 2448, 1224, 904, 1587, 'stimAuditory/all_stimAuditory/215.wav', 986, 2911, 4000, 829, 1888, 2059, 2670, 697, 1335, 1456]	9	Present	NA	NA	ABSENT	0.7984681129455566	146.77115416526794	148.7704861164093	149.4704939841824	149.82049612992964	152.89666891098022	4.126182794570923	[146.8000099658966, 146.91672682762146, 147.87999486923218, 148.0679919719696, 148.8187608718872, 148.9186408519745, 149.0354199409485, 149.15221691131592, 149.2690567970276, 149.38580179214478, 149.50260996818542, 149.619295835495, 149.7361400127411, 149.852933883667, 149.96986389160156, 150.0864908695221, 150.20354986190796, 150.32012796401978, 150.43718194961548, 150.55378794670105, 150.67064380645752, 150.89666891098022]	[146.79280095095342, 146.90946761761342, 147.89246761761342, 148.0591676176134, 148.8091676176134, 148.9258342842734, 149.0425009509334, 149.1591676175934, 149.2758342842534, 149.3925009509134, 149.50916761757338, 149.62583428423338, 149.74250095089337, 149.85916761755337, 149.97583428421336, 150.09250095087336, 150.20916761753335, 150.32583428419335, 150.44250095085334, 150.55916761751334, 150.67583428417333, 150.90916761750665]	2020_Nov_25_1657	59.93258430177313	1	0.375
2	26	FALSE	NV	a	['T', 'U', 'B', 'A', 'Y', 'N', 'H', 'P', 'E', 'R', 'K', 'V', 'W', 'X', 'Z', 'J']	[1888, 2059, 760, 697, 2670, 1335, 986, 1456, 904, 1587, 1122, 2245, 2448, 4000, 2911, 1029]	14	Present	NA	NA	AUDITORY	0.827239990234375	152.87742495536804	154.8867700099945	156.1701114494862	156.52011335681482	159.01303601264954	4.126266002655029	[152.9062819480896, 153.02311992645264, 153.99635791778564, 154.1745629310608, 154.92501378059387, 155.04187297821045, 155.15868997573853, 155.27552199363708, 155.39226484298706, 155.50907182693481, 155.6257758140564, 155.74255299568176, 155.85932898521423, 155.97612595558167, 156.09309697151184, 156.20971989631653, 156.3265998363495, 156.44341492652893, 156.56026601791382, 156.6767988204956, 156.79362082481384, 157.01303601264954]	[152.90916761750665, 153.02583428416665, 154.00883428416665, 154.17553428416664, 154.92553428416664, 155.04220095082664, 155.15886761748664, 155.27553428414663, 155.39220095080663, 155.50886761746662, 155.62553428412662, 155.7422009507866, 155.8588676174466, 155.9755342841066, 156.0922009507666, 156.2088676174266, 156.3255342840866, 156.44220095074658, 156.55886761740658, 156.67553428406657, 156.79220095072657, 157.0255342840599]	2020_Nov_25_1657	59.93258430177313	1	0.375
2	27	FALSE	NV	a	['U', 'W', 'Y', 'T', 'J', 'H', 'E', 'X', 'B', 'G', 'R', 'S', 'K', 'P', 'V', 'C']	[2059, 2448, 2670, 1888, 1029, 986, 904, 4000, 760, 944, 1587, 1731, 1122, 1456, 2245, 829]	8	Present	NA	NA	AUDITORY	0.5595650672912598	159.00063300132751	161.00324702262878	161.58658846216048	161.9365903694891	165.12940192222595	4.126154899597168	[159.02948880195618, 159.14623284339905, 160.1127269268036, 160.29748392105103, 161.04809999465942, 161.16510200500488, 161.28181290626526, 161.3986029624939, 161.51548099517822, 161.63208985328674, 161.7489869594574, 161.8658308982849, 161.98233199119568, 162.0994689464569, 162.21602201461792, 162.33290791511536, 162.44980096817017, 162.5663459300995, 162.68326783180237, 162.79988598823547, 162.9169008731842, 163.12940192222595]	[159.0255342840599, 159.14220095071988, 160.1252009507199, 160.29190095071988, 161.04190095071988, 161.15856761737987, 161.27523428403987, 161.39190095069986, 161.50856761735986, 161.62523428401985, 161.74190095067985, 161.85856761733984, 161.97523428399984, 162.09190095065983, 162.20856761731983, 162.32523428397982, 162.44190095063982, 162.55856761729981, 162.6752342839598, 162.7919009506198, 162.9085676172798, 163.14190095061312]	2020_Nov_25_1657	59.93258430177313	1	0.375
2	28	FALSE	NN	a	['G', 'W', 'S', 'U', 'E', 'R', 'B', 'T', 'M', 'C', 'P', 'Z', 'V', 'J', 'H', 'N']	[944, 2448, 1731, 2059, 904, 1587, 760, 1888, 1224, 829, 1456, 2911, 2245, 1029, 986, 1335]	10	Absent	NA	NA	ABSENT	0.7809062004089355	165.10715103149414	167.11943101882937	167.93610579168103	168.28610769900968	171.24576878547668	4.126337766647339	[165.13600897789001, 165.25252294540405, 166.22909092903137, 166.40376996994019, 167.1545159816742, 167.27124786376953, 167.3882257938385, 167.50491380691528, 167.62174081802368, 167.7383267879486, 167.85532999038696, 167.97201490402222, 168.08879280090332, 168.20555186271667, 168.32251691818237, 168.43918299674988, 168.55611300468445, 168.67286491394043, 168.7896478176117, 168.9064929485321, 169.02313995361328, 169.24576878547668]	[165.14190095061312, 165.25856761727312, 166.24156761727312, 166.4082676172731, 167.1582676172731, 167.2749342839331, 167.3916009505931, 167.5082676172531, 167.6249342839131, 167.7416009505731, 167.85826761723308, 167.97493428389308, 168.09160095055307, 168.20826761721307, 168.32493428387306, 168.44160095053306, 168.55826761719305, 168.67493428385305, 168.79160095051304, 168.90826761717304, 169.02493428383303, 169.25826761716635]	2020_Nov_25_1657	59.93258430177313	1	0.375
2	29	FALSE	NN	a	['N', 'S', 'W', 'U', 'Y', 'G', 'J', 'R', 'Z', 'P', 'M', 'A', 'K', 'V', 'H', 'T']	[1335, 1731, 2448, 2059, 2670, 944, 1029, 1587, 2911, 1456, 1224, 697, 1122, 2245, 986, 1888]	13	Absent	NA	NA	ABSENT	0.6734538078308105	171.23003697395325	173.23579001426697	174.4024647870987	174.75246669442728	177.362135887146	4.126345872879028	[171.25889587402344, 171.37571001052856, 172.345458984375, 172.52691793441772, 173.27768087387085, 173.394366979599, 173.51128697395325, 173.6281499862671, 173.74491786956787, 173.86170887947083, 173.9782748222351, 174.09524178504944, 174.21202278137207, 174.32885789871216, 174.44549584388733, 174.56242489814758, 174.67907285690308, 174.79610800743103, 174.91266798973083, 175.0297110080719, 175.14649486541748, 175.362135887146]	[171.25826761716635, 171.37493428382635, 172.35793428382635, 172.52463428382634, 173.27463428382634, 173.39130095048634, 173.50796761714633, 173.62463428380633, 173.74130095046633, 173.85796761712632, 173.97463428378632, 174.0913009504463, 174.2079676171063, 174.3246342837663, 174.4413009504263, 174.5579676170863, 174.6746342837463, 174.79130095040628, 174.90796761706628, 175.02463428372627, 175.14130095038627, 175.3746342837196]	2020_Nov_25_1657	59.93258430177313	1	0.375
2	30	FALSE	NA	a	['A', 'J', 'H', 'T', 'N', 'G', 'U', 'X', 'E', 'S', 'W', 'M', 'V', 'K', 'Y', 'R']	[697, 1029, 986, 1888, 1335, 944, 2059, 4000, 904, 1731, 2448, 1224, 2245, 1122, 2670, 1587]	8	Present	NA	NA	AUDITORY	0.6068651676177979	177.35326194763184	179.3520691394806	179.9354093869194	180.2854124863409	183.4785029888153	4.126433849334717	[177.38211798667908, 177.4987289905548, 178.46182680130005, 178.6330599784851, 179.40073990821838, 179.50071501731873, 179.61762690544128, 179.73426485061646, 179.8512258529663, 179.967875957489, 180.08487582206726, 180.20180892944336, 180.3182909488678, 180.43509984016418, 180.5521059036255, 180.66870188713074, 180.78564286231995, 180.9023778438568, 181.01920294761658, 181.13590288162231, 181.2527527809143, 181.4785029888153]	[177.3746342837196, 177.49130095037958, 178.4743009503796, 178.64100095037958, 179.39100095037958, 179.50766761703957, 179.62433428369957, 179.74100095035956, 179.85766761701956, 179.97433428367955, 180.09100095033955, 180.20766761699954, 180.32433428365954, 180.44100095031953, 180.55766761697953, 180.67433428363952, 180.79100095029952, 180.90766761695951, 181.0243342836195, 181.1410009502795, 181.2576676169395, 181.49100095027282]	2020_Nov_25_1657	59.93258430177313	1	0.375
2	31	FALSE	NN	a	['M', 'E', 'W', 'Z', 'S', 'V', 'J', 'A', 'T', 'P', 'N', 'C', 'U', 'G', 'R', 'Y']	[1224, 904, 2448, 2911, 1731, 2245, 1029, 697, 1888, 1456, 1335, 829, 2059, 944, 1587, 2670]	11	Absent	NA	NA	ABSENT	0.6114978790283203	183.45967411994937	185.46850395202637	186.40184539153805	186.7518472988667	189.59486889839172	4.1263649463653564	[183.48854279518127, 183.6053318977356, 184.57819080352783, 184.75653100013733, 185.50752186775208, 185.62390398979187, 185.7408788204193, 185.85755586624146, 185.9743549823761, 186.09108686447144, 186.2080659866333, 186.32456994056702, 186.4414439201355, 186.55836987495422, 186.6750349998474, 186.79191279411316, 186.90859484672546, 187.02544593811035, 187.14211678504944, 187.25893998146057, 187.3758578300476, 187.59487080574036]	[183.49100095027282, 183.60766761693282, 184.59066761693282, 184.7573676169328, 185.5073676169328, 185.6240342835928, 185.7407009502528, 185.8573676169128, 185.9740342835728, 186.0907009502328, 186.20736761689278, 186.32403428355278, 186.44070095021277, 186.55736761687277, 186.67403428353276, 186.79070095019276, 186.90736761685275, 187.02403428351275, 187.14070095017274, 187.25736761683274, 187.37403428349273, 187.60736761682605]	2020_Nov_25_1657	59.93258430177313	1	0.375
2	32	FALSE	NN	a	['V', 'K', 'S', 'Y', 'U', 'P', 'A', 'N', 'T', 'E', 'B', 'M', 'R', 'Z', 'J', 'C']	[2245, 1122, 1731, 2670, 2059, 1456, 697, 1335, 1888, 904, 760, 1224, 1587, 2911, 1029, 829]	9	Absent	NA	NA	ABSENT	0.575937032699585	189.58283114433289	191.58478713035583	192.28479499812897	192.63479714387617	195.71123600006104	4.1264488697052	[189.61168789863586, 189.728346824646, 190.6945559978485, 190.87951683998108, 191.63032484054565, 191.74712085723877, 191.86401200294495, 191.98063898086548, 192.0974519252777, 192.21425795555115, 192.3308708667755, 192.4478678703308, 192.5645968914032, 192.68147778511047, 192.79830479621887, 192.91508078575134, 193.03194999694824, 193.1486029624939, 193.26534581184387, 193.38202691078186, 193.49901390075684, 193.71124386787415]	[189.60736761682605, 189.72403428348605, 190.70703428348605, 190.87373428348604, 191.62373428348604, 191.74040095014604, 191.85706761680603, 191.97373428346603, 192.09040095012602, 192.20706761678602, 192.32373428344602, 192.440400950106, 192.557067616766, 192.673734283426, 192.790400950086, 192.907067616746, 193.023734283406, 193.14040095006598, 193.25706761672598, 193.37373428338597, 193.49040095004597, 193.7237342833793]	2020_Nov_25_1657	59.93258430177313	1	0.375
2	33	FALSE	AV	a	['G', 'W', 'C', 'U', 'A', 'R', 'M', 'H', 'B', 'surprise', 'Y', 'V', 'X', 'Z', 'J', 'S']	[944, 2448, 829, 2059, 697, 1587, 1224, 986, 760, 'stimAuditory/all_stimAuditory/219.wav', 2670, 2245, 4000, 2911, 1029, 1731]	13	Present	stimAuditory/all_stimAuditory/103.wav	NA	AUDITORY	0.9173078536987304	195.68917393684387	197.70147800445557	198.8681527772873	199.21815468461588	201.82760286331177	4.126124858856201	[195.71803092956543, 195.83457684516907, 196.8109359741211, 196.98593282699585, 197.73672890663147, 197.85340189933777, 197.97040390968323, 198.0869698524475, 198.20380187034607, 198.3205440044403, 198.43759894371033, 198.5541319847107, 198.6711208820343, 198.78778982162476, 198.90468001365662, 199.02133083343506, 199.13828682899475, 199.2550699710846, 199.3716938495636, 199.4886019229889, 199.60529589653015, 199.82760381698608]	[195.7237342833793, 195.84040095003928, 196.8234009500393, 196.99010095003928, 197.74010095003928, 197.85676761669927, 197.97343428335927, 198.09010095001926, 198.20676761667926, 198.32343428333925, 198.44010094999925, 198.55676761665924, 198.67343428331924, 198.79010094997923, 198.90676761663923, 199.02343428329922, 199.14010094995922, 199.25676761661921, 199.3734342832792, 199.4901009499392, 199.6067676165992, 199.84010094993252]	2020_Nov_25_1657	59.93258430177313	1	0.375
2	34	FALSE	NA	a	['K', 'V', 'E', 'G', 'J', 'U', 'T', 'X', 'R', 'W', 'N', 'P', 'Z', 'S', 'A', 'B']	[1122, 2245, 904, 944, 1029, 2059, 1888, 4000, 1587, 2448, 1335, 1456, 2911, 1731, 697, 760]	8	Present	NA	NA	AUDITORY	0.6497597694396973	201.8122560977936	203.81794214248657	204.4012833435997	204.75128548934688	207.94396901130676	4.12602686882019	[201.84111380577087, 201.95772194862366, 202.9272940158844, 203.10903596878052, 203.85981583595276, 203.97656297683716, 204.09323596954346, 204.21007895469666, 204.32708501815796, 204.44374084472656, 204.5604829788208, 204.67741990089417, 204.7940709590912, 204.9109718799591, 205.02800488471985, 205.14464378356934, 205.26129484176636, 205.37791800498962, 205.49471282958984, 205.6116178035736, 205.72853899002075, 205.94396996498108]	[201.84010094993252, 201.95676761659251, 202.93976761659252, 203.1064676165925, 203.8564676165925, 203.9731342832525, 204.0898009499125, 204.2064676165725, 204.3231342832325, 204.4398009498925, 204.55646761655248, 204.67313428321248, 204.78980094987247, 204.90646761653247, 205.02313428319246, 205.13980094985246, 205.25646761651245, 205.37313428317245, 205.48980094983244, 205.60646761649244, 205.72313428315243, 205.95646761648575]	2020_Nov_25_1657	59.93258430177313	1	0.375
2	35	FALSE	NV	a	['B', 'T', 'Z', 'C', 'V', 'J', 'M', 'W', 'S', 'X', 'U', 'P', 'A', 'E', 'K', 'N']	[760, 1888, 2911, 829, 2245, 1029, 1224, 2448, 1731, 4000, 2059, 1456, 697, 904, 1122, 1335]	10	Present	NA	NA	AUDITORY	0.6790430545806885	207.93518805503845	209.9339780807495	210.75065261518264	211.10065476092984	214.0603358745575	4.126357793807983	[207.96405601501465, 208.0809769630432, 209.04365587234497, 209.21534991264343, 209.98284888267517, 210.08286786079407, 210.19985580444336, 210.31646180152893, 210.43349885940552, 210.55002689361572, 210.66698098182678, 210.78359985351562, 210.90056586265564, 211.01721286773682, 211.13422679901123, 211.25083899497986, 211.3677659034729, 211.48446989059448, 211.6011519432068, 211.71803188323975, 211.8349130153656, 212.0603358745575]	[207.95646761648575, 208.07313428314575, 209.05613428314575, 209.22283428314574, 209.97283428314574, 210.08950094980574, 210.20616761646573, 210.32283428312573, 210.43950094978572, 210.55616761644572, 210.67283428310571, 210.7895009497657, 210.9061676164257, 211.0228342830857, 211.1395009497457, 211.2561676164057, 211.37283428306569, 211.48950094972568, 211.60616761638568, 211.72283428304567, 211.83950094970567, 212.072834283039]	2020_Nov_25_1657	59.93258430177313	1	0.375
2	36	FALSE	NN	a	['T', 'W', 'C', 'U', 'R', 'A', 'N', 'P', 'M', 'K', 'Y', 'G', 'B', 'E', 'J', 'Z']	[1888, 2448, 829, 2059, 1587, 697, 1335, 1456, 1224, 1122, 2670, 944, 760, 904, 1029, 2911]	9	Absent	NA	NA	ABSENT	0.6917071342468262	214.04171705245972	216.05040407180783	216.75041098590663	217.10041313165388	220.1767029762268	4.126298904418945	[214.0705850124359, 214.18722295761108, 215.16002488136292, 215.33891987800598, 216.08935499191284, 216.20619797706604, 216.32276678085327, 216.43969798088074, 216.55660796165466, 216.67329692840576, 216.79019284248352, 216.90677785873413, 217.02346992492676, 217.14040088653564, 217.2572329044342, 217.37404680252075, 217.4908390045166, 217.60760283470154, 217.72450399398804, 217.8412058353424, 217.95801901817322, 218.1767029762268]	[214.072834283039, 214.18950094969898, 215.17250094969899, 215.33920094969898, 216.08920094969898, 216.20586761635897, 216.32253428301897, 216.43920094967896, 216.55586761633896, 216.67253428299895, 216.78920094965895, 216.90586761631894, 217.02253428297894, 217.13920094963893, 217.25586761629893, 217.37253428295892, 217.48920094961892, 217.6058676162789, 217.7225342829389, 217.8392009495989, 217.9558676162589, 218.18920094959222]	2020_Nov_25_1657	59.93258430177313	1	0.375
2	37	FALSE	NV	a	['N', 'S', 'W', 'A', 'B', 'C', 'Z', 'H', 'X', 'M', 'K', 'P', 'T', 'E', 'G', 'Y']	[1335, 1731, 2448, 697, 760, 829, 2911, 986, 4000, 1224, 1122, 1456, 1888, 904, 944, 2670]	9	Present	NA	NA	AUDITORY	0.6649889945983887	220.1648690700531	222.1667230129242	222.86673111911588	223.21673302644453	226.2930688858032	4.126345872879028	[220.19372582435608, 220.31042790412903, 221.27639079093933, 221.46168684959412, 222.21225380897522, 222.3292739391327, 222.44606280326843, 222.56285285949707, 222.67957496643066, 222.7962498664856, 222.91326379776, 223.02985978126526, 223.14684391021729, 223.26368284225464, 223.38037586212158, 223.49708199501038, 223.61401295661926, 223.7305748462677, 223.84737300872803, 223.96415495872498, 224.06430888175964, 224.29306888580322]	[220.18920094959222, 220.30586761625221, 221.28886761625222, 221.4555676162522, 222.2055676162522, 222.3222342829122, 222.4389009495722, 222.5555676162322, 222.6722342828922, 222.7889009495522, 222.90556761621218, 223.02223428287218, 223.13890094953217, 223.25556761619217, 223.37223428285216, 223.48890094951216, 223.60556761617215, 223.72223428283215, 223.83890094949214, 223.95556761615214, 224.07223428281213, 224.30556761614545]	2020_Nov_25_1657	59.93258430177313	1	0.375
2	38	FALSE	AN	a	['U', 'P', 'A', 'B', 'S', 'C', 'K', 'G', 'E', 'surprise', 'H', 'Y', 'V', 'N', 'Z', 'W']	[2059, 1456, 697, 760, 1731, 829, 1122, 944, 904, 'stimAuditory/all_stimAuditory/108.wav', 986, 2670, 2245, 1335, 2911, 2448]	13	Absent	stimAuditory/all_stimAuditory/215.wav	NA	ABSENT	0.6856498718261719	226.27103900909424	228.28311705589297	229.44979182872464	229.7997937360533	232.40943694114685	4.126319885253906	[226.2998960018158, 226.41674399375916, 227.39275789260864, 227.56804299354553, 228.31871795654297, 228.4355227947235, 228.55244994163513, 228.6692237854004, 228.78605484962463, 228.90261101722717, 229.01961994171143, 229.13630986213684, 229.25328493118286, 229.36993098258972, 229.4866578578949, 229.60362100601196, 229.72021293640137, 229.83720779418945, 229.95375895500183, 230.07074689865112, 230.18733191490173, 230.40943694114685]	[226.30556761614545, 226.42223428280545, 227.40523428280545, 227.57193428280544, 228.32193428280544, 228.43860094946544, 228.55526761612543, 228.67193428278543, 228.78860094944542, 228.90526761610542, 229.02193428276541, 229.1386009494254, 229.2552676160854, 229.3719342827454, 229.4886009494054, 229.6052676160654, 229.72193428272539, 229.83860094938538, 229.95526761604538, 230.07193428270537, 230.18860094936537, 230.4219342826987]	2020_Nov_25_1657	59.93258430177313	1	0.375
2	39	FALSE	NV	a	['S', 'E', 'R', 'A', 'K', 'P', 'C', 'G', 'W', 'M', 'X', 'T', 'U', 'Y', 'B', 'N']	[1731, 904, 1587, 697, 1122, 1456, 829, 944, 2448, 1224, 4000, 1888, 2059, 2670, 760, 1335]	11	Present	NA	NA	AUDITORY	0.6820499897003174	232.39418601989743	234.39936113357544	235.33270328834288	235.68270543409008	238.5258038043976	4.1264426708221444	[232.42305493354797, 232.5399079322815, 233.5091278553009, 233.69127988815308, 234.44192481040955, 234.55880689620972, 234.6756398677826, 234.7923719882965, 234.90904688835144, 235.02624082565308, 235.14272093772888, 235.2595648765564, 235.37617087364197, 235.49309086799622, 235.60989689826965, 235.7266879081726, 235.84350085258484, 235.96023297309875, 236.0771598815918, 236.19368982315063, 236.3105959892273, 236.52580285072327]	[232.4219342826987, 232.53860094935868, 233.52160094935869, 233.68830094935868, 234.43830094935868, 234.55496761601867, 234.67163428267867, 234.78830094933866, 234.90496761599866, 235.02163428265865, 235.13830094931865, 235.25496761597864, 235.37163428263864, 235.48830094929863, 235.60496761595863, 235.72163428261862, 235.83830094927862, 235.9549676159386, 236.0716342825986, 236.1883009492586, 236.3049676159186, 236.53830094925192]	2020_Nov_25_1657	59.93258430177313	1	0.375
2	40	FALSE	NV	a	['G', 'R', 'B', 'T', 'S', 'Z', 'A', 'C', 'H', 'N', 'X', 'K', 'J', 'Y', 'W', 'V']	[944, 1587, 760, 1888, 1731, 2911, 697, 829, 986, 1335, 4000, 1122, 1029, 2670, 2448, 2245]	11	Present	NA	NA	AUDITORY	0.6635780334472656	238.51737999916077	240.51589608192444	241.4492363293432	241.79923847509045	244.64216899871823	4.126272916793823	[238.54623794555664, 238.66310596466064, 239.62548995018005, 239.7974100112915, 240.5649449825287, 240.66498184204102, 240.7819118499756, 240.89851999282837, 241.0155589580536, 241.1321918964386, 241.24896001815796, 241.3659598827362, 241.48266887664795, 241.5993869304657, 241.71630883216858, 241.83292984962463, 241.9496397972107, 242.06665301322937, 242.1834418773651, 242.30018496513367, 242.41675186157227, 242.64216995239258]	[238.53830094925192, 238.65496761591191, 239.63796761591192, 239.8046676159119, 240.5546676159119, 240.6713342825719, 240.7880009492319, 240.9046676158919, 241.0213342825519, 241.1380009492119, 241.25466761587188, 241.37133428253188, 241.48800094919187, 241.60466761585187, 241.72133428251186, 241.83800094917186, 241.95466761583185, 242.07133428249185, 242.18800094915184, 242.30466761581184, 242.42133428247183, 242.65466761580515]	2020_Nov_25_1657	59.93258430177313	1	0.375
2	41	FALSE	NN	a	['W', 'J', 'R', 'H', 'M', 'A', 'E', 'T', 'P', 'Y', 'S', 'B', 'C', 'K', 'U', 'Z']	[2448, 1029, 1587, 986, 1224, 697, 904, 1888, 1456, 2670, 1731, 760, 829, 1122, 2059, 2911]	9	Absent	NA	NA	ABSENT	0.6197929382324219	244.62380599975583	246.63217902183533	247.33219094272428	247.6821930884715	250.758535861969	4.126356840133667	[244.65266299247742, 244.7692949771881, 245.74185585975647, 245.9210388660431, 246.6713638305664, 246.7882239818573, 246.90488481521606, 247.02169394493103, 247.1386878490448, 247.2553689479828, 247.37204694747925, 247.48898792266846, 247.60583686828613, 247.722589969635, 247.83943581581116, 247.95619082450867, 248.07289290428162, 248.1897578239441, 248.30642986297607, 248.4231469631195, 248.54015398025513, 248.758535861969]	[244.65466761580515, 244.77133428246515, 245.75433428246515, 245.92103428246514, 246.67103428246514, 246.78770094912514, 246.90436761578513, 247.02103428244513, 247.13770094910512, 247.25436761576512, 247.37103428242511, 247.4877009490851, 247.6043676157451, 247.7210342824051, 247.8377009490651, 247.9543676157251, 248.07103428238509, 248.18770094904508, 248.30436761570508, 248.42103428236507, 248.53770094902507, 248.77103428235839]	2020_Nov_25_1657	59.93258430177313	1	0.375
2	42	FALSE	NN	a	['P', 'T', 'S', 'C', 'A', 'B', 'G', 'W', 'J', 'Z', 'H', 'M', 'N', 'K', 'V', 'R']	[1456, 1888, 1731, 829, 697, 760, 944, 2448, 1029, 2911, 986, 1224, 1335, 1122, 2245, 1587]	13	Absent	NA	NA	ABSENT	0.6572940349578857	250.7467451095581	252.74877500534055	253.91544882449796	254.26545073182655	256.8749029636383	4.1261279582977295	[250.7756028175354, 250.89253401756287, 251.85822701454163, 252.0437159538269, 252.79456186294556, 252.91139483451843, 253.02820992469788, 253.14485383033752, 253.26171278953552, 253.37859082221985, 253.4953169822693, 253.61201286315918, 253.7289547920227, 253.84557580947876, 253.96253895759583, 254.0792338848114, 254.19605088233948, 254.31271600723267, 254.41271090507507, 254.52959179878235, 254.6463029384613, 254.8749029636383]	[250.77103428235839, 250.88770094901838, 251.87070094901839, 252.03740094901838, 252.78740094901838, 252.90406761567837, 253.02073428233837, 253.13740094899836, 253.25406761565836, 253.37073428231835, 253.48740094897835, 253.60406761563834, 253.72073428229834, 253.83740094895833, 253.95406761561833, 254.07073428227832, 254.18740094893832, 254.3040676155983, 254.4207342822583, 254.5374009489183, 254.6540676155783, 254.88740094891162]	2020_Nov_25_1657	59.93258430177313	1	0.375
2	43	FALSE	NN	a	['W', 'N', 'V', 'R', 'A', 'T', 'E', 'U', 'Y', 'K', 'Z', 'B', 'C', 'G', 'M', 'J']	[2448, 1335, 2245, 1587, 697, 1888, 904, 2059, 2670, 1122, 2911, 760, 829, 944, 1224, 1029]	10	Absent	NA	NA	ABSENT	0.6776518821716309	256.8531401157379	258.86499214172363	259.68166667615674	260.0316697755783	262.99126982688904	4.126277685165405	[256.8819968700409, 256.99902296066284, 257.9745919704437, 258.1502459049225, 258.9007658958435, 259.0176739692688, 259.1345639228821, 259.25129294395447, 259.3680729866028, 259.4849679470062, 259.60159182548523, 259.718523979187, 259.83537101745605, 259.9521338939667, 260.06877183914185, 260.18565678596497, 260.3023998737335, 260.41916489601135, 260.53602480888367, 260.6527969837189, 260.7694139480591, 260.99126982688904]	[256.8874009489116, 257.0040676155716, 257.9870676155716, 258.1537676155716, 258.9037676155716, 259.02043428223163, 259.13710094889166, 259.2537676155517, 259.3704342822117, 259.4871009488717, 259.60376761553175, 259.7204342821918, 259.8371009488518, 259.9537676155118, 260.07043428217185, 260.18710094883187, 260.3037676154919, 260.4204342821519, 260.53710094881194, 260.65376761547196, 260.770434282132, 261.00376761546534]	2020_Nov_25_1657	59.93258430177313	1	0.375
2	44	FALSE	NN	a	['V', 'Z', 'T', 'K', 'J', 'P', 'S', 'C', 'G', 'M', 'R', 'W', 'A', 'N', 'Y', 'B']	[2245, 2911, 1888, 1122, 1029, 1456, 1731, 829, 944, 1224, 1587, 2448, 697, 1335, 2670, 760]	8	Absent	NA	NA	ABSENT	0.7062928676605225	262.9765660762787	264.98149514198303	265.56483634309615	265.9148384888434	269.10763597488403	4.126140832901001	[263.00542283058167, 263.12193298339844, 264.09095883369446, 264.2731018066406, 265.0244297981262, 265.1408989429474, 265.25753378868103, 265.374547958374, 265.49112582206726, 265.6080279350281, 265.72495198249817, 265.84166193008423, 265.9583418369293, 266.07498693466187, 266.1919620037079, 266.3087828159332, 266.4254570007324, 266.54221200942993, 266.65909695625305, 266.7758378982544, 266.8926739692688, 267.10763597488403]	[263.00376761546534, 263.12043428212536, 264.10343428212536, 264.27013428212535, 265.02013428212535, 265.1368009487854, 265.2534676154454, 265.3701342821054, 265.48680094876545, 265.6034676154255, 265.7201342820855, 265.8368009487455, 265.95346761540554, 266.07013428206557, 266.1868009487256, 266.3034676153856, 266.42013428204564, 266.53680094870566, 266.6534676153657, 266.7701342820257, 266.88680094868573, 267.1201342820191]	2020_Nov_25_1657	59.93258430177313	1	0.375
2	45	FALSE	NV	a	['Z', 'S', 'U', 'H', 'E', 'R', 'N', 'M', 'T', 'K', 'X', 'V', 'A', 'J', 'P', 'W']	[2911, 1731, 2059, 986, 904, 1587, 1335, 1224, 1888, 1122, 4000, 2245, 697, 1029, 1456, 2448]	11	Present	NA	NA	AUDITORY	0.6877551078796387	269.09944105148315	271.09773111343384	272.03107136085265	272.38107326818124	275.22400283813477	4.126271724700928	[269.12829780578613, 269.24516892433167, 270.20732593536377, 270.3795349597931, 271.14714193344116, 271.2471959590912, 271.363862991333, 271.4806628227234, 271.597452878952, 271.7143659591675, 271.8311059474945, 271.9478099346161, 272.0646629333496, 272.1814320087433, 272.29825091362, 272.41511487960815, 272.5317978858948, 272.64874482154846, 272.7653830051422, 272.8823149204254, 272.9989798069, 273.22400283813477]	[269.1201342820191, 269.2368009486791, 270.2198009486791, 270.3865009486791, 271.1365009486791, 271.2531676153391, 271.36983428199915, 271.48650094865917, 271.6031676153192, 271.7198342819792, 271.83650094863924, 271.95316761529926, 272.0698342819593, 272.1865009486193, 272.30316761527934, 272.41983428193936, 272.5365009485994, 272.6531676152594, 272.76983428191943, 272.88650094857945, 273.0031676152395, 273.2365009485728]	2020_Nov_25_1657	59.93258430177313	1	0.375
2	46	FALSE	NN	a	['V', 'A', 'N', 'H', 'G', 'C', 'J', 'M', 'B', 'E', 'W', 'R', 'K', 'U', 'Y', 'P']	[2245, 697, 1335, 986, 944, 829, 1029, 1224, 760, 904, 2448, 1587, 1122, 2059, 2670, 1456]	11	Absent	NA	NA	ABSENT	0.9001650810241699	275.20629501342773	277.2139940261841	278.1473342736029	278.49733641935006	281.34036898612976	4.126374959945679	[275.2351520061493, 275.35147881507874, 276.32368993759155, 276.5026969909668, 277.25341987609863, 277.3703348636627, 277.487028837204, 277.60395979881287, 277.7206289768219, 277.837513923645, 277.95410895347595, 278.0710778236389, 278.18781089782715, 278.3046808242798, 278.42147278785706, 278.5381588935852, 278.6550178527832, 278.77192878723145, 278.8885099887848, 279.00542187690735, 279.122270822525, 279.3403699398041]	[275.2365009485728, 275.35316761523285, 276.33616761523285, 276.50286761523284, 277.25286761523284, 277.36953428189287, 277.4862009485529, 277.6028676152129, 277.71953428187294, 277.83620094853296, 277.952867615193, 278.069534281853, 278.18620094851303, 278.30286761517306, 278.4195342818331, 278.5362009484931, 278.6528676151531, 278.76953428181315, 278.8862009484732, 279.0028676151332, 279.1195342817932, 279.35286761512657]	2020_Nov_25_1657	59.93258430177313	1	0.375
2	47	FALSE	NV	a	['W', 'Y', 'Z', 'T', 'B', 'H', 'C', 'K', 'A', 'U', 'S', 'X', 'J', 'E', 'M', 'N']	[2448, 2670, 2911, 1888, 760, 986, 829, 1122, 697, 2059, 1731, 4000, 1029, 904, 1224, 1335]	12	Present	NA	NA	AUDITORY	0.6096799373626709	281.3291139602661	283.3305139541626	284.38052110665996	284.7305239676629	287.4567368030548	4.126222848892212	[281.35798382759094, 281.4746959209442, 282.4400589466095, 282.6258759498596, 283.37647700309753, 283.4935870170593, 283.61018991470337, 283.7268989086151, 283.8439178466797, 283.96071600914, 284.07752299308777, 284.19416999816895, 284.31106400489807, 284.42763686180115, 284.5445969104767, 284.66142988204956, 284.77825379371643, 284.87814688682556, 284.9952268600464, 285.1116888523102, 285.22851181030273, 285.4567358493805]	[281.35286761512657, 281.4695342817866, 282.4525342817866, 282.6192342817866, 283.3692342817866, 283.4859009484466, 283.60256761510664, 283.71923428176666, 283.8359009484267, 283.9525676150867, 284.06923428174673, 284.18590094840675, 284.3025676150668, 284.4192342817268, 284.5359009483868, 284.65256761504685, 284.7692342817069, 284.8859009483669, 285.0025676150269, 285.11923428168694, 285.23590094834697, 285.4692342816803]	2020_Nov_25_1657	59.93258430177313	1	0.375
2	48	FALSE	VA	a	['U', 'R', 'Z', 'M', 'T', 'Y', 'V', 'N', 'J', 'P', 'surprise', 'W', 'H', 'X', 'E', 'C']	[2059, 1587, 2911, 1224, 1888, 2670, 2245, 1335, 1029, 1456, 'stimAuditory/all_stimAuditory/208.wav', 2448, 986, 4000, 904, 829]	14	Present	NA	NA	AUDITORY	1.1258599758148191	287.4355299472809	289.4466769695282	290.73001745534555	291.0800193626742	293.5731029510498	4.1264259815216064	[287.46438694000244, 287.5810079574585, 288.5564248561859, 288.732439994812, 289.4829168319702, 289.59969186782837, 289.7165448665619, 289.83335185050964, 289.9501519203186, 290.06708693504333, 290.1837348937988, 290.30064582824707, 290.41744089126587, 290.53431701660156, 290.6509189605713, 290.76779794692993, 290.8845098018646, 291.0012798309326, 291.11805391311646, 291.2349638938904, 291.35177183151245, 291.5731029510498]	[287.4692342816803, 287.58590094834034, 288.56890094834034, 288.73560094834033, 289.48560094834033, 289.60226761500036, 289.7189342816604, 289.8356009483204, 289.9522676149804, 290.06893428164045, 290.1856009483005, 290.3022676149605, 290.4189342816205, 290.53560094828055, 290.65226761494057, 290.7689342816006, 290.8856009482606, 291.00226761492064, 291.11893428158066, 291.2356009482407, 291.3522676149007, 291.58560094823406]	2020_Nov_25_1657	59.93258430177313	1	0.375
2	49	FALSE	NV	a	['V', 'M', 'G', 'A', 'R', 'K', 'P', 'B', 'U', 'X', 'C', 'W', 'E', 'S', 'H', 'J']	[2245, 1224, 944, 697, 1587, 1122, 1456, 760, 2059, 4000, 829, 2448, 904, 1731, 986, 1029]	10	Present	NA	NA	AUDITORY	0.610313892364502	293.55869007110596	295.56333804130554	296.38001376783154	296.7300147214859	299.68946981430054	4.126131772994995	[293.5875678062439, 293.70417380332947, 294.6727919578552, 294.8554198741913, 295.6064279079437, 295.7229359149933, 295.8398039340973, 295.95659279823303, 296.07339000701904, 296.19017601013184, 296.30686378479004, 296.4235270023346, 296.5405550003052, 296.65717601776123, 296.77413392066956, 296.8908748626709, 297.0076279640198, 297.1244947910309, 297.24117279052734, 297.3578519821167, 297.47494101524353, 297.6894688606262]	[293.58560094823406, 293.7022676148941, 294.6852676148941, 294.8519676148941, 295.6019676148941, 295.7186342815541, 295.8353009482141, 295.95196761487415, 296.0686342815342, 296.1853009481942, 296.3019676148542, 296.41863428151424, 296.53530094817427, 296.6519676148343, 296.7686342814943, 296.88530094815434, 297.00196761481436, 297.1186342814744, 297.2353009481344, 297.35196761479443, 297.46863428145446, 297.7019676147878]	2020_Nov_25_1657	59.93258430177313	1	0.375
2	50	FALSE	NN	a	['R', 'K', 'S', 'J', 'W', 'E', 'Y', 'V', 'U', 'M', 'Z', 'P', 'G', 'A', 'H', 'C']	[1587, 1122, 1731, 1029, 2448, 904, 2670, 2245, 2059, 1224, 2911, 1456, 944, 697, 986, 829]	10	Absent	NA	NA	ABSENT	0.6879041194915771	299.6817090511322	301.67961406707764	302.49628860151074	302.84628979358365	305.80583596229553	4.1262218952178955	[299.71058893203735, 299.82718992233276, 300.7891569137573, 300.96167397499084, 301.7294499874115, 301.8292808532715, 301.9462878704071, 302.06295895576477, 302.17961597442627, 302.2965259552002, 302.41305589675903, 302.5300660133362, 302.64672088623047, 302.76372480392456, 302.8804860115051, 302.99739480018616, 303.11395287513733, 303.2309060096741, 303.34761691093445, 303.46446084976196, 303.5811619758606, 303.80583691596985]	[299.7019676147878, 299.8186342814478, 300.80163428144783, 300.9683342814478, 301.7183342814478, 301.83500094810785, 301.95166761476787, 302.0683342814279, 302.1850009480879, 302.30166761474794, 302.41833428140797, 302.535000948068, 302.651667614728, 302.76833428138804, 302.88500094804806, 303.0016676147081, 303.1183342813681, 303.23500094802813, 303.35166761468815, 303.4683342813482, 303.5850009480082, 303.81833428134155]	2020_Nov_25_1657	59.93258430177313	1	0.375
2	51	FALSE	NV	a	['M', 'G', 'S', 'K', 'U', 'J', 'R', 'H', 'C', 'T', 'X', 'V', 'B', 'A', 'Y', 'Z']	[1224, 944, 1731, 1122, 2059, 1029, 1587, 986, 829, 1888, 4000, 2245, 760, 697, 2670, 2911]	11	Present	NA	NA	AUDITORY	0.6124420166015625	305.7882480621338	307.7958459854126	308.7291874249243	309.0791893322529	311.92220401763916	4.1263580322265625	[305.81710600852966, 305.9335689544678, 306.9055218696594, 307.08476996421814, 307.83565282821655, 307.9525589942932, 308.0691828727722, 308.1859619617462, 308.302925825119, 308.41972184181213, 308.53648591041565, 308.6533319950104, 308.7699728012085, 308.88669085502625, 309.0034668445587, 309.1201949119568, 309.23720693588257, 309.353798866272, 309.4706389904022, 309.58741188049316, 309.70431184768677, 309.92220401763916]	[305.81833428134155, 305.9350009480016, 306.9180009480016, 307.08470094800157, 307.83470094800157, 307.9513676146616, 308.0680342813216, 308.18470094798164, 308.30136761464166, 308.4180342813017, 308.5347009479617, 308.65136761462173, 308.76803428128176, 308.8847009479418, 309.0013676146018, 309.1180342812618, 309.23470094792185, 309.3513676145819, 309.4680342812419, 309.5847009479019, 309.70136761456195, 309.9347009478953]	2020_Nov_25_1657	59.93258430177313	1	0.375
2	52	FALSE	NV	a	['Y', 'J', 'V', 'M', 'E', 'U', 'G', 'H', 'K', 'T', 'X', 'W', 'C', 'B', 'N', 'P']	[2670, 1029, 2245, 1224, 904, 2059, 944, 986, 1122, 1888, 4000, 2448, 829, 760, 1335, 1456]	11	Present	NA	NA	AUDITORY	0.5297458171844482	311.9110469818115	313.91234612464905	314.8456873257422	315.19568947148935	318.0385699272156	4.126223802566528	[311.9399039745331, 312.0568208694458, 313.02188992500305, 313.20806193351746, 313.958664894104, 314.07566499710083, 314.19217681884766, 314.3090169429779, 314.4260869026184, 314.5427589416504, 314.6596829891205, 314.7762989997864, 314.89310479164124, 314.9934809207916, 315.1098299026489, 315.22665190696716, 315.34337997436523, 315.46019196510315, 315.5769648551941, 315.6937608718872, 315.810585975647, 316.03856897354126]	[311.9347009478953, 312.0513676145553, 313.0343676145553, 313.2010676145553, 313.9510676145553, 314.06773428121534, 314.18440094787536, 314.3010676145354, 314.4177342811954, 314.53440094785543, 314.65106761451545, 314.7677342811755, 314.8844009478355, 315.0010676144955, 315.11773428115555, 315.2344009478156, 315.3510676144756, 315.4677342811356, 315.58440094779564, 315.70106761445567, 315.8177342811157, 316.05106761444904]	2020_Nov_25_1657	59.93258430177313	1	0.375
2	53	FALSE	NA	a	['K', 'R', 'Z', 'B', 'N', 'J', 'H', 'C', 'P', 'G', 'S', 'E', 'V', 'X', 'Y', 'W']	[1122, 1587, 2911, 760, 1335, 1029, 986, 829, 1456, 944, 1731, 904, 2245, 4000, 2670, 2448]	14	Present	NA	NA	AUDITORY	0.6544239521026611	318.01745104789734	320.028608083725	321.31194928479806	321.6619514305453	324.154935836792	4.126327753067017	[318.0463078022003, 318.1631009578705, 319.1382598876953, 319.31449484825134, 320.06505393981934, 320.18204283714294, 320.29869294166565, 320.4156379699707, 320.5323820114136, 320.6491029262543, 320.7657709121704, 320.8825738430023, 320.9995439052582, 321.1163167953491, 321.2331848144531, 321.3498878479004, 321.4667868614197, 321.5833508968353, 321.7002708911896, 321.81705379486084, 321.9338459968567, 322.154935836792]	[318.05106761444904, 318.16773428110906, 319.15073428110907, 319.31743428110906, 320.06743428110906, 320.1841009477691, 320.3007676144291, 320.41743428108913, 320.53410094774915, 320.6507676144092, 320.7674342810692, 320.8841009477292, 321.00076761438925, 321.11743428104927, 321.2341009477093, 321.3507676143693, 321.46743428102934, 321.58410094768936, 321.7007676143494, 321.8174342810094, 321.93410094766944, 322.1674342810028]	2020_Nov_25_1657	59.93258430177313	1	0.375
2	54	FALSE	NV	a	['G', 'N', 'Y', 'K', 'V', 'J', 'A', 'W', 'M', 'S', 'X', 'T', 'B', 'C', 'Z', 'H']	[944, 1335, 2670, 1122, 2245, 1029, 697, 2448, 1224, 1731, 4000, 1888, 760, 829, 2911, 986]	11	Present	NA	NA	AUDITORY	0.5947980880737305	324.14051699638367	326.14515209198	327.0784932930731	327.4284954388203	330.2713029384613	4.126150846481323	[324.16937494277954, 324.28635001182556, 325.25462579727173, 325.43790888786316, 326.18827199935913, 326.305202960968, 326.42177295684814, 326.538489818573, 326.6555287837982, 326.77233386039734, 326.8891019821167, 327.00585198402405, 327.12269592285156, 327.2393078804016, 327.35619282722473, 327.4730758666992, 327.58975887298584, 327.70669889450073, 327.82363295555115, 327.93995785713196, 328.05694580078125, 328.2713029384613]	[324.1674342810028, 324.2841009476628, 325.2671009476628, 325.4338009476628, 326.1838009476628, 326.3004676143228, 326.41713428098285, 326.5338009476429, 326.6504676143029, 326.7671342809629, 326.88380094762294, 327.00046761428297, 327.117134280943, 327.233800947603, 327.35046761426304, 327.46713428092306, 327.5838009475831, 327.7004676142431, 327.81713428090313, 327.93380094756316, 328.0504676142232, 328.28380094755653]	2020_Nov_25_1657	59.93258430177313	1	0.375
2	55	FALSE	NN	a	['C', 'V', 'K', 'N', 'T', 'S', 'P', 'Z', 'B', 'Y', 'M', 'J', 'U', 'E', 'R', 'H']	[829, 2245, 1122, 1335, 1888, 1731, 1456, 2911, 760, 2670, 1224, 1029, 2059, 904, 1587, 986]	8	Absent	NA	NA	ABSENT	0.6721630096435547	330.26381397247314	332.26118993759155	332.84453137712325	333.1945332844519	336.38766980171204	4.126479864120483	[330.29268193244934, 330.39255595207214, 331.3709888458252, 331.5437698364258, 332.29444789886475, 332.4112739562988, 332.528107881546, 332.6449329853058, 332.7617838382721, 332.87866282463074, 332.9953238964081, 333.1123278141022, 333.22891879081726, 333.3458549976349, 333.4625039100647, 333.5792407989502, 333.6960699558258, 333.8130249977112, 333.9296758174896, 334.04636693000793, 334.1632537841797, 334.38766980171204]	[330.28380094755653, 330.40046761421655, 331.38346761421656, 331.55016761421655, 332.30016761421655, 332.41683428087657, 332.5335009475366, 332.6501676141966, 332.76683428085664, 332.88350094751667, 333.0001676141767, 333.1168342808367, 333.23350094749674, 333.35016761415676, 333.4668342808168, 333.5835009474768, 333.70016761413683, 333.81683428079685, 333.9335009474569, 334.0501676141169, 334.1668342807769, 334.4001676141103]	2020_Nov_25_1657	59.93258430177313	1	0.375
2	56	FALSE	NV	a	['N', 'Y', 'Z', 'A', 'H', 'M', 'S', 'P', 'X', 'T', 'G', 'R', 'B', 'V', 'K', 'U']	[1335, 2670, 2911, 697, 986, 1224, 1731, 1456, 4000, 1888, 944, 1587, 760, 2245, 1122, 2059]	9	Present	NA	NA	AUDITORY	0.4925498962402344	336.3701219558716	338.3778290748596	339.07783694263276	339.4278390883799	342.50403594970703	4.126206874847412	[336.39897894859314, 336.5158998966217, 337.4873559474945, 337.66688084602356, 338.4177439212799, 338.53451895713806, 338.6512858867645, 338.7681930065155, 338.8849368095398, 339.0017628669739, 339.1184968948364, 339.23518681526184, 339.35212898254395, 339.4689118862152, 339.5857398509979, 339.70244097709656, 339.81927585601807, 339.9359018802643, 340.05289793014526, 340.1694757938385, 340.2865889072418, 340.50403594970703]	[336.4001676141103, 336.5168342807703, 337.4998342807703, 337.6665342807703, 338.4165342807703, 338.5332009474303, 338.64986761409034, 338.76653428075036, 338.8832009474104, 338.9998676140704, 339.11653428073043, 339.23320094739046, 339.3498676140505, 339.4665342807105, 339.5832009473705, 339.69986761403055, 339.8165342806906, 339.9332009473506, 340.0498676140106, 340.16653428067065, 340.28320094733067, 340.516534280664]	2020_Nov_25_1657	59.93258430177313	1	0.375
2	57	FALSE	NN	a	['V', 'C', 'B', 'S', 'Z', 'H', 'E', 'M', 'K', 'T', 'N', 'W', 'G', 'U', 'R', 'P']	[2245, 829, 760, 1731, 2911, 986, 904, 1224, 1122, 1888, 1335, 2448, 944, 2059, 1587, 1456]	8	Absent	NA	NA	ABSENT	0.6419758796691895	342.4933331012726	344.4939441680908	345.07728536920393	345.4272872765326	348.62040400505066	4.126459836959839	[342.52218985557556, 342.6388998031616, 343.60372591018677, 343.79017782211304, 344.54091691970825, 344.65764689445496, 344.77439999580383, 344.89125394821167, 345.00833678245544, 345.1248857975006, 345.2417588233948, 345.3415470123291, 345.45838499069214, 345.57512283325195, 345.69193291664124, 345.80879378318787, 345.92555689811707, 346.0423538684845, 346.15913486480713, 346.27592492103577, 346.3927319049835, 346.62040281295776]	[342.516534280664, 342.63320094732404, 343.61620094732405, 343.78290094732404, 344.53290094732404, 344.64956761398406, 344.7662342806441, 344.8829009473041, 344.99956761396413, 345.11623428062416, 345.2329009472842, 345.3495676139442, 345.4662342806042, 345.58290094726425, 345.6995676139243, 345.8162342805843, 345.9329009472443, 346.04956761390434, 346.16623428056437, 346.2829009472244, 346.3995676138844, 346.63290094721776]	2020_Nov_25_1657	59.93258430177313	1	0.375
2	58	FALSE	NV	a	['W', 'B', 'K', 'C', 'H', 'U', 'G', 'X', 'V', 'Y', 'Z', 'R', 'M', 'P', 'N', 'S']	[2448, 760, 1122, 829, 986, 2059, 944, 4000, 2245, 2670, 2911, 1587, 1224, 1456, 1335, 1731]	8	Present	NA	NA	AUDITORY	0.550501823425293	348.599720954895	350.6106059551239	351.1939473946556	351.5439483483099	354.73676896095276	4.126163005828857	[348.6285779476166, 348.74523282051086, 349.72009682655334, 349.896595954895, 350.64718985557556, 350.7641580104828, 350.8809199333191, 350.99772691726685, 351.1144988536835, 351.23134779930115, 351.3480658531189, 351.4648787975311, 351.5816698074341, 351.6984329223633, 351.8152048587799, 351.93205094337463, 352.0488259792328, 352.16542291641235, 352.282399892807, 352.3990058898926, 352.51597595214844, 352.73676896095276]	[348.63290094721776, 348.7495676138778, 349.7325676138778, 349.8992676138778, 350.6492676138778, 350.7659342805378, 350.88260094719783, 350.99926761385785, 351.1159342805179, 351.2326009471779, 351.3492676138379, 351.46593428049795, 351.58260094715797, 351.699267613818, 351.815934280478, 351.93260094713804, 352.04926761379807, 352.1659342804581, 352.2826009471181, 352.39926761377814, 352.51593428043816, 352.7492676137715]	2020_Nov_25_1657	59.93258430177313	1	0.375
2	59	FALSE	NV	a	['G', 'K', 'V', 'R', 'S', 'T', 'E', 'Z', 'N', 'P', 'X', 'C', 'M', 'U', 'B', 'A']	[944, 1122, 2245, 1587, 1731, 1888, 904, 2911, 1335, 1456, 4000, 829, 1224, 2059, 760, 697]	11	Present	NA	NA	AUDITORY	0.7549750804901123	354.72283005714417	356.7266891002655	357.6600314934515	358.0100334007801	360.8531358242035	4.126446723937988	[354.75168681144714, 354.86840891838074, 355.8364589214325, 356.019877910614, 356.7703869342804, 356.8870937824249, 357.00402879714966, 357.12084197998047, 357.2376539707184, 357.3542728424072, 357.47114992141724, 357.58801078796387, 357.704824924469, 357.8214008808136, 357.9381229877472, 358.05498695373535, 358.1720190048218, 358.28856587409973, 358.40554881095886, 358.5221109390259, 358.63917994499207, 358.8531370162964]	[354.7492676137715, 354.86593428043153, 355.84893428043154, 356.0156342804315, 356.7656342804315, 356.88230094709155, 356.9989676137516, 357.1156342804116, 357.2323009470716, 357.34896761373165, 357.46563428039167, 357.5823009470517, 357.6989676137117, 357.81563428037174, 357.93230094703176, 358.0489676136918, 358.1656342803518, 358.28230094701183, 358.39896761367186, 358.5156342803319, 358.6323009469919, 358.86563428032525]	2020_Nov_25_1657	59.93258430177313	1	0.375
2	60	FALSE	NV	a	['P', 'Y', 'C', 'M', 'A', 'J', 'N', 'E', 'U', 'T', 'W', 'K', 'R', 'X', 'B', 'H']	[1456, 2670, 829, 1224, 697, 1029, 1335, 904, 2059, 1888, 2448, 1122, 1587, 4000, 760, 986]	14	Present	NA	NA	AUDITORY	0.7123191356658936	360.8460071086883	362.84320998191833	364.12655142141	364.47655332873865	366.9695029258728	4.126292943954468	[360.87486386299133, 360.974604845047, 361.9528229236603, 362.1258828639984, 362.87662982940674, 362.9936218261719, 363.11028385162354, 363.22704792022705, 363.3438539505005, 363.46079897880554, 363.57755398750305, 363.6943869590759, 363.81103897094727, 363.9280300140381, 364.04465985298157, 364.16151785850525, 364.2782897949219, 364.3950619697571, 364.5117518901825, 364.6286699771881, 364.7454659938812, 364.9695029258728]	[360.86563428032525, 360.9823009469853, 361.9653009469853, 362.1320009469853, 362.8820009469853, 362.9986676136453, 363.1153342803053, 363.23200094696534, 363.34866761362537, 363.4653342802854, 363.5820009469454, 363.69866761360544, 363.81533428026546, 363.9320009469255, 364.0486676135855, 364.16533428024553, 364.28200094690555, 364.3986676135656, 364.5153342802256, 364.6320009468856, 364.74866761354565, 364.982000946879]	2020_Nov_25_1657	59.93258430177313	1	0.375
2	61	FALSE	NA	a	['K', 'G', 'P', 'S', 'Z', 'H', 'W', 'J', 'X', 'E', 'M', 'B', 'N', 'T', 'R', 'U']	[1122, 944, 1456, 1731, 2911, 986, 2448, 1029, 4000, 904, 1224, 760, 1335, 1888, 1587, 2059]	9	Present	NA	NA	AUDITORY	0.7007720470428467	366.9525351524353	368.959587097168	369.6595949649411	370.0095971106883	373.0858688354492	4.12628173828125	[366.9813919067383, 367.0979838371277, 368.0691919326782, 368.24905800819397, 368.99988889694214, 369.11653995513916, 369.2335708141327, 369.3501088619232, 369.4671928882599, 369.58383798599243, 369.70061683654785, 369.81725883483887, 369.934298992157, 370.05102586746216, 370.16784286499023, 370.28454089164734, 370.4014530181885, 370.5181338787079, 370.6350119113922, 370.75157380104065, 370.86860489845276, 371.0858688354492]	[366.982000946879, 367.098667613539, 368.081667613539, 368.248367613539, 368.998367613539, 369.11503428019904, 369.23170094685906, 369.3483676135191, 369.4650342801791, 369.58170094683913, 369.69836761349916, 369.8150342801592, 369.9317009468192, 370.04836761347923, 370.16503428013925, 370.2817009467993, 370.3983676134593, 370.5150342801193, 370.63170094677935, 370.74836761343937, 370.8650342800994, 371.09836761343274]	2020_Nov_25_1657	59.93258430177313	1	0.375
2	62	FALSE	NN	a	['S', 'M', 'U', 'P', 'R', 'V', 'J', 'B', 'E', 'T', 'K', 'Y', 'W', 'Z', 'A', 'N']	[1731, 1224, 2059, 1456, 1587, 2245, 1029, 760, 904, 1888, 1122, 2670, 2448, 2911, 697, 1335]	12	Absent	NA	NA	ABSENT	0.5541648864746094	373.07540702819824	375.0757920742035	376.1257999419566	376.4758020877038	379.2022359371186	4.126443862915039	[373.1042649745941, 373.2210648059845, 374.18555879592896, 374.3723359107971, 375.1230537891388, 375.2396728992462, 375.3566927909851, 375.45644783973694, 375.5902998447418, 375.6900978088379, 375.8068850040436, 375.9236648082733, 376.0405099391937, 376.15721797943115, 376.2740638256073, 376.3908619880676, 376.5076129436493, 376.6244008541107, 376.7411949634552, 376.8580379486084, 376.97526693344116, 377.20223689079285]	[373.09836761343274, 373.21503428009277, 374.19803428009277, 374.36473428009276, 375.11473428009276, 375.2314009467528, 375.3480676134128, 375.46473428007283, 375.58140094673286, 375.6980676133929, 375.8147342800529, 375.9314009467129, 376.04806761337295, 376.164734280033, 376.281400946693, 376.398067613353, 376.51473428001304, 376.63140094667307, 376.7480676133331, 376.8647342799931, 376.98140094665314, 377.2147342799865]	2020_Nov_25_1657	59.93258430177313	1	0.375
2	63	FALSE	NV	a	['Z', 'P', 'S', 'U', 'M', 'Y', 'H', 'N', 'K', 'R', 'A', 'X', 'J', 'B', 'V', 'T']	[2911, 1456, 1731, 2059, 1224, 2670, 986, 1335, 1122, 1587, 697, 4000, 1029, 760, 2245, 1888]	12	Present	NA	NA	AUDITORY	0.6625778675079346	379.181606054306	381.1924960613251	382.24250512117106	382.5925060748254	385.31860280036926	4.1261067390441895	[379.2104640007019, 379.32736682891846, 380.3019268512726, 380.47855401039124, 381.22929883003235, 381.34624195098877, 381.46295380592346, 381.5799038410187, 381.69655895233154, 381.81344985961914, 381.9302818775177, 382.0469799041748, 382.1638009548187, 382.28064489364624, 382.39743399620056, 382.51396679878235, 382.6309459209442, 382.7475218772888, 382.86450600624084, 382.98132586479187, 383.09801197052, 383.31860399246216]	[379.2147342799865, 379.3314009466465, 380.3144009466465, 380.4811009466465, 381.2311009466465, 381.34776761330653, 381.46443427996655, 381.5811009466266, 381.6977676132866, 381.8144342799466, 381.93110094660665, 382.04776761326667, 382.1644342799267, 382.2811009465867, 382.39776761324674, 382.51443427990677, 382.6311009465668, 382.7477676132268, 382.86443427988684, 382.98110094654686, 383.0977676132069, 383.33110094654023]	2020_Nov_25_1657	59.93258430177313	1	0.375
2	64	FALSE	NV	a	['H', 'B', 'Z', 'K', 'T', 'N', 'G', 'R', 'X', 'V', 'J', 'Y', 'P', 'C', 'A', 'M']	[986, 760, 2911, 1122, 1888, 1335, 944, 1587, 4000, 2245, 1029, 2670, 1456, 829, 697, 1224]	9	Present	NA	NA	AUDITORY	0.5553059577941895	385.3048930168152	387.3087501525879	388.00875802036103	388.3587601661082	391.4349699020386	4.126219749450684	[385.33375096321106, 385.45068883895874, 386.41829085350037, 386.601744890213, 387.3529098033905, 387.4694039821625, 387.58624482154846, 387.70284390449524, 387.8197569847107, 387.93644285202026, 388.0533678531647, 388.17005491256714, 388.28680992126465, 388.40374183654785, 388.52044701576233, 388.6371319293976, 388.75406289100647, 388.87072801589966, 388.9875819683075, 389.10429883003235, 389.2211239337921, 389.43496894836426]	[385.33110094654023, 385.44776761320026, 386.43076761320026, 386.59746761320025, 387.34746761320025, 387.4641342798603, 387.5808009465203, 387.6974676131803, 387.81413427984035, 387.93080094650037, 388.0474676131604, 388.1641342798204, 388.28080094648044, 388.39746761314046, 388.5141342798005, 388.6308009464605, 388.74746761312053, 388.86413427978056, 388.9808009464406, 389.0974676131006, 389.21413427976063, 389.447467613094]	2020_Nov_25_1657	59.93258430177313	1	0.375
2	65	FALSE	NV	a	['J', 'Z', 'P', 'B', 'H', 'V', 'G', 'N', 'M', 'E', 'C', 'X', 'W', 'R', 'S', 'Y']	[1029, 2911, 1456, 760, 986, 2245, 944, 1335, 1224, 904, 829, 4000, 2448, 1587, 1731, 2670]	12	Present	NA	NA	AUDITORY	0.5765619277954102	391.42807698249817	393.4249720573426	394.4749801635142	394.8249820708429	397.551335811615	4.126363754272461	[391.4569339752197, 391.55678701400757, 392.5346598625183, 392.7080509662628, 393.45876598358154, 393.57580494880676, 393.6924328804016, 393.80943393707275, 393.92600178718567, 394.04276394844055, 394.1595268249512, 394.2764959335327, 394.39325499534607, 394.50986099243164, 394.626886844635, 394.74347281455994, 394.86053586006165, 394.97730898857117, 395.0941138267517, 395.2106788158417, 395.3276219367981, 395.551335811615]	[391.447467613094, 391.564134279754, 392.547134279754, 392.713834279754, 393.463834279754, 393.580500946414, 393.69716761307404, 393.81383427973407, 393.9305009463941, 394.0471676130541, 394.16383427971414, 394.28050094637416, 394.3971676130342, 394.5138342796942, 394.63050094635423, 394.74716761301426, 394.8638342796743, 394.9805009463343, 395.0971676129943, 395.21383427965435, 395.3305009463144, 395.5638342796477]	2020_Nov_25_1657	59.93258430177313	1	0.375
2	66	FALSE	NA	a	['Y', 'J', 'C', 'E', 'U', 'T', 'N', 'B', 'P', 'X', 'R', 'V', 'G', 'M', 'K', 'S']	[2670, 1029, 829, 904, 2059, 1888, 1335, 760, 1456, 4000, 1587, 2245, 944, 1224, 1122, 1731]	10	Present	NA	NA	AUDITORY	0.48528194427490234	397.53460907936096	399.5415050983429	400.3581786791017	400.7081808248489	403.66770195961	4.12619686126709	[397.56346678733826, 397.68007493019104, 398.6510269641876, 398.8312659263611, 399.5818998813629, 399.6988639831543, 399.8155620098114, 399.93231987953186, 400.0492789745331, 400.16597986221313, 400.28290700912476, 400.3994948863983, 400.5163559913635, 400.6330189704895, 400.749990940094, 400.8667559623718, 400.9835548400879, 401.10024094581604, 401.2169909477234, 401.33374285697937, 401.4508078098297, 401.66770100593567]	[397.5638342796477, 397.68050094630775, 398.66350094630775, 398.83020094630774, 399.58020094630774, 399.69686761296776, 399.8135342796278, 399.9302009462878, 400.04686761294784, 400.16353427960786, 400.2802009462679, 400.3968676129279, 400.51353427958793, 400.63020094624795, 400.746867612908, 400.863534279568, 400.980200946228, 401.09686761288805, 401.21353427954807, 401.3302009462081, 401.4468676128681, 401.68020094620147]	2020_Nov_25_1657	59.93258430177313	1	0.375
2	67	FALSE	NN	a	['B', 'N', 'V', 'R', 'S', 'H', 'J', 'C', 'P', 'Z', 'T', 'Y', 'K', 'A', 'M', 'W']	[760, 1335, 2245, 1587, 1731, 986, 1029, 829, 1456, 2911, 1888, 2670, 1122, 697, 1224, 2448]	13	Absent	NA	NA	ABSENT	0.5466477870941162	403.65762400627136	405.6577889919281	406.8244647184341	407.1744666257627	409.7840688228607	4.126279830932617	[403.6864809989929, 403.80294585227966, 404.7673900127411, 404.9543797969818, 405.7051010131836, 405.80504083633423, 405.9388508796692, 406.0385890007019, 406.1554069519043, 406.27219796180725, 406.3890278339386, 406.5057668685913, 406.622624874115, 406.7394189834595, 406.8562059402466, 406.9733798503876, 407.0898058414459, 407.2065498828888, 407.3233528137207, 407.44009494781494, 407.55702781677246, 407.7840688228607]	[403.68020094620147, 403.7968676128615, 404.7798676128615, 404.9465676128615, 405.6965676128615, 405.8132342795215, 405.92990094618153, 406.04656761284156, 406.1632342795016, 406.2799009461616, 406.3965676128216, 406.51323427948165, 406.6299009461417, 406.7465676128017, 406.8632342794617, 406.97990094612175, 407.09656761278177, 407.2132342794418, 407.3299009461018, 407.44656761276184, 407.56323427942186, 407.7965676127552]	2020_Nov_25_1657	59.93258430177313	1	0.375
2	68	FALSE	NV	a	['B', 'M', 'V', 'C', 'Z', 'N', 'K', 'X', 'J', 'T', 'E', 'Y', 'W', 'G', 'P', 'H']	[760, 1224, 2245, 829, 2911, 1335, 1122, 4000, 1029, 1888, 904, 2670, 2448, 944, 1456, 986]	8	Present	NA	NA	AUDITORY	0.48687005043029785	409.7639689445496	411.7741050720215	412.3574462731346	412.7074474652075	415.90043592453	4.126330852508545	[409.79282689094543, 409.90963888168335, 410.88375782966614, 411.0606999397278, 411.811381816864, 411.92843794822693, 412.0451309680939, 412.1620228290558, 412.27870178222656, 412.39556193351746, 412.5122768878937, 412.6289219856262, 412.74579095840454, 412.8626449108124, 412.97959089279175, 413.09608697891235, 413.2130048274994, 413.32961678504944, 413.44656896591187, 413.5634388923645, 413.6801748275757, 413.90043687820435]	[409.7965676127552, 409.91323427941524, 410.89623427941524, 411.06293427941523, 411.81293427941523, 411.92960094607525, 412.0462676127353, 412.1629342793953, 412.2796009460553, 412.39626761271535, 412.5129342793754, 412.6296009460354, 412.7462676126954, 412.86293427935544, 412.97960094601547, 413.0962676126755, 413.2129342793355, 413.32960094599554, 413.44626761265556, 413.5629342793156, 413.6796009459756, 413.91293427930896]	2020_Nov_25_1657	59.93258430177313	1	0.375
2	69	FALSE	NA	a	['U', 'K', 'Y', 'T', 'C', 'W', 'H', 'Z', 'E', 'M', 'V', 'X', 'A', 'P', 'N', 'B']	[2059, 1122, 2670, 1888, 829, 2448, 986, 2911, 904, 1224, 2245, 4000, 697, 1456, 1335, 760]	12	Present	NA	NA	AUDITORY	0.739530086517334	415.886990070343	417.8906271457672	418.9406350135203	419.29063715926753	422.0168027877808	4.12617564201355	[415.9158480167389, 416.03267884254456, 417.00012397766113, 417.18418288230896, 417.9345979690552, 418.0513229370117, 418.168251991272, 418.284863948822, 418.401841878891, 418.51866579055786, 418.635461807251, 418.7522327899933, 418.8689868450165, 418.98568296432495, 419.1026089191437, 419.21941089630127, 419.3360188007355, 419.4529449939728, 419.5698609352112, 419.68656182289124, 419.8034269809723, 420.01680183410645]	[415.91293427930896, 416.029600945969, 417.012600945969, 417.179300945969, 417.929300945969, 418.045967612629, 418.162634279289, 418.27930094594905, 418.39596761260907, 418.5126342792691, 418.6293009459291, 418.74596761258914, 418.86263427924916, 418.9793009459092, 419.0959676125692, 419.21263427922923, 419.32930094588926, 419.4459676125493, 419.5626342792093, 419.67930094586933, 419.79596761252935, 420.0293009458627]	2020_Nov_25_1657	59.93258430177313	1	0.375
2	70	FALSE	NN	a	['J', 'T', 'S', 'N', 'A', 'R', 'H', 'W', 'E', 'Z', 'Y', 'K', 'C', 'M', 'U', 'P']	[1029, 1888, 1731, 1335, 697, 1587, 986, 2448, 904, 2911, 2670, 1122, 829, 1224, 2059, 1456]	9	Absent	NA	NA	ABSENT	0.5127921104431152	422.0101640224457	424.00678300857544	424.7067911147672	425.05679302209575	428.1331698894501	4.126386880874634	[422.03902196884155, 422.1388349533081, 423.1164929866791, 423.2900848388672, 424.04087686538696, 424.15793895721436, 424.2745089530945, 424.39147782325745, 424.50816798210144, 424.62486696243286, 424.7417869567871, 424.85858178138733, 424.9754660129547, 425.0921628475189, 425.2090377807617, 425.32561779022217, 425.4425368309021, 425.55943179130554, 425.67608094215393, 425.79279088974, 425.9097628593445, 426.1331698894501]	[422.0293009458627, 422.1459676125227, 423.12896761252273, 423.2956676125227, 424.0456676125227, 424.16233427918274, 424.27900094584277, 424.3956676125028, 424.5123342791628, 424.62900094582284, 424.74566761248286, 424.8623342791429, 424.9790009458029, 425.09566761246293, 425.21233427912296, 425.329000945783, 425.445667612443, 425.562334279103, 425.67900094576305, 425.7956676124231, 425.9123342790831, 426.14566761241645]	2020_Nov_25_1657	59.93258430177313	1	0.375
2	71	FALSE	NA	a	['S', 'Z', 'P', 'M', 'K', 'V', 'W', 'G', 'X', 'C', 'A', 'T', 'N', 'R', 'B', 'J']	[1731, 2911, 1456, 1224, 1122, 2245, 2448, 944, 4000, 829, 697, 1888, 1335, 1587, 760, 1029]	9	Present	NA	NA	AUDITORY	0.693356990814209	428.1168780326843	430.123260974884	430.82326908107575	431.17327098840434	434.2495357990265	4.126274824142456	[428.1457347869873, 428.26226592063904, 429.2328579425812, 429.41344380378723, 430.16416692733765, 430.2809798717499, 430.3977689743042, 430.51430892944336, 430.631404876709, 430.74818086624146, 430.8649299144745, 430.9816098213196, 431.09851598739624, 431.2150819301605, 431.3320689201355, 431.4488208293915, 431.56561398506165, 431.6822979450226, 431.7992618083954, 431.9159607887268, 432.0327467918396, 432.2495357990265]	[428.14566761241645, 428.26233427907647, 429.2453342790765, 429.41203427907647, 430.16203427907647, 430.2787009457365, 430.3953676123965, 430.51203427905654, 430.62870094571656, 430.7453676123766, 430.8620342790366, 430.97870094569663, 431.09536761235665, 431.2120342790167, 431.3287009456767, 431.4453676123367, 431.56203427899675, 431.6787009456568, 431.7953676123168, 431.9120342789768, 432.02870094563684, 432.2620342789702]	2020_Nov_25_1657	59.93258430177313	1	0.375
2	72	FALSE	VA	a	['M', 'G', 'P', 'H', 'N', 'S', 'T', 'surprise', 'U', 'Z', 'X', 'E', 'W', 'J', 'Y', 'R']	[1224, 944, 1456, 986, 1335, 1731, 1888, 'stimAuditory/all_stimAuditory/222.wav', 2059, 2911, 4000, 904, 2448, 1029, 2670, 1587]	11	Present	NA	NA	ABSENT	0.6666419506072998	434.23974895477295	436.2395191192627	437.1728603203558	437.522862466103	440.3659019470215	4.126382827758789	[434.26861786842346, 434.3851339817047, 435.3492248058319, 435.5363998413086, 436.2873888015747, 436.38722491264343, 436.504017829895, 436.62082290649414, 436.73764300346375, 436.8543198108673, 436.9711129665375, 437.0878849029541, 437.20471382141113, 437.32146692276, 437.4385039806366, 437.5550158023834, 437.6719329357147, 437.78870487213135, 437.9054138660431, 438.0225567817688, 438.1391489505768, 438.3659019470215]	[434.2620342789702, 434.3787009456302, 435.3617009456302, 435.5284009456302, 436.2784009456302, 436.39506761229023, 436.51173427895026, 436.6284009456103, 436.7450676122703, 436.8617342789303, 436.97840094559035, 437.0950676122504, 437.2117342789104, 437.3284009455704, 437.44506761223045, 437.56173427889047, 437.6784009455505, 437.7950676122105, 437.91173427887054, 438.02840094553056, 438.1450676121906, 438.37840094552394]	2020_Nov_25_1657	59.93258430177313	1	0.375
2	73	FALSE	NA	a	['K', 'S', 'J', 'B', 'H', 'C', 'E', 'X', 'T', 'A', 'G', 'W', 'R', 'N', 'M', 'Z']	[1122, 1731, 1029, 760, 986, 829, 904, 4000, 1888, 697, 944, 2448, 1587, 1335, 1224, 2911]	8	Present	NA	NA	AUDITORY	0.5433831214904785	440.3458411693573	442.3561551570892	442.939495404528	443.2894973118567	446.4822688102722	4.126113653182983	[440.37469696998596, 440.49175095558167, 441.4655909538269, 441.64285683631897, 442.3936128616333, 442.51028394699097, 442.6272258758545, 442.7439329624176, 442.86085391044617, 442.9775288105011, 443.0944788455963, 443.2111849784851, 443.327978849411, 443.44479990005493, 443.56145882606506, 443.6782388687134, 443.7952208518982, 443.91182684898376, 444.02880096435547, 444.14541578292847, 444.26238894462585, 444.4822688102722]	[440.37840094552394, 440.49506761218396, 441.47806761218396, 441.64476761218395, 442.39476761218395, 442.511434278844, 442.628100945504, 442.744767612164, 442.86143427882405, 442.9781009454841, 443.0947676121441, 443.2114342788041, 443.32810094546414, 443.44476761212417, 443.5614342787842, 443.6781009454442, 443.79476761210424, 443.91143427876426, 444.0281009454243, 444.1447676120843, 444.26143427874433, 444.4947676120777]	2020_Nov_25_1657	59.93258430177313	1	0.375
2	74	FALSE	NN	a	['H', 'W', 'R', 'U', 'N', 'K', 'J', 'V', 'G', 'E', 'Z', 'B', 'A', 'C', 'Y', 'P']	[986, 2448, 1587, 2059, 1335, 1122, 1029, 2245, 944, 904, 2911, 760, 697, 829, 2670, 1456]	10	Absent	NA	NA	ABSENT	0.595775842666626	446.4691359996796	448.4725580215454	449.2892347017457	449.6392366090744	452.59863591194153	4.126077890396118	[446.4979929924011, 446.61465096473694, 447.5819618701935, 447.76606488227844, 448.5170269012451, 448.63336992263794, 448.7501587867737, 448.86711287498474, 448.98394680023193, 449.10079288482666, 449.2174789905548, 449.3343868255615, 449.4508979320526, 449.5678689479828, 449.6847548484802, 449.8013827800751, 449.9180898666382, 450.0351128578186, 450.1518199443817, 450.26844096183777, 450.38530683517456, 450.5986359119415]	[446.4947676120777, 446.6114342787377, 447.5944342787377, 447.7611342787377, 448.5111342787377, 448.6278009453977, 448.74446761205775, 448.86113427871777, 448.9778009453778, 449.0944676120378, 449.21113427869784, 449.32780094535786, 449.4444676120179, 449.5611342786779, 449.67780094533794, 449.79446761199796, 449.911134278658, 450.027800945318, 450.14446761197803, 450.26113427863805, 450.3778009452981, 450.6111342786314]	2020_Nov_25_1657	59.93258430177313	1	0.375
2	75	FALSE	NA	a	['M', 'H', 'G', 'Z', 'K', 'C', 'W', 'J', 'P', 'X', 'A', 'Y', 'R', 'T', 'S', 'E']	[1224, 986, 944, 2911, 1122, 829, 2448, 1029, 1456, 4000, 697, 2670, 1587, 1888, 1731, 904]	10	Present	NA	NA	AUDITORY	0.5611069202423096	452.5754270553589	454.58866715431213	455.4053426424195	455.75534383449246	458.7150039672851	4.1263368129730225	[452.60428285598755, 452.72108578681946, 453.6983268260956, 453.8723478317261, 454.62298679351807, 454.73982286453247, 454.85677194595337, 454.97356700897217, 455.0903789997101, 455.2069239616394, 455.32398891448975, 455.4404969215393, 455.55760288238525, 455.67418098449707, 455.791051864624, 455.9077899456024, 456.0245158672333, 456.14135694503784, 456.2581868171692, 456.37483286857605, 456.491858959198, 456.71500301361084]	[452.6111342786314, 452.72780094529145, 453.71080094529145, 453.87750094529144, 454.62750094529144, 454.74416761195147, 454.8608342786115, 454.9775009452715, 455.09416761193154, 455.21083427859156, 455.3275009452516, 455.4441676119116, 455.56083427857163, 455.67750094523166, 455.7941676118917, 455.9108342785517, 456.0275009452117, 456.14416761187175, 456.2608342785318, 456.3775009451918, 456.4941676118518, 456.72750094518517]	2020_Nov_25_1657	59.93258430177313	1	0.375
2	76	FALSE	VN	a	['C', 'P', 'B', 'Z', 'W', 'R', 'T', 'N', 'surprise', 'S', 'A', 'K', 'V', 'U', 'E', 'H']	[829, 1456, 760, 2911, 2448, 1587, 1888, 1335, 'stimAuditory/all_stimAuditory/216.wav', 1731, 697, 1122, 2245, 2059, 904, 986]	12	Absent	NA	NA	ABSENT	0.4936490058898926	458.69901514053345	460.7049150466919	461.7549231528636	462.1049250601922	464.83136892318726	4.126453876495361	[458.7278718948364, 458.8444118499756, 459.81469082832336, 459.9955129623413, 460.7462899684906, 460.86298298835754, 460.9799687862396, 461.09661889076233, 461.2135148048401, 461.33017587661743, 461.4468369483948, 461.56367897987366, 461.6803708076477, 461.79741501808167, 461.9141638278961, 462.0308527946472, 462.1475818157196, 462.2644829750061, 462.3813669681549, 462.497918844223, 462.6146788597107, 462.8313698768616]	[458.72750094518517, 458.8441676118452, 459.8271676118452, 459.9938676118452, 460.7438676118452, 460.8605342785052, 460.97720094516524, 461.09386761182526, 461.2105342784853, 461.3272009451453, 461.44386761180533, 461.56053427846535, 461.6772009451254, 461.7938676117854, 461.9105342784454, 462.02720094510545, 462.1438676117655, 462.2605342784255, 462.3772009450855, 462.49386761174554, 462.61053427840557, 462.8438676117389]	2020_Nov_25_1657	59.93258430177313	1	0.375
2	77	FALSE	NV	a	['T', 'N', 'Z', 'J', 'Y', 'U', 'E', 'A', 'G', 'B', 'K', 'P', 'C', 'X', 'H', 'W']	[1888, 1335, 2911, 1029, 2670, 2059, 904, 697, 944, 760, 1122, 1456, 829, 4000, 986, 2448]	14	Present	NA	NA	AUDITORY	0.698948860168457	464.8215899467468	466.82137298583984	468.1047144253315	468.45471633266015	470.947735786438	4.1263628005981445	[464.85045886039734, 464.9674348831177, 465.9310579299927, 466.1184837818146, 466.86950492858887, 466.96932888031006, 467.0861179828644, 467.20293498039246, 467.31963992118835, 467.4364860057831, 467.5532808303833, 467.67010498046875, 467.78702187538147, 467.9035608768463, 468.0208189487457, 468.137188911438, 468.25412583351135, 468.37083292007446, 468.4877378940582, 468.6044399738312, 468.72133779525757, 468.947735786438]	[464.8438676117389, 464.96053427839894, 465.94353427839894, 466.11023427839893, 466.86023427839893, 466.97690094505896, 467.093567611719, 467.210234278379, 467.32690094503903, 467.44356761169905, 467.5602342783591, 467.6769009450191, 467.7935676116791, 467.91023427833915, 468.02690094499917, 468.1435676116592, 468.2602342783192, 468.37690094497924, 468.49356761163926, 468.6102342782993, 468.7269009449593, 468.96023427829266]	2020_Nov_25_1657	59.93258430177313	1	0.375
2	78	FALSE	NV	a	['P', 'S', 'G', 'W', 'A', 'Y', 'U', 'M', 'Z', 'T', 'J', 'K', 'V', 'X', 'N', 'H']	[1456, 1731, 944, 2448, 697, 2670, 2059, 1224, 2911, 1888, 1029, 1122, 2245, 4000, 1335, 986]	14	Present	NA	NA	AUDITORY	0.5995359420776367	470.9282310009002	472.9376211166382	474.22096231771127	474.5709644634585	477.064101934433	4.1264808177948	[470.9570879936218, 471.07364678382874, 472.0474238395691, 472.2249958515167, 472.97571301460266, 473.0924530029297, 473.20937991142273, 473.3260688781738, 473.44300389289856, 473.5597379207611, 473.6764109134674, 473.79324078559875, 473.910089969635, 474.026957988739, 474.14375400543213, 474.2603569030762, 474.37712478637695, 474.49394178390503, 474.6106548309326, 474.72761487960815, 474.84434700012207, 475.064101934433]	[470.96023427829266, 471.0769009449527, 472.0599009449527, 472.2266009449527, 472.9766009449527, 473.0932676116127, 473.2099342782727, 473.32660094493275, 473.4432676115928, 473.5599342782528, 473.6766009449128, 473.79326761157284, 473.90993427823287, 474.0266009448929, 474.1432676115529, 474.25993427821294, 474.37660094487296, 474.493267611533, 474.609934278193, 474.72660094485303, 474.84326761151306, 475.0766009448464]	2020_Nov_25_1657	59.93258430177313	1	0.375
2	79	FALSE	AV	a	['S', 'T', 'R', 'Y', 'surprise', 'G', 'V', 'X', 'U', 'P', 'C', 'E', 'Z', 'B', 'W', 'J']	[1731, 1888, 1587, 2670, 'stimAuditory/all_stimAuditory/111.wav', 944, 2245, 4000, 2059, 1456, 829, 904, 2911, 760, 2448, 1029]	8	Present	stimAuditory/all_stimAuditory/219.wav	NA	ABSENT	0.6360728740692139	477.0512909889221	479.0541889667511	479.6375294526085	479.9875313599371	483.1804699897766	4.126281023025513	[477.0801479816437, 477.1968069076538, 478.16379499435425, 478.34847688674927, 479.09887194633484, 479.2156798839569, 479.3322877883911, 479.4492998123169, 479.5659148693085, 479.6827118396759, 479.79948687553406, 479.91629695892334, 480.03306889533997, 480.1498739719391, 480.266783952713, 480.38340878486633, 480.50043201446533, 480.61720395088196, 480.7338819503784, 480.8506078720093, 480.96758484840393, 481.1804687976837]	[477.0766009448464, 477.1932676115064, 478.17626761150643, 478.3429676115064, 479.0929676115064, 479.20963427816645, 479.32630094482647, 479.4429676114865, 479.5596342781465, 479.67630094480654, 479.79296761146657, 479.9096342781266, 480.0263009447866, 480.14296761144664, 480.25963427810666, 480.3763009447667, 480.4929676114267, 480.60963427808673, 480.72630094474675, 480.8429676114068, 480.9596342780668, 481.19296761140015]	2020_Nov_25_1657	59.93258430177313	1	0.375
