participant	trial_num	practice	task	condition	RSVP	RAP	probePos	probe_presence	surprise_sound	surprise_img	probe_response	probe_resp_time	first_fixation_time	trial_start_time	surprise_start_time	probe_start_time	trial_end_time	trial_duration	actualEventTimes	plannedEventTimes	date	framerate	marker_vol	RAP_vol
25	1	FALSE	NN	v	['H', 'V', 'G', 'T', 'U', 'P', 'W', 'Y', 'C', 'N', 'S', 'M', 'R', 'K', 'J', 'E']	[986, 2245, 944, 1888, 2059, 1456, 2448, 2670, 829, 1335, 1731, 1224, 1587, 1122, 1029, 904]	9	Absent	NA	NA	ABSENT	0.7373521327972412	1.9073486328125e-6	1.996625900268555	2.694579839706421	3.044174909591675	6.103869915008545	4.10724401473999	[0.013269901275634766, 0.1128079891204834, 1.0972309112548828, 1.2641239166259766, 2.0319058895111084, 2.1317410469055176, 2.2485930919647217, 2.365550994873047, 2.482124090194702, 2.599066972732544, 2.715873956680298, 2.8326001167297363, 2.9494340419769287, 3.066127061843872, 3.182766914367676, 3.2997920513153076, 3.416409969329834, 3.533320903778076, 3.650012969970703, 3.7669050693511963, 3.8835880756378174, 4.103869915008545]	[9.5367431640625e-07, 0.11666762034098306, 1.099667620340983, 1.266367620340983, 2.016367620340983, 2.1330342870076495, 2.249700953674316, 2.366367620340983, 2.4830342870076496, 2.5997009536743163, 2.716367620340983, 2.8330342870076497, 2.9497009536743164, 3.066367620340983, 3.18303428700765, 3.2997009536743165, 3.416367620340983, 3.53303428700765, 3.6497009536743166, 3.7663676203409833, 3.88303428700765, 4.116367620340983]	2021_Feb_05_1101	59.84194539283233	1	1
25	2	FALSE	NV	v	['R', 'B', 'W', 'A', 'U', 'Z', 'M', 'H', 'Y', 'S', 'X', 'P', 'T', 'N', 'V', 'J']	[1587, 760, 2448, 697, 2059, 2911, 1224, 986, 2670, 1731, 4000, 1456, 1888, 1335, 2245, 1029]	11	Present	NA	NA	PRESENT	0.3739900588989258	6.106210947036743	8.109941005706787	9.043284893035889	9.393626928329468	12.22023606300354	4.110295057296753	[6.119478940963745, 6.2361249923706055, 7.220731973648071, 7.3874900341033936, 8.138219118118286, 8.255203008651733, 8.371953010559082, 8.488687992095947, 8.605317115783691, 8.72226095199585, 8.83893609046936, 8.955841064453125, 9.072463989257812, 9.189481019973755, 9.306252002716064, 9.422947883605957, 9.539582967758179, 9.656830072402954, 9.773191928863525, 9.890191078186035, 10.006864070892334, 10.220237016677856]	[6.116367620340983, 6.23303428700765, 7.216034287007649, 7.382734287007649, 8.132734287007649, 8.249400953674316, 8.366067620340983, 8.48273428700765, 8.599400953674317, 8.716067620340985, 8.832734287007652, 8.949400953674319, 9.066067620340986, 9.182734287007653, 9.29940095367432, 9.416067620340987, 9.532734287007655, 9.649400953674322, 9.766067620340989, 9.882734287007656, 9.999400953674323, 10.232734287007656]	2021_Feb_05_1101	59.84194539283233	1	1
25	3	FALSE	NA	v	['K', 'P', 'N', 'R', 'T', 'Z', 'B', 'W', 'J', 'X', 'H', 'V', 'S', 'E', 'M', 'A']	[1122, 1456, 1335, 1587, 1888, 2911, 760, 2448, 1029, 4000, 986, 2245, 1731, 904, 1224, 697]	10	Present	NA	NA	PRESENT	0.3393089771270752	12.212584972381592	14.226046800613403	15.043018817901611	15.393038034439089	18.336602926254272	4.110556125640869	[12.225852966308594, 12.342536926269531, 13.327188968658447, 13.49399995803833, 14.261394023895264, 14.361464977264404, 14.478190898895264, 14.594990015029907, 14.711852073669434, 14.828675031661987, 14.945616960525513, 15.062212944030762, 15.17896294593811, 15.295805931091309, 15.412715911865234, 15.529401063919067, 15.646301984786987, 15.762939929962158, 15.879868030548096, 15.996675968170166, 16.113317012786865, 16.336601972579956]	[12.232734287007656, 12.349400953674323, 13.332400953674323, 13.499100953674324, 14.249100953674324, 14.365767620340991, 14.482434287007658, 14.599100953674325, 14.715767620340992, 14.83243428700766, 14.949100953674327, 15.065767620340994, 15.182434287007661, 15.299100953674328, 15.415767620340995, 15.532434287007662, 15.64910095367433, 15.765767620340997, 15.882434287007664, 15.999100953674331, 16.115767620340996, 16.34910095367433]	2021_Feb_05_1101	59.84194539283233	1	1
25	4	FALSE	NV	v	['A', 'J', 'K', 'S', 'R', 'G', 'V', 'C', 'E', 'X', 'B', 'N', 'W', 'Z', 'U', 'M']	[697, 1029, 1122, 1731, 1587, 944, 2245, 829, 904, 4000, 760, 1335, 2448, 2911, 2059, 1224]	10	Present	NA	NA	PRESENT	0.11177611351013184	18.33586597442627	20.342516899108887	21.159700870513916	21.509188890457153	24.452970027923584	4.110453128814697	[18.34913396835327, 18.465884923934937, 19.450464010238647, 19.617536067962646, 20.36789894104004, 20.48470711708069, 20.601666927337646, 20.718236923217773, 20.835031032562256, 20.951985120773315, 21.068766117095947, 21.18562602996826, 21.302165985107422, 21.419158935546875, 21.535844087600708, 21.6528160572052, 21.769407033920288, 21.886276960372925, 22.0031099319458, 22.11986494064331, 22.236681938171387, 22.452969074249268]	[18.34910095367433, 18.465767620340998, 19.448767620341, 19.615467620340997, 20.365467620340997, 20.482134287007664, 20.59880095367433, 20.715467620341, 20.832134287007666, 20.948800953674333, 21.065467620341, 21.182134287007667, 21.298800953674334, 21.415467620341, 21.53213428700767, 21.648800953674336, 21.765467620341003, 21.88213428700767, 21.998800953674337, 22.115467620341004, 22.23213428700767, 22.465467620341006]	2021_Feb_05_1101	59.84194539283233	1	1
25	5	FALSE	NN	v	['V', 'T', 'R', 'Z', 'U', 'S', 'A', 'B', 'C', 'Y', 'P', 'M', 'N', 'H', 'J', 'G']	[2245, 1888, 1587, 2911, 2059, 1731, 697, 760, 829, 2670, 1456, 1224, 1335, 986, 1029, 944]	14	Absent	NA	NA	ABSENT	0.3892018795013428	24.459038972854614	26.458724975585938	27.74252700805664	28.09415888786316	30.5693359375	4.1106109619140625	[24.4723060131073, 24.589478969573975, 25.573764085769653, 25.740339040756226, 26.49119210243225, 26.608062028884888, 26.72465991973877, 26.84162402153015, 26.958245992660522, 27.07519292831421, 27.19202494621277, 27.3088219165802, 27.4254789352417, 27.54221200942993, 27.659171104431152, 27.775970935821533, 27.89274311065674, 28.00929093360901, 28.126240968704224, 28.243158102035522, 28.343159914016724, 28.5693359375]	[24.465467620341006, 24.582134287007673, 25.565134287007673, 25.731834287007672, 26.481834287007672, 26.59850095367434, 26.715167620341006, 26.831834287007673, 26.94850095367434, 27.065167620341008, 27.181834287007675, 27.298500953674342, 27.41516762034101, 27.531834287007676, 27.648500953674343, 27.76516762034101, 27.881834287007678, 27.998500953674345, 28.115167620341012, 28.23183428700768, 28.348500953674346, 28.58183428700768]	2021_Feb_05_1101	59.84194539283233	1	1
25	6	FALSE	VA	v	['M', 'H', 'K', 'B', 'surprise', 'N', 'W', 'X', 'T', 'Z', 'J', 'E', 'G', 'S', 'A', 'Y']	[1224, 986, 1122, 760, 'stimAuditory/all_stimAuditory/212.wav', 1335, 2448, 4000, 1888, 2911, 1029, 904, 944, 1731, 697, 2670]	8	Present	NA	stimVisual/all_stimVisual/109.jpg	PRESENT	0.417525053024292	30.56594395637512	32.57492780685425	33.15891098976135	33.50902581214905	36.68570303916931	4.1107752323150635	[30.579211950302124, 30.695796966552734, 31.68008589744568, 31.84700298309326, 32.5975821018219, 32.71444511413574, 32.83132600784302, 32.94799995422363, 33.08167505264282, 33.18161606788635, 33.29855799674988, 33.41523194313049, 33.53214192390442, 33.64894199371338, 33.76579308509827, 33.882513999938965, 33.9990930557251, 34.116132974624634, 34.2328200340271, 34.34954595565796, 34.46619200706482, 34.68570399284363]	[30.58183428700768, 30.698500953674348, 31.681500953674348, 31.848200953674347, 32.59820095367435, 32.71486762034102, 32.831534287007685, 32.94820095367435, 33.06486762034102, 33.181534287007686, 33.29820095367435, 33.41486762034102, 33.53153428700769, 33.648200953674355, 33.76486762034102, 33.88153428700769, 33.998200953674356, 34.11486762034102, 34.23153428700769, 34.34820095367436, 34.464867620341025, 34.69820095367436]	2021_Feb_05_1101	59.84194539283233	1	1
25	7	FALSE	NA	v	['N', 'R', 'A', 'K', 'M', 'H', 'Z', 'T', 'E', 'B', 'S', 'X', 'J', 'W', 'P', 'U']	[1335, 1587, 697, 1122, 1224, 986, 2911, 1888, 904, 760, 1731, 4000, 1029, 2448, 1456, 2059]	12	Present	NA	NA	PRESENT	0.23808002471923828	36.68890595436096	38.69144082069397	39.74167490005493	40.09205794334411	42.80206894874573	4.110628128051758	[36.702173948287964, 36.81884407997131, 37.80335998535156, 37.970072984695435, 38.72077202796936, 38.83778405189514, 38.954627990722656, 39.07135009765625, 39.18803691864014, 39.30488109588623, 39.4218111038208, 39.53857207298279, 39.655596017837524, 39.77186298370361, 39.888859033584595, 40.00567007064819, 40.12237310409546, 40.23930311203003, 40.35593795776367, 40.47256398200989, 40.589625120162964, 40.80206894874573]	[36.69820095367436, 36.814867620341026, 37.79786762034102, 37.96456762034102, 38.71456762034102, 38.83123428700769, 38.947900953674356, 39.06456762034102, 39.18123428700769, 39.29790095367436, 39.414567620341025, 39.53123428700769, 39.64790095367436, 39.764567620341026, 39.88123428700769, 39.99790095367436, 40.11456762034103, 40.231234287007695, 40.34790095367436, 40.46456762034103, 40.581234287007696, 40.81456762034103]	2021_Feb_05_1101	59.84194539283233	1	1
25	8	FALSE	NA	v	['Z', 'K', 'V', 'U', 'R', 'B', 'A', 'X', 'N', 'Y', 'M', 'P', 'T', 'W', 'G', 'H']	[2911, 1122, 2245, 2059, 1587, 760, 697, 4000, 1335, 2670, 1224, 1456, 1888, 2448, 944, 986]	8	Present	NA	NA	PRESENT	0.10755014419555664	42.79515790939331	44.808197021484375	45.391326904296875	45.741381883621216	48.91843605041504	4.110239028930664	[42.808424949645996, 42.92542290687561, 43.909663915634155, 44.07668995857239, 44.844149112701416, 44.94407892227173, 45.061081886291504, 45.17771792411804, 45.294634103775024, 45.41126203536987, 45.528242111206055, 45.6448450088501, 45.761833906173706, 45.87852907180786, 45.9953339099884, 46.11214900016785, 46.22880291938782, 46.34568500518799, 46.46259593963623, 46.57912993431091, 46.69609808921814, 46.91843605041504]	[42.81456762034103, 42.9312342870077, 43.914234287007694, 44.08093428700769, 44.83093428700769, 44.94760095367436, 45.06426762034103, 45.180934287007695, 45.29760095367436, 45.41426762034103, 45.530934287007696, 45.64760095367436, 45.76426762034103, 45.8809342870077, 45.997600953674365, 46.11426762034103, 46.2309342870077, 46.347600953674366, 46.46426762034103, 46.5809342870077, 46.69760095367437, 46.9309342870077]	2021_Feb_05_1101	59.84194539283233	1	1
25	9	FALSE	NN	v	['A', 'S', 'V', 'R', 'B', 'N', 'K', 'E', 'J', 'P', 'C', 'T', 'Z', 'H', 'U', 'W']	[697, 1731, 2245, 1587, 760, 1335, 1122, 904, 1029, 1456, 829, 1888, 2911, 986, 2059, 2448]	8	Absent	NA	NA	ABSENT	0.463871955871582	48.91859984397888	50.92440390586853	51.50816202163696	51.85793399810791	55.034801959991455	4.110398054122925	[48.93186807632446, 49.04865908622742, 50.03314805030823, 50.19994592666626, 50.95051598548889, 51.06734609603882, 51.18426203727722, 51.301039934158325, 51.41783690452576, 51.534600019454956, 51.651467084884644, 51.76803803443909, 51.88503408432007, 52.00183701515198, 52.11841011047363, 52.23544502258301, 52.352083921432495, 52.468985080718994, 52.58566188812256, 52.7025671005249, 52.81914496421814, 53.03480291366577]	[48.9309342870077, 49.04760095367437, 50.030600953674366, 50.197300953674365, 50.947300953674365, 51.06396762034103, 51.1806342870077, 51.297300953674366, 51.41396762034103, 51.5306342870077, 51.64730095367437, 51.763967620341035, 51.8806342870077, 51.99730095367437, 52.113967620341036, 52.2306342870077, 52.34730095367437, 52.46396762034104, 52.580634287007705, 52.69730095367437, 52.81396762034104, 53.04730095367437]	2021_Feb_05_1101	59.84194539283233	1	1
25	10	FALSE	NV	v	['N', 'R', 'B', 'W', 'M', 'U', 'H', 'T', 'S', 'Z', 'C', 'K', 'J', 'X', 'G', 'V']	[1335, 1587, 760, 2448, 1224, 2059, 986, 1888, 1731, 2911, 829, 1122, 1029, 4000, 944, 2245]	14	Present	NA	NA	PRESENT	0.3254249095916748	55.04187893867493	57.04073691368103	58.324328899383545	58.67440891265869	61.15117001533508	4.110433101654053	[55.05514693260193, 55.17178511619568, 56.139365911483765, 56.306272983551025, 57.0738799571991, 57.190720081329346, 57.30741000175476, 57.42403793334961, 57.54099988937378, 57.65790390968323, 57.774566888809204, 57.89143896102905, 58.00809097290039, 58.12491989135742, 58.241909980773926, 58.35858988761902, 58.458548069000244, 58.57541489601135, 58.692172050476074, 58.80889892578125, 58.92588710784912, 59.1511709690094]	[55.04730095367437, 55.16396762034104, 56.14696762034104, 56.313667620341036, 57.063667620341036, 57.1803342870077, 57.29700095367437, 57.41366762034104, 57.530334287007705, 57.64700095367437, 57.76366762034104, 57.880334287007706, 57.99700095367437, 58.11366762034104, 58.23033428700771, 58.347000953674375, 58.46366762034104, 58.58033428700771, 58.697000953674376, 58.81366762034104, 58.93033428700771, 59.163667620341045]	2021_Feb_05_1101	59.84194539283233	1	1
25	11	FALSE	NA	v	['E', 'P', 'H', 'G', 'Z', 'B', 'K', 'W', 'X', 'U', 'A', 'R', 'N', 'J', 'M', 'V']	[904, 1456, 986, 944, 2911, 760, 1122, 2448, 4000, 2059, 697, 1587, 1335, 1029, 1224, 2245]	9	Present	NA	NA	PRESENT	0.30591797828674316	61.14860200881958	63.15697979927063	63.85748100280762	64.20775580406189	67.2675371170044	4.110557317733765	[61.16187000274658, 61.278199911117554, 62.26274299621582, 62.429672956466675, 63.180113077163696, 63.29714894294739, 63.413816928863525, 63.530755043029785, 63.64754390716553, 63.76428198814392, 63.881006956100464, 63.9979510307312, 64.11457204818726, 64.23151898384094, 64.34831309318542, 64.46508502960205, 64.58171606063843, 64.69872403144836, 64.81535911560059, 64.93235993385315, 65.04896903038025, 65.2675371170044]	[61.163667620341045, 61.28033428700771, 62.26333428700771, 62.43003428700771, 63.18003428700771, 63.296700953674375, 63.41336762034104, 63.53003428700771, 63.646700953674376, 63.76336762034104, 63.88003428700771, 63.99670095367438, 64.11336762034104, 64.2300342870077, 64.34670095367436, 64.46336762034102, 64.58003428700768, 64.69670095367434, 64.813367620341, 64.93003428700766, 65.04670095367432, 65.28003428700765]	2021_Feb_05_1101	59.84194539283233	1	1
25	12	FALSE	NV	v	['C', 'H', 'M', 'P', 'K', 'Z', 'U', 'B', 'R', 'X', 'Y', 'A', 'S', 'N', 'G', 'J']	[829, 986, 1224, 1456, 1122, 2911, 2059, 760, 1587, 4000, 2670, 697, 1731, 1335, 944, 1029]	10	Present	NA	NA	PRESENT	0.3033618927001953	67.2713508605957	69.27327680587769	70.09055280685425	70.4403338432312	73.3839020729065	4.110625267028809	[67.28461909294128, 67.40158104896545, 68.38597702980042, 68.55285310745239, 69.30336904525757, 69.4203839302063, 69.53716111183167, 69.65395593643188, 69.77074790000916, 69.88749408721924, 70.00437211990356, 70.12098503112793, 70.23801493644714, 70.3547739982605, 70.47137093544006, 70.58832001686096, 70.70547008514404, 70.8220100402832, 70.93873810768127, 71.05527091026306, 71.15542602539062, 71.3839020729065]	[67.28003428700765, 67.39670095367431, 68.37970095367432, 68.54640095367432, 69.29640095367432, 69.41306762034098, 69.52973428700764, 69.6464009536743, 69.76306762034096, 69.87973428700762, 69.99640095367428, 70.11306762034094, 70.2297342870076, 70.34640095367426, 70.46306762034092, 70.57973428700758, 70.69640095367424, 70.8130676203409, 70.92973428700756, 71.04640095367422, 71.16306762034088, 71.39640095367422]	2021_Feb_05_1101	59.84194539283233	1	1
25	13	FALSE	NN	v	['N', 'A', 'M', 'S', 'T', 'B', 'U', 'R', 'J', 'G', 'V', 'P', 'W', 'K', 'Z', 'E']	[1335, 697, 1224, 1731, 1888, 760, 2059, 1587, 1029, 944, 2245, 1456, 2448, 1122, 2911, 904]	9	Absent	NA	NA	ABSENT	0.5558009147644043	73.37786889076233	75.38982582092285	76.09006881713867	76.44003200531006	79.50026988983154	4.110444068908691	[73.39113688468933, 73.50812101364136, 74.49236106872559, 74.65937089920044, 75.42692708969116, 75.52674698829651, 75.64368104934692, 75.76037788391113, 75.92723894119263, 75.99389696121216, 76.11066389083862, 76.22747707366943, 76.34447693824768, 76.46117091178894, 76.57788300514221, 76.69487500190735, 76.81149911880493, 76.92845106124878, 77.04503989219666, 77.16204190254211, 77.2786910533905, 77.50026893615723]	[73.39640095367422, 73.51306762034088, 74.49606762034088, 74.66276762034089, 75.41276762034089, 75.52943428700755, 75.6461009536742, 75.76276762034087, 75.87943428700753, 75.99610095367419, 76.11276762034085, 76.2294342870075, 76.34610095367417, 76.46276762034083, 76.57943428700749, 76.69610095367415, 76.81276762034081, 76.92943428700747, 77.04610095367413, 77.16276762034079, 77.27943428700745, 77.51276762034078]	2021_Feb_05_1101	59.84194539283233	1	1
25	14	FALSE	AA	v	['H', 'E', 'M', 'U', 'S', 'A', 'N', 'W', 'surprise', 'Y', 'V', 'X', 'R', 'B', 'K', 'J']	[986, 904, 1224, 2059, 1731, 697, 1335, 2448, 'stimAuditory/all_stimAuditory/222.wav', 2670, 2245, 4000, 1587, 760, 1122, 1029]	12	Present	stimAuditory/all_stimAuditory/212.wav	stimVisual/all_stimVisual/103.jpg	PRESENT	0.36800193786621094	79.50139093399048	81.50617480278015	82.55636286735535	82.90627002716064	85.61663699150085	4.110462188720703	[79.51465892791748, 79.63132190704346, 80.61595010757446, 80.78240299224854, 81.53327488899231, 81.6501350402832, 81.7667589187622, 81.88376593589783, 82.00048899650574, 82.117182970047, 82.23414897918701, 82.35089206695557, 82.4674870967865, 82.58436989784241, 82.70111107826233, 82.81784701347351, 82.93464303016663, 83.05167198181152, 83.16842889785767, 83.28516411781311, 83.40184307098389, 83.61663794517517]	[79.51276762034078, 79.62943428700744, 80.61243428700745, 80.77913428700745, 81.52913428700745, 81.64580095367411, 81.76246762034077, 81.87913428700743, 81.99580095367409, 82.11246762034075, 82.22913428700741, 82.34580095367407, 82.46246762034073, 82.57913428700739, 82.69580095367405, 82.81246762034071, 82.92913428700737, 83.04580095367403, 83.16246762034069, 83.27913428700735, 83.39580095367401, 83.62913428700735]	2021_Feb_05_1101	59.84194539283233	1	1
25	15	FALSE	NA	v	['V', 'B', 'Z', 'S', 'T', 'E', 'H', 'P', 'G', 'U', 'J', 'R', 'X', 'N', 'Y', 'M']	[2245, 760, 2911, 1731, 1888, 904, 986, 1456, 944, 2059, 1029, 1587, 4000, 1335, 2670, 1224]	13	Present	NA	NA	PRESENT	0.27747607231140137	85.62458992004395	87.62239289283752	88.78928089141846	89.13943982124329	91.73300290107728	4.110610008239746	[85.63785696029663, 85.75455594062805, 86.72205400466919, 86.88883590698242, 87.65651297569275, 87.77319693565369, 87.89012289047241, 88.00661396980286, 88.12353205680847, 88.24027895927429, 88.34029698371887, 88.45712399482727, 88.57407188415527, 88.69075107574463, 88.80753588676453, 88.92435193061829, 89.041100025177, 89.15789294242859, 89.27473711967468, 89.3917179107666, 89.50831198692322, 89.73300290107727]	[85.62913428700735, 85.745800953674, 86.72880095367401, 86.89550095367402, 87.64550095367402, 87.76216762034068, 87.87883428700734, 87.995500953674, 88.11216762034066, 88.22883428700732, 88.34550095367398, 88.46216762034064, 88.5788342870073, 88.69550095367396, 88.81216762034062, 88.92883428700728, 89.04550095367394, 89.1621676203406, 89.27883428700726, 89.39550095367392, 89.51216762034058, 89.74550095367391]	2021_Feb_05_1101	59.84194539283233	1	1
25	16	FALSE	NN	v	['S', 'A', 'K', 'G', 'T', 'N', 'C', 'M', 'Z', 'Y', 'W', 'V', 'H', 'P', 'R', 'E']	[1731, 697, 1122, 944, 1888, 1335, 829, 1224, 2911, 2670, 2448, 2245, 986, 1456, 1587, 904]	12	Absent	NA	NA	ABSENT	0.737900972366333	91.73133182525636	93.73873496055604	94.7890088558197	95.13913488388062	97.84937000274658	4.110635042190552	[91.74460101127625, 91.86088109016418, 92.845370054245, 93.01216411590576, 93.7629930973053, 93.87985491752625, 93.99651288986206, 94.11333990097046, 94.22999596595764, 94.34684109687805, 94.46355295181274, 94.58049511909485, 94.69740009307861, 94.81417989730835, 94.93097591400146, 95.0477979183197, 95.16450095176697, 95.28139209747314, 95.39804601669312, 95.51469111442566, 95.63176488876343, 95.84936904907227]	[91.74550095367391, 91.86216762034057, 92.84516762034058, 93.01186762034058, 93.76186762034058, 93.87853428700724, 93.9952009536739, 94.11186762034056, 94.22853428700722, 94.34520095367388, 94.46186762034054, 94.5785342870072, 94.69520095367386, 94.81186762034052, 94.92853428700718, 95.04520095367384, 95.1618676203405, 95.27853428700716, 95.39520095367382, 95.51186762034048, 95.62853428700714, 95.86186762034048]	2021_Feb_05_1101	59.84194539283233	1	1
25	17	FALSE	NN	v	['M', 'J', 'T', 'B', 'A', 'G', 'V', 'Z', 'E', 'C', 'S', 'P', 'Y', 'K', 'H', 'R']	[1224, 1029, 1888, 760, 697, 944, 2245, 2911, 904, 829, 1731, 1456, 2670, 1122, 986, 1587]	14	Absent	NA	NA	PRESENT	0.6636030673980713	97.85395002365112	99.85539484024048	101.13903594017027	101.48866200447084	103.9657371044159	4.110342264175415	[97.86721801757812, 97.98420190811157, 98.96859097480774, 99.13532590866089, 99.88615393638611, 100.00285196304321, 100.11971998214722, 100.23672199249268, 100.35339307785034, 100.47018003463745, 100.58702492713928, 100.70362901687622, 100.82058691978455, 100.93722009658813, 101.05396699905396, 101.17101693153381, 101.28767609596252, 101.40438294410706, 101.52149200439453, 101.63836789131165, 101.73801398277283, 101.965735912323]	[97.86186762034048, 97.97853428700714, 98.96153428700714, 99.12823428700715, 99.87823428700715, 99.9949009536738, 100.11156762034047, 100.22823428700713, 100.34490095367379, 100.46156762034045, 100.5782342870071, 100.69490095367377, 100.81156762034043, 100.92823428700709, 101.04490095367375, 101.1615676203404, 101.27823428700707, 101.39490095367373, 101.51156762034039, 101.62823428700705, 101.7449009536737, 101.97823428700704]	2021_Feb_05_1101	59.84194539283233	1	1
25	18	FALSE	VV	v	['A', 'Y', 'P', 'K', 'surprise', 'V', 'J', 'X', 'Z', 'W', 'H', 'B', 'N', 'T', 'U', 'G']	[697, 2670, 1456, 1122, 'stimAuditory/all_stimAuditory/109.wav', 2245, 1029, 4000, 2911, 2448, 986, 760, 1335, 1888, 2059, 944]	8	Present	NA	stimVisual/all_stimVisual/211.jpg	PRESENT	0.5719590187072754	103.9606728553772	105.97145080566406	106.55527782440186	106.9051549434662	110.08210301399232	4.110652208328247	[103.97394108772278, 104.09059691429138, 105.07500100135803, 105.24198794364929, 105.99254608154297, 106.10944390296936, 106.22640800476074, 106.343092918396, 106.47661399841309, 106.57662796974182, 106.69335389137268, 106.81027793884277, 106.92694592475891, 107.04388999938965, 107.16054797172546, 107.27751803398132, 107.39413094520569, 107.51101803779602, 107.62769198417664, 107.7443950176239, 107.86146688461304, 108.082102060318]	[103.97823428700704, 104.0949009536737, 105.0779009536737, 105.24460095367371, 105.99460095367371, 106.11126762034037, 106.22793428700703, 106.34460095367369, 106.46126762034035, 106.57793428700701, 106.69460095367367, 106.81126762034033, 106.92793428700699, 107.04460095367365, 107.16126762034031, 107.27793428700697, 107.39460095367363, 107.51126762034029, 107.62793428700695, 107.74460095367361, 107.86126762034027, 108.0946009536736]	2021_Feb_05_1101	59.84194539283233	1	1
25	19	FALSE	NV	v	['J', 'A', 'M', 'N', 'H', 'R', 'G', 'B', 'P', 'C', 'V', 'X', 'Y', 'T', 'Z', 'U']	[1029, 697, 1224, 1335, 986, 1587, 944, 760, 1456, 829, 2245, 4000, 2670, 1888, 2911, 2059]	12	Present	NA	NA	PRESENT	0.26442885398864746	110.08390784263612	112.0878129005432	113.13837695121764	113.48823595046996	116.19847011566162	4.110657215118408	[110.09717512130737, 110.21383094787598, 111.1982069015503, 111.36499810218811, 112.11616110801697, 112.23280906677246, 112.3494861125946, 112.46646690368652, 112.58315396308899, 112.69998693466187, 112.81652808189392, 112.93345499038696, 113.05028891563416, 113.16687393188477, 113.28383588790894, 113.40062808990479, 113.51741290092468, 113.6341609954834, 113.75100994110107, 113.86771893501282, 113.98464107513428, 114.19847106933594]	[110.0946009536736, 110.21126762034027, 111.19426762034027, 111.36096762034028, 112.11096762034028, 112.22763428700694, 112.3443009536736, 112.46096762034026, 112.57763428700692, 112.69430095367358, 112.81096762034024, 112.9276342870069, 113.04430095367356, 113.16096762034022, 113.27763428700688, 113.39430095367354, 113.5109676203402, 113.62763428700686, 113.74430095367352, 113.86096762034018, 113.97763428700684, 114.21096762034017]	2021_Feb_05_1101	59.84194539283233	1	1
25	20	FALSE	NN	v	['C', 'P', 'R', 'G', 'V', 'H', 'Z', 'W', 'K', 'T', 'B', 'A', 'E', 'U', 'N', 'M']	[829, 1456, 1587, 944, 2245, 986, 2911, 2448, 1122, 1888, 760, 697, 904, 2059, 1335, 1224]	12	Absent	NA	NA	ABSENT	0.3418910503387451	116.19011998176576	118.20462489128111	119.25456190109252	119.6051299571991	122.31483697891235	4.110212087631226	[116.20338797569275, 116.32026696205139, 117.30471205711365, 117.47159695625305, 118.23904299736023, 118.33903408050537, 118.45584797859192, 118.57283592224121, 118.68944907188416, 118.80627298355103, 118.9230089187622, 119.03990602493286, 119.15652298927307, 119.27354311943054, 119.3901720046997, 119.50715589523315, 119.62376189231873, 119.74069595336914, 119.85744404792786, 119.97436594963074, 120.09092307090759, 120.31483602523804]	[116.21096762034017, 116.32763428700683, 117.31063428700683, 117.47733428700684, 118.22733428700684, 118.3440009536735, 118.46066762034016, 118.57733428700682, 118.69400095367348, 118.81066762034014, 118.9273342870068, 119.04400095367346, 119.16066762034012, 119.27733428700678, 119.39400095367344, 119.5106676203401, 119.62733428700676, 119.74400095367342, 119.86066762034008, 119.97733428700674, 120.0940009536734, 120.32733428700674]	2021_Feb_05_1101	59.84194539283233	1	1
25	21	FALSE	NV	v	['G', 'N', 'B', 'S', 'C', 'R', 'A', 'X', 'V', 'E', 'P', 'Z', 'W', 'M', 'J', 'H']	[944, 1335, 760, 1731, 829, 1587, 697, 4000, 2245, 904, 1456, 2911, 2448, 1224, 1029, 986]	8	Present	NA	NA	PRESENT	0.14629197120666504	122.31392192840576	124.32092785835266	124.90450501441956	125.25444293022156	128.43120288848877	4.110275030136108	[122.32719111442566, 122.44355010986328, 123.42790293693542, 123.59464907646179, 124.34552001953125, 124.46249389648438, 124.57910490036011, 124.69609498977661, 124.81286311149597, 124.92973589897156, 125.04647397994995, 125.1631109714508, 125.27992606163025, 125.39683794975281, 125.51347994804382, 125.6303699016571, 125.74698495864868, 125.8640489578247, 125.98057508468628, 126.097580909729, 126.21426510810852, 126.43120288848877]	[122.32733428700674, 122.4440009536734, 123.4270009536734, 123.5937009536734, 124.3437009536734, 124.46036762034007, 124.57703428700673, 124.69370095367339, 124.81036762034005, 124.9270342870067, 125.04370095367337, 125.16036762034003, 125.27703428700669, 125.39370095367335, 125.51036762034, 125.62703428700667, 125.74370095367333, 125.86036762033999, 125.97703428700665, 126.0937009536733, 126.21036762033997, 126.4437009536733]	2021_Feb_05_1101	59.84194539283233	1	1
25	22	FALSE	NV	v	['T', 'M', 'S', 'V', 'N', 'B', 'A', 'E', 'Y', 'P', 'Z', 'X', 'R', 'G', 'W', 'J']	[1888, 1224, 1731, 2245, 1335, 760, 697, 904, 2670, 1456, 2911, 4000, 1587, 944, 2448, 1029]	12	Present	NA	NA	PRESENT	0.17575883865356445	128.43668580055237	130.43705892562866	131.4872088432312	131.83746886253357	134.54756999015808	4.110511064529419	[128.44996690750122, 128.5669400691986, 129.55130696296692, 129.71800994873047, 130.4688470363617, 130.5857129096985, 130.70240092277527, 130.81905388832092, 130.93601989746094, 131.05296897888184, 131.16968703269958, 131.286278963089, 131.4031400680542, 131.519877910614, 131.63707900047302, 131.75338411331177, 131.87015509605408, 131.98714590072632, 132.10402607917786, 132.22077989578247, 132.32071089744568, 132.54756903648376]	[128.4437009536733, 128.56036762033997, 129.54336762033998, 129.71006762033997, 130.46006762033997, 130.57673428700664, 130.69340095367332, 130.81006762034, 130.92673428700667, 131.04340095367334, 131.16006762034002, 131.2767342870067, 131.39340095367336, 131.51006762034004, 131.6267342870067, 131.7434009536734, 131.86006762034006, 131.97673428700674, 132.0934009536734, 132.21006762034008, 132.32673428700676, 132.56006762034008]	2021_Feb_05_1101	59.84194539283233	1	1
25	23	FALSE	NA	v	['A', 'N', 'J', 'V', 'Z', 'E', 'T', 'U', 'W', 'X', 'H', 'G', 'C', 'Y', 'P', 'K']	[697, 1335, 1029, 2245, 2911, 904, 1888, 2059, 2448, 4000, 986, 944, 829, 2670, 1456, 1122]	10	Present	NA	NA	PRESENT	0.13213205337524414	134.54336881637573	136.55324292182922	137.37053799629211	137.72029280662537	140.6639370918274	4.110694169998169	[134.5566370487213, 134.67322897911072, 135.65772104263306, 135.82442998886108, 136.57527208328247, 136.69228506088257, 136.8088800907135, 136.92575311660767, 137.04239797592163, 137.15953588485718, 137.27600407600403, 137.3930389881134, 137.50958704948425, 137.62651300430298, 137.74337792396545, 137.86014103889465, 137.97673988342285, 138.09349298477173, 138.21045804023743, 138.32732605934143, 138.4440369606018, 138.6639358997345]	[134.56006762034008, 134.67673428700675, 135.65973428700676, 135.82643428700675, 136.57643428700675, 136.69310095367342, 136.8097676203401, 136.92643428700677, 137.04310095367345, 137.15976762034012, 137.2764342870068, 137.39310095367347, 137.50976762034014, 137.62643428700682, 137.7431009536735, 137.85976762034016, 137.97643428700684, 138.0931009536735, 138.2097676203402, 138.32643428700686, 138.44310095367354, 138.67643428700686]	2021_Feb_05_1101	59.84194539283233	1	1
25	24	FALSE	NN	v	['A', 'M', 'G', 'S', 'Y', 'Z', 'R', 'J', 'V', 'U', 'H', 'T', 'N', 'E', 'C', 'W']	[697, 1224, 944, 1731, 2670, 2911, 1587, 1029, 2245, 2059, 986, 1888, 1335, 904, 829, 2448]	11	Absent	NA	NA	ABSENT	0.3527960777282715	140.66658902168274	142.66977095603943	143.6034688949585	143.95372986793518	146.7803020477295	4.1105310916900635	[140.67985606193542, 140.7964780330658, 141.78126001358032, 141.94776606559753, 142.698499917984, 142.8152470588684, 142.93221306800842, 143.0490369796753, 143.16581010818481, 143.2826108932495, 143.39930295944214, 143.51617288589478, 143.63289999961853, 143.74950098991394, 143.866446018219, 143.98315906524658, 144.1001091003418, 144.216717004776, 144.33375000953674, 144.45030093193054, 144.5672950744629, 144.7803020477295]	[140.67643428700686, 140.79310095367353, 141.77610095367353, 141.94280095367353, 142.69280095367353, 142.8094676203402, 142.92613428700687, 143.04280095367355, 143.15946762034022, 143.2761342870069, 143.39280095367357, 143.50946762034025, 143.62613428700692, 143.7428009536736, 143.85946762034027, 143.97613428700694, 144.09280095367362, 144.2094676203403, 144.32613428700697, 144.44280095367364, 144.5594676203403, 144.79280095367363]	2021_Feb_05_1101	59.84194539283233	1	1
25	25	FALSE	NA	v	['H', 'U', 'E', 'C', 'Z', 'T', 'P', 'S', 'M', 'W', 'V', 'R', 'X', 'N', 'J', 'A']	[986, 2059, 904, 829, 2911, 1888, 1456, 1731, 1224, 2448, 2245, 1587, 4000, 1335, 1029, 697]	13	Present	NA	NA	PRESENT	0.0780949592590332	146.77285981178284	148.7863118648529	149.95293188095093	150.30349588394165	152.89667105674744	4.110359191894531	[146.78612804412842, 146.90294408798218, 147.88740801811218, 148.0542390346527, 148.8216359615326, 148.92177891731262, 149.03853511810303, 149.15546298027039, 149.27207708358765, 149.3889639377594, 149.5058560371399, 149.62246799468994, 149.739275932312, 149.85606598854065, 149.97282910346985, 150.08985590934753, 150.2063798904419, 150.32335901260376, 150.44005799293518, 150.5568070411682, 150.67369508743286, 150.89666891098022]	[146.79280095367363, 146.9094676203403, 147.8924676203403, 148.0591676203403, 148.8091676203403, 148.92583428700698, 149.04250095367365, 149.15916762034033, 149.275834287007, 149.39250095367368, 149.50916762034035, 149.62583428700702, 149.7425009536737, 149.85916762034037, 149.97583428700705, 150.09250095367372, 150.2091676203404, 150.32583428700707, 150.44250095367374, 150.55916762034042, 150.6758342870071, 150.9091676203404]	2021_Feb_05_1101	59.84194539283233	1	1
25	26	FALSE	NA	v	['S', 'C', 'U', 'K', 'P', 'N', 'E', 'T', 'W', 'G', 'J', 'X', 'A', 'B', 'M', 'H']	[1731, 829, 2059, 1122, 1456, 1335, 904, 1888, 2448, 944, 1029, 4000, 697, 760, 1224, 986]	12	Present	NA	NA	PRESENT	0.1866319179534912	152.89657592773438	154.90259289741516	155.95285987854004	156.30262088775635	159.01303696632385	4.110444068908691	[152.90984511375427, 153.02634501457214, 154.01067304611206, 154.1775860786438, 154.9282100200653, 155.04517602920532, 155.1617820262909, 155.27880096435547, 155.39544796943665, 155.51236605644226, 155.6291720867157, 155.74596905708313, 155.86280298233032, 155.97928595542908, 156.09609293937683, 156.21283102035522, 156.3297278881073, 156.44638800621033, 156.56336402893066, 156.68017411231995, 156.79697394371033, 157.01303601264954]	[152.9091676203404, 153.0258342870071, 154.0088342870071, 154.17553428700708, 154.92553428700708, 155.04220095367376, 155.15886762034043, 155.2755342870071, 155.39220095367378, 155.50886762034045, 155.62553428700713, 155.7422009536738, 155.85886762034048, 155.97553428700715, 156.09220095367382, 156.2088676203405, 156.32553428700717, 156.44220095367385, 156.55886762034052, 156.6755342870072, 156.79220095367387, 157.0255342870072]	2021_Feb_05_1101	59.84194539283233	1	1
25	27	FALSE	NA	v	['Z', 'T', 'J', 'Y', 'B', 'G', 'C', 'X', 'V', 'N', 'P', 'K', 'U', 'E', 'H', 'A']	[2911, 1888, 1029, 2670, 760, 944, 829, 4000, 2245, 1335, 1456, 1122, 2059, 904, 986, 697]	8	Present	NA	NA	PRESENT	0.27999401092529297	159.01923084259033	161.0190348625183	161.6024990081787	161.9527668952942	165.12940311431885	4.110368251800537	[159.0324990749359, 159.1493489742279, 160.13402795791626, 160.3007791042328, 161.05146288871765, 161.16837406158447, 161.28514409065247, 161.40190196037292, 161.51880192756653, 161.6353919506073, 161.7524070739746, 161.86911296844482, 161.98592805862427, 162.10262393951416, 162.21943497657776, 162.33632707595825, 162.45301604270935, 162.56982588768005, 162.68676710128784, 162.80326390266418, 162.90337109565735, 163.12940311431885]	[159.0255342870072, 159.14220095367386, 160.12520095367387, 160.29190095367386, 161.04190095367386, 161.15856762034053, 161.2752342870072, 161.39190095367388, 161.50856762034056, 161.62523428700723, 161.7419009536739, 161.85856762034058, 161.97523428700725, 162.09190095367393, 162.2085676203406, 162.32523428700728, 162.44190095367395, 162.55856762034063, 162.6752342870073, 162.79190095367397, 162.90856762034065, 163.14190095367397]	2021_Feb_05_1101	59.84194539283233	1	1
25	28	FALSE	NV	v	['R', 'V', 'A', 'C', 'S', 'Y', 'U', 'X', 'H', 'P', 'T', 'J', 'K', 'E', 'M', 'B']	[1587, 2245, 697, 829, 1731, 2670, 2059, 4000, 986, 1456, 1888, 1029, 1122, 904, 1224, 760]	8	Present	NA	NA	PRESENT	0.18853306770324707	165.12608885765076	167.1349790096283	167.71905899047852	168.0690369606018	171.24576997756958	4.110790967941284	[165.13935708999634, 165.25591206550598, 166.24043488502502, 166.4070019721985, 167.15786504745483, 167.27483010292053, 167.39171504974365, 167.50851202011108, 167.62505102157593, 167.74202489852905, 167.85862803459167, 167.97556495666504, 168.09224200248718, 168.20918011665344, 168.32573199272156, 168.4425389766693, 168.5594298839569, 168.6763470172882, 168.7930829524994, 168.9097580909729, 169.0265769958496, 169.24576997756958]	[165.14190095367397, 165.25856762034064, 166.24156762034065, 166.40826762034064, 167.15826762034064, 167.2749342870073, 167.391600953674, 167.50826762034066, 167.62493428700733, 167.741600953674, 167.85826762034068, 167.97493428700736, 168.09160095367403, 168.2082676203407, 168.32493428700738, 168.44160095367405, 168.55826762034073, 168.6749342870074, 168.79160095367408, 168.90826762034075, 169.02493428700743, 169.25826762034075]	2021_Feb_05_1101	59.84194539283233	1	1
25	29	FALSE	NN	v	['N', 'P', 'E', 'C', 'M', 'K', 'Z', 'Y', 'R', 'J', 'S', 'B', 'U', 'W', 'T', 'H']	[1335, 1456, 904, 829, 1224, 1122, 2911, 2670, 1587, 1029, 1731, 760, 2059, 2448, 1888, 986]	11	Absent	NA	NA	PRESENT	0.3609318733215332	171.24894094467163	173.25158596038818	174.18531584739685	174.5352828502655	177.3621370792389	4.110551118850708	[171.26220893859863, 171.3791790008545, 172.36363196372986, 172.53049492835999, 173.28139805793762, 173.3980209827423, 173.51487398147583, 173.63162899017334, 173.74835109710693, 173.86517095565796, 173.9819929599762, 174.09861302375793, 174.21558594703674, 174.3322880268097, 174.44921588897705, 174.56610798835754, 174.68278789520264, 174.7994840145111, 174.91630005836487, 175.03294396400452, 175.14966893196106, 175.3621370792389]	[171.25826762034075, 171.37493428700742, 172.35793428700742, 172.52463428700742, 173.27463428700742, 173.3913009536741, 173.50796762034076, 173.62463428700744, 173.7413009536741, 173.8579676203408, 173.97463428700746, 174.09130095367414, 174.2079676203408, 174.32463428700748, 174.44130095367416, 174.55796762034083, 174.6746342870075, 174.79130095367418, 174.90796762034086, 175.02463428700753, 175.1413009536742, 175.37463428700752]	2021_Feb_05_1101	59.84194539283233	1	1
25	30	FALSE	NA	v	['C', 'A', 'U', 'S', 'T', 'V', 'W', 'H', 'R', 'B', 'X', 'Y', 'J', 'E', 'Z', 'M']	[829, 697, 2059, 1731, 1888, 2245, 2448, 986, 1587, 760, 4000, 2670, 1029, 904, 2911, 1224]	11	Present	NA	NA	PRESENT	0.13436102867126465	177.35543203353882	179.3680658340454	180.3018708229065	180.65176582336423	183.4785029888153	4.1104371547698975	[177.3686990737915, 177.48556303977966, 178.46999311447144, 178.63681888580322, 179.4044051170349, 179.50435495376587, 179.62117195129395, 179.73817992210388, 179.85489201545715, 179.97176694869995, 180.0883719921112, 180.2053689956665, 180.3220009803772, 180.43896007537842, 180.5555601119995, 180.67230105400085, 180.78915691375732, 180.9060640335083, 181.02282404899597, 181.13964009284973, 181.2563500404358, 181.47850108146667]	[177.37463428700752, 177.4913009536742, 178.4743009536742, 178.6410009536742, 179.3910009536742, 179.50766762034087, 179.62433428700754, 179.74100095367422, 179.8576676203409, 179.97433428700757, 180.09100095367424, 180.2076676203409, 180.3243342870076, 180.44100095367426, 180.55766762034094, 180.6743342870076, 180.79100095367428, 180.90766762034096, 181.02433428700763, 181.1410009536743, 181.25766762034098, 181.4910009536743]	2021_Feb_05_1101	59.84194539283233	1	1
25	31	FALSE	AV	v	['R', 'J', 'C', 'U', 'Z', 'H', 'V', 'surprise', 'W', 'P', 'X', 'N', 'M', 'B', 'A', 'G']	[1587, 1029, 829, 2059, 2911, 986, 2245, 'stimAuditory/all_stimAuditory/223.wav', 2448, 1456, 4000, 1335, 1224, 760, 697, 944]	11	Present	stimAuditory/all_stimAuditory/222.wav	stimVisual/all_stimVisual/123.jpg	PRESENT	0.1467130184173584	183.47915601730347	185.4844958782196	186.4182848930359	186.7678418159485	189.59487009048465	4.110374212265015	[183.49242305755615, 183.60895204544067, 184.59331107139587, 184.76009607315063, 185.51094508171082, 185.627760887146, 185.74446296691895, 185.86140298843384, 185.97797107696533, 186.09469509124756, 186.2117359638214, 186.3285210132599, 186.44532895088196, 186.56213307380676, 186.6789050102234, 186.79553294181824, 186.91247010231018, 187.02910900115967, 187.14602088928223, 187.2628870010376, 187.3795680999756, 187.59487104415894]	[183.4910009536743, 183.60766762034098, 184.59066762034098, 184.75736762034097, 185.50736762034097, 185.62403428700765, 185.74070095367432, 185.857367620341, 185.97403428700767, 186.09070095367434, 186.20736762034102, 186.3240342870077, 186.44070095367437, 186.55736762034104, 186.67403428700771, 186.7907009536744, 186.90736762034106, 187.02403428700774, 187.1407009536744, 187.25736762034109, 187.37403428700776, 187.60736762034108]	2021_Feb_05_1101	59.84194539283233	1	1
25	32	FALSE	NV	v	['S', 'P', 'H', 'J', 'T', 'R', 'M', 'C', 'Z', 'X', 'U', 'N', 'V', 'W', 'Y', 'B']	[1731, 1456, 986, 1029, 1888, 1587, 1224, 829, 2911, 4000, 2059, 1335, 2245, 2448, 2670, 760]	10	Present	NA	NA	PRESENT	0.24818181991577148	189.6019308567047	191.60050201416016	192.41762495040896	192.76805090904236	195.71123790740967	4.110735893249512	[189.6152000427246, 189.7321650981903, 190.69973397254944, 190.8665280342102, 191.63408994674683, 191.75096702575684, 191.8676199913025, 191.9845049381256, 192.10130906105042, 192.21818590164185, 192.3349690437317, 192.45154809951782, 192.56850004196167, 192.68575191497803, 192.8021559715271, 192.90198802947998, 193.0188660621643, 193.13561391830444, 193.252338886261, 193.36912608146667, 193.48600101470947, 193.71123695373535]	[189.60736762034108, 189.72403428700775, 190.70703428700776, 190.87373428700775, 191.62373428700775, 191.74040095367442, 191.8570676203411, 191.97373428700777, 192.09040095367445, 192.20706762034112, 192.3237342870078, 192.44040095367447, 192.55706762034114, 192.67373428700782, 192.7904009536745, 192.90706762034117, 193.02373428700784, 193.14040095367451, 193.2570676203412, 193.37373428700786, 193.49040095367454, 193.72373428700786]	2021_Feb_05_1101	59.84194539283233	1	1
25	33	FALSE	NA	v	['M', 'A', 'C', 'V', 'B', 'Z', 'K', 'U', 'X', 'E', 'J', 'R', 'Y', 'S', 'T', 'P']	[1224, 697, 829, 2245, 760, 2911, 1122, 2059, 4000, 904, 1029, 1587, 2670, 1731, 1888, 1456]	9	Present	NA	NA	PRESENT	0.22882890701293945	195.7083477973938	197.71716499328613	198.41732096672055	198.76732993125916	201.8276090621948	4.110444068908691	[195.72161602973938, 195.83867406845093, 196.82307195663452, 196.9897599220276, 197.7405059337616, 197.85752296447754, 197.97428488731384, 198.09109592437744, 198.2079439163208, 198.32463192939758, 198.44135904312134, 198.55802702903748, 198.674959897995, 198.79169607162476, 198.90864396095276, 199.02550792694092, 199.1422290802002, 199.25889801979065, 199.3758270740509, 199.49242210388184, 199.60927295684814, 199.82760190963745]	[195.72373428700786, 195.84040095367453, 196.82340095367454, 196.99010095367453, 197.74010095367453, 197.8567676203412, 197.97343428700788, 198.09010095367455, 198.20676762034122, 198.3234342870079, 198.44010095367457, 198.55676762034125, 198.67343428700792, 198.7901009536746, 198.90676762034127, 199.02343428700794, 199.14010095367462, 199.2567676203413, 199.37343428700797, 199.49010095367464, 199.60676762034132, 199.84010095367464]	2021_Feb_05_1101	59.84194539283233	1	1
25	34	FALSE	VN	v	['H', 'K', 'R', 'T', 'S', 'J', 'Y', 'surprise', 'P', 'M', 'C', 'G', 'E', 'B', 'U', 'N']	[986, 1122, 1587, 1888, 1731, 1029, 2670, 'stimAuditory/all_stimAuditory/217.wav', 1456, 1224, 829, 944, 904, 760, 2059, 1335]	11	Absent	NA	stimVisual/all_stimVisual/110.jpg	ABSENT	0.21012592315673828	201.83185386657715	203.83325386047363	204.7672069072723	205.1172318458557	207.94396996498108	4.110716104507446	[201.84513306617737, 201.96182799339294, 202.94637203216553, 203.11310505867004, 203.8637490272522, 203.9805269241333, 204.09735894203186, 204.2141399383545, 204.3310980796814, 204.4476659297943, 204.5647509098053, 204.68132305145264, 204.79835510253906, 204.91500306129456, 205.03165102005005, 205.148432970047, 205.2654640674591, 205.3820550441742, 205.49904203414917, 205.61578011512756, 205.71569800376892, 205.94396901130676]	[201.84010095367464, 201.9567676203413, 202.9397676203413, 203.1064676203413, 203.8564676203413, 203.97313428700798, 204.08980095367465, 204.20646762034133, 204.323134287008, 204.43980095367468, 204.55646762034135, 204.67313428700803, 204.7898009536747, 204.90646762034137, 205.02313428700805, 205.13980095367472, 205.2564676203414, 205.37313428700807, 205.48980095367475, 205.60646762034142, 205.7231342870081, 205.9564676203414]	2021_Feb_05_1101	59.84194539283233	1	1
25	35	FALSE	NN	v	['Y', 'C', 'B', 'P', 'E', 'M', 'G', 'V', 'T', 'Z', 'U', 'S', 'A', 'H', 'K', 'R']	[2670, 829, 760, 1456, 904, 1224, 944, 2245, 1888, 2911, 2059, 1731, 697, 986, 1122, 1587]	14	Absent	NA	NA	ABSENT	0.22258996963500977	207.9382438659668	209.9496958255768	211.23325300216675	211.58360481262207	214.0603370666504	4.110641241073608	[207.95151209831238, 208.06825709342957, 209.05286598205566, 209.21946001052856, 209.9869420528412, 210.08715891838074, 210.20379304885864, 210.32076001167297, 210.43755102157593, 210.55437588691711, 210.67117404937744, 210.78798389434814, 210.9045329093933, 211.021635055542, 211.13828492164612, 211.25494599342346, 211.37185192108154, 211.4884979724884, 211.60554003715515, 211.72234797477722, 211.8390190601349, 212.0603370666504]	[207.9564676203414, 208.0731342870081, 209.0561342870081, 209.22283428700808, 209.97283428700808, 210.08950095367476, 210.20616762034143, 210.3228342870081, 210.43950095367478, 210.55616762034145, 210.67283428700813, 210.7895009536748, 210.90616762034148, 211.02283428700815, 211.13950095367483, 211.2561676203415, 211.37283428700817, 211.48950095367485, 211.60616762034152, 211.7228342870082, 211.83950095367487, 212.0728342870082]	2021_Feb_05_1101	59.84194539283233	1	1
25	36	FALSE	NN	v	['M', 'P', 'W', 'Y', 'B', 'S', 'T', 'E', 'N', 'V', 'C', 'G', 'R', 'U', 'H', 'K']	[1224, 1456, 2448, 2670, 760, 1731, 1888, 904, 1335, 2245, 829, 944, 1587, 2059, 986, 1122]	10	Absent	NA	NA	ABSENT	0.8909728527069092	214.06165480613708	216.0663549900055	216.88320183753967	217.23352789878845	220.1767029762268	4.1103479862213135	[214.07492399215698, 214.19152092933655, 215.1759479045868, 215.3428249359131, 216.09342098236084, 216.21025800704956, 216.32710695266724, 216.4439458847046, 216.56077098846436, 216.6773579120636, 216.79440999031067, 216.91111397743225, 217.02796697616577, 217.14475202560425, 217.26156306266785, 217.378338098526, 217.4951720237732, 217.61173701286316, 217.72884702682495, 217.84534406661987, 217.96233010292053, 218.1767029762268]	[214.0728342870082, 214.18950095367487, 215.17250095367487, 215.33920095367486, 216.08920095367486, 216.20586762034154, 216.3225342870082, 216.43920095367488, 216.55586762034156, 216.67253428700823, 216.7892009536749, 216.90586762034158, 217.02253428700826, 217.13920095367493, 217.2558676203416, 217.37253428700828, 217.48920095367495, 217.60586762034163, 217.7225342870083, 217.83920095367498, 217.95586762034165, 218.18920095367497]	2021_Feb_05_1101	59.84194539283233	1	1
25	37	FALSE	VV	v	['P', 'Y', 'W', 'V', 'surprise', 'M', 'J', 'X', 'H', 'B', 'A', 'T', 'N', 'Z', 'K', 'C']	[1456, 2670, 2448, 2245, 'stimAuditory/all_stimAuditory/123.wav', 1224, 1029, 4000, 986, 760, 697, 1888, 1335, 2911, 1122, 829]	8	Present	NA	stimVisual/all_stimVisual/108.jpg	PRESENT	0.11239004135131836	220.18467497825625	222.18246483802795	222.76615285873413	223.1163468360901	226.29307007789612	4.110605239868164	[220.19794392585754, 220.29786109924316, 221.2825529575348, 221.44913911819458, 222.21677207946777, 222.3336489200592, 222.43348002433777, 222.56752705574036, 222.68384408950806, 222.78384494781494, 222.90061688423157, 223.01746797561646, 223.1342430114746, 223.2511351108551, 223.36786198616028, 223.48466110229492, 223.6014609336853, 223.71850609779358, 223.83503890037537, 223.952054977417, 224.06870102882385, 224.29306888580322]	[220.18920095367497, 220.30586762034164, 221.28886762034165, 221.45556762034164, 222.20556762034164, 222.3222342870083, 222.438900953675, 222.55556762034166, 222.67223428700834, 222.788900953675, 222.90556762034169, 223.02223428700836, 223.13890095367503, 223.2555676203417, 223.37223428700838, 223.48890095367506, 223.60556762034173, 223.7222342870084, 223.83890095367508, 223.95556762034175, 224.07223428700843, 224.30556762034175]	2021_Feb_05_1101	59.84194539283233	1	1
25	38	FALSE	NA	v	['G', 'W', 'P', 'M', 'J', 'S', 'Z', 'T', 'X', 'H', 'R', 'Y', 'K', 'N', 'U', 'B']	[944, 2448, 1456, 1224, 1029, 1731, 2911, 1888, 4000, 986, 1587, 2670, 1122, 1335, 2059, 760]	9	Present	NA	NA	PRESENT	0.5169339179992676	226.2911159992218	228.29875493049624	228.99939393997192	229.34906387329104	232.40943694114685	4.110682010650635	[226.3043839931488, 226.42120504379272, 227.4056839942932, 227.5724320411682, 228.32320499420166, 228.44011998176575, 228.5568389892578, 228.67376708984375, 228.79056000709534, 228.9071319103241, 229.02411794662476, 229.14074206352234, 229.25767588615417, 229.37452292442322, 229.49132990837097, 229.60790300369263, 229.72479796409607, 229.84160804748535, 229.95844101905823, 230.07510209083557, 230.1920669078827, 230.40943598747253]	[226.30556762034175, 226.42223428700842, 227.40523428700843, 227.57193428700842, 228.32193428700842, 228.4386009536751, 228.55526762034177, 228.67193428700844, 228.78860095367511, 228.9052676203418, 229.02193428700846, 229.13860095367514, 229.2552676203418, 229.3719342870085, 229.48860095367516, 229.60526762034183, 229.7219342870085, 229.83860095367518, 229.95526762034186, 230.07193428700853, 230.1886009536752, 230.42193428700853]	2021_Feb_05_1101	59.84194539283233	1	1
25	39	FALSE	NA	v	['U', 'B', 'S', 'M', 'Y', 'K', 'T', 'X', 'R', 'J', 'E', 'Z', 'V', 'H', 'A', 'W']	[2059, 760, 1731, 1224, 2670, 1122, 1888, 4000, 1587, 1029, 904, 2911, 2245, 986, 697, 2448]	8	Present	NA	NA	PRESENT	0.23432087898254397	232.41459584236145	234.41538786888125	234.99891996383667	235.3493049144745	238.52580404281616	4.1104161739349365	[232.42786407470703, 232.54457211494446, 233.52869510650635, 233.696053981781, 234.44656491279602, 234.56336307525635, 234.6801359653473, 234.7969810962677, 234.9135639667511, 235.0303180217743, 235.14710092544556, 235.26393389701843, 235.38094091415405, 235.49751210212708, 235.6146240234375, 235.7311749458313, 235.84794402122498, 235.96493291854858, 236.08148097991943, 236.1985149383545, 236.29836010932922, 236.52580308914185]	[232.42193428700853, 232.5386009536752, 233.5216009536752, 233.6883009536752, 234.4383009536752, 234.55496762034187, 234.67163428700854, 234.78830095367522, 234.9049676203419, 235.02163428700857, 235.13830095367524, 235.25496762034192, 235.3716342870086, 235.48830095367526, 235.60496762034194, 235.7216342870086, 235.8383009536753, 235.95496762034196, 236.07163428700864, 236.1883009536753, 236.30496762034198, 236.5383009536753]	2021_Feb_05_1101	59.84194539283233	1	1
25	40	FALSE	AV	v	['Y', 'H', 'U', 'W', 'G', 'T', 'surprise', 'Z', 'J', 'X', 'R', 'C', 'P', 'N', 'S', 'V']	[2670, 986, 2059, 2448, 944, 1888, 'stimAuditory/all_stimAuditory/211.wav', 2911, 1029, 4000, 1587, 829, 1456, 1335, 1731, 2245]	10	Present	stimAuditory/all_stimAuditory/109.wav	stimVisual/all_stimVisual/118.jpg	PRESENT	0.1425790786743164	238.52080082893372	240.53160095214844	241.34857392311096	241.69872093200684	244.64216995239255	4.110569000244141	[238.5340690612793, 238.65086197853088, 239.63549089431763, 239.8022119998932, 240.5528860092163, 240.66996693611145, 240.78649997711182, 240.90339303016663, 241.02023005485535, 241.13699102401733, 241.27037000656128, 241.37053203582764, 241.48739910125732, 241.60419607162476, 241.72102308273315, 241.83758091926575, 241.95463109016418, 242.07125210762024, 242.1882209777832, 242.30485200881958, 242.42175102233887, 242.64216995239258]	[238.5383009536753, 238.65496762034198, 239.63796762034198, 239.80466762034197, 240.55466762034197, 240.67133428700865, 240.78800095367532, 240.904667620342, 241.02133428700867, 241.13800095367534, 241.25466762034202, 241.3713342870087, 241.48800095367537, 241.60466762034204, 241.72133428700872, 241.8380009536754, 241.95466762034206, 242.07133428700874, 242.1880009536754, 242.3046676203421, 242.42133428700876, 242.65466762034208]	2021_Feb_05_1101	59.84194539283233	1	1
25	41	FALSE	NN	v	['V', 'M', 'E', 'B', 'P', 'H', 'A', 'U', 'J', 'T', 'C', 'K', 'S', 'R', 'N', 'Y']	[2245, 1224, 904, 760, 1456, 986, 697, 2059, 1029, 1888, 829, 1122, 1731, 1587, 1335, 2670]	8	Absent	NA	NA	ABSENT	0.21922683715820312	244.64433789253235	246.64814281463623	247.23178482055664	247.5817790031433	250.75853610038757	4.110393285751343	[244.65760588645935, 244.77431797981262, 245.75854110717773, 245.92537808418274, 246.67614793777466, 246.79289603233337, 246.90977811813354, 247.02642011642456, 247.1433620452881, 247.26019501686096, 247.37704610824585, 247.49354004859924, 247.61055493354797, 247.72733211517334, 247.84407997131348, 247.96093797683716, 248.07758808135986, 248.19446206092834, 248.311527967453, 248.42796301841736, 248.54479002952576, 248.7585380077362]	[244.65466762034208, 244.77133428700876, 245.75433428700876, 245.92103428700875, 246.67103428700875, 246.78770095367543, 246.9043676203421, 247.02103428700877, 247.13770095367545, 247.25436762034212, 247.3710342870088, 247.48770095367547, 247.60436762034215, 247.72103428700882, 247.8377009536755, 247.95436762034217, 248.07103428700884, 248.18770095367552, 248.3043676203422, 248.42103428700887, 248.53770095367554, 248.77103428700886]	2021_Feb_05_1101	59.84194539283233	1	1
25	42	FALSE	NN	v	['A', 'P', 'N', 'U', 'T', 'C', 'S', 'G', 'H', 'E', 'M', 'J', 'Z', 'R', 'K', 'Y']	[697, 1456, 1335, 2059, 1888, 829, 1731, 944, 986, 904, 1224, 1029, 2911, 1587, 1122, 2670]	12	Absent	NA	NA	ABSENT	0.3045499324798584	250.75049781799316	252.76421999931335	253.8149528503418	254.16486382484436	256.8749029636383	4.110682964324951	[250.76376509666443, 250.88055396080017, 251.86513805389404, 252.03192400932312, 252.7994899749756, 252.89936590194702, 253.01619696617126, 253.13288593292236, 253.24969696998596, 253.36649298667908, 253.48335790634155, 253.60012793540955, 253.71701002120972, 253.8337540626526, 253.95056700706482, 254.06728792190552, 254.18411993980408, 254.30087399482727, 254.41790008544922, 254.5344979763031, 254.6517789363861, 254.8749029636383]	[250.77103428700886, 250.88770095367553, 251.87070095367554, 252.03740095367553, 252.78740095367553, 252.9040676203422, 253.02073428700888, 253.13740095367555, 253.25406762034223, 253.3707342870089, 253.48740095367558, 253.60406762034225, 253.72073428700892, 253.8374009536756, 253.95406762034227, 254.07073428700895, 254.18740095367562, 254.3040676203423, 254.42073428700897, 254.53740095367564, 254.65406762034232, 254.88740095367564]	2021_Feb_05_1101	59.84194539283233	1	1
25	43	FALSE	NA	v	['N', 'A', 'M', 'V', 'Z', 'Y', 'C', 'R', 'U', 'E', 'K', 'J', 'W', 'X', 'H', 'G']	[1335, 697, 1224, 2245, 2911, 2670, 829, 1587, 2059, 904, 1122, 1029, 2448, 4000, 986, 944]	14	Present	NA	NA	PRESENT	0.2612271308898926	256.8737289905548	258.8805480003357	260.16452980041504	260.51436281204224	262.9912700653076	4.110722064971924	[256.8869969844818, 257.0040318965912, 257.98820090293884, 258.1551070213318, 258.9059410095215, 259.02256989479065, 259.13955211639404, 259.25639605522156, 259.37313508987427, 259.4900019168854, 259.6066839694977, 259.7233850955963, 259.84035205841064, 259.95701789855957, 260.07403802871704, 260.19052600860596, 260.3075420856476, 260.4241740703583, 260.54094195365906, 260.6579120159149, 260.7746880054474, 260.9912691116333]	[256.88740095367564, 257.0040676203423, 257.9870676203423, 258.1537676203423, 258.9037676203423, 259.020434287009, 259.13710095367566, 259.25376762034233, 259.370434287009, 259.4871009536757, 259.60376762034235, 259.720434287009, 259.8371009536757, 259.9537676203424, 260.07043428700905, 260.1871009536757, 260.3037676203424, 260.4204342870091, 260.53710095367575, 260.6537676203424, 260.7704342870091, 261.00376762034244]	2021_Feb_05_1101	59.84194539283233	1	1
25	44	FALSE	NA	v	['Z', 'V', 'M', 'N', 'K', 'A', 'T', 'S', 'Y', 'W', 'X', 'J', 'H', 'E', 'B', 'G']	[2911, 2245, 1224, 1335, 1122, 697, 1888, 1731, 2670, 2448, 4000, 1029, 986, 904, 760, 944]	11	Present	NA	NA	ABSENT	0.3623890876770019	262.9971339702606	264.99701499938965	265.9307198524475	266.28067994117737	269.10763692855835	4.110621929168701	[263.0104238986969, 263.12711906433105, 264.1114149093628, 264.2784209251404, 265.0295178890228, 265.14588809013367, 265.2628610134125, 265.37938499450684, 265.49637603759766, 265.6131820678711, 265.7299599647522, 265.8466980457306, 265.963515996933, 266.0801749229431, 266.1971731185913, 266.31391310691833, 266.4307289123535, 266.5474019050598, 266.66434693336487, 266.78110790252686, 266.88115406036377, 267.10763692855835]	[263.00376762034244, 263.1204342870091, 264.1034342870091, 264.2701342870091, 265.0201342870091, 265.1368009536758, 265.25346762034246, 265.37013428700914, 265.4868009536758, 265.6034676203425, 265.72013428700916, 265.83680095367583, 265.9534676203425, 266.0701342870092, 266.18680095367586, 266.30346762034253, 266.4201342870092, 266.5368009536759, 266.65346762034255, 266.7701342870092, 266.8868009536759, 267.12013428700925]	2021_Feb_05_1101	59.84194539283233	1	1
25	45	FALSE	NV	v	['W', 'S', 'H', 'U', 'V', 'R', 'Y', 'A', 'X', 'K', 'B', 'G', 'C', 'E', 'T', 'J']	[2448, 1731, 986, 2059, 2245, 1587, 2670, 697, 4000, 1122, 760, 944, 829, 904, 1888, 1029]	9	Present	NA	NA	PRESENT	0.24708104133605957	269.10346388816833	271.11363101005554	271.8136558532715	272.1639738082886	275.22400403022766	4.110373020172119	[269.1167321205139, 269.2336928844452, 270.2179260253906, 270.3846650123596, 271.135596036911, 271.25254106521606, 271.36922001838684, 271.48609709739685, 271.6028220653534, 271.7196900844574, 271.83639693260193, 271.95325207710266, 272.06997895240784, 272.1866900920868, 272.30362701416016, 272.4201879501343, 272.5373001098633, 272.6537799835205, 272.7708189487457, 272.8876359462738, 273.00440096855164, 273.22400307655334]	[269.12013428700925, 269.2368009536759, 270.21980095367593, 270.3865009536759, 271.1365009536759, 271.2531676203426, 271.36983428700927, 271.48650095367594, 271.6031676203426, 271.7198342870093, 271.83650095367597, 271.95316762034264, 272.0698342870093, 272.186500953676, 272.30316762034266, 272.41983428700934, 272.536500953676, 272.6531676203427, 272.76983428700936, 272.88650095367603, 273.0031676203427, 273.23650095367606]	2021_Feb_05_1101	59.84194539283233	1	1
25	46	FALSE	NV	v	['E', 'J', 'Z', 'Y', 'V', 'C', 'N', 'H', 'M', 'W', 'P', 'R', 'U', 'X', 'G', 'B']	[904, 1029, 2911, 2670, 2245, 829, 1335, 986, 1224, 2448, 1456, 1587, 2059, 4000, 944, 760]	14	Present	NA	NA	PRESENT	0.14779901504516602	275.227166891098	277.22997093200684	278.51342582702637	278.8650279045105	281.3403699398041	4.110399007797241	[275.2404360771179, 275.35690093040466, 276.3410658836365, 276.5080840587616, 277.2589030265808, 277.37551498413086, 277.4925389289856, 277.6093029975891, 277.72616696357727, 277.8429169654846, 277.95959305763245, 278.0762860774994, 278.1932919025421, 278.31006503105164, 278.4265739917755, 278.54344606399536, 278.6602280139923, 278.7772738933563, 278.8939530849457, 279.0108780860901, 279.12738704681396, 279.3403699398041]	[275.23650095367606, 275.35316762034273, 276.33616762034274, 276.5028676203427, 277.2528676203427, 277.3695342870094, 277.4862009536761, 277.60286762034275, 277.7195342870094, 277.8362009536761, 277.9528676203428, 278.06953428700945, 278.1862009536761, 278.3028676203428, 278.41953428700947, 278.53620095367614, 278.6528676203428, 278.7695342870095, 278.88620095367617, 279.00286762034284, 279.1195342870095, 279.35286762034286]	2021_Feb_05_1101	59.84194539283233	1	1
25	47	FALSE	NA	v	['E', 'Z', 'C', 'G', 'B', 'W', 'Y', 'K', 'N', 'X', 'A', 'P', 'U', 'H', 'V', 'S']	[904, 2911, 829, 944, 760, 2448, 2670, 1122, 1335, 4000, 697, 1456, 2059, 986, 2245, 1731]	10	Present	NA	NA	PRESENT	0.0809178352355957	281.3331940174103	283.3462839126587	284.1636188030243	284.513130903244	287.4567370414734	4.110453128814697	[281.3464720249176, 281.46327805519104, 282.4477028846741, 282.6146399974823, 283.38209104537964, 283.4820599555969, 283.59886598587036, 283.7156980037689, 283.83247089385986, 283.9493329524994, 284.06604194641113, 284.1827518939972, 284.2996549606323, 284.4163451194763, 284.5332329273224, 284.6502470970154, 284.76669788360596, 284.8837630748749, 285.00052094459534, 285.11713004112244, 285.23409509658813, 285.4567370414734]	[281.35286762034286, 281.46953428700954, 282.45253428700954, 282.61923428700953, 283.36923428700953, 283.4859009536762, 283.6025676203429, 283.71923428700956, 283.83590095367623, 283.9525676203429, 284.0692342870096, 284.18590095367625, 284.3025676203429, 284.4192342870096, 284.5359009536763, 284.65256762034295, 284.7692342870096, 284.8859009536763, 285.002567620343, 285.11923428700965, 285.2359009536763, 285.46923428700967]	2021_Feb_05_1101	59.84194539283233	1	1
25	48	FALSE	NA	v	['R', 'Z', 'W', 'C', 'S', 'P', 'J', 'M', 'X', 'E', 'T', 'H', 'N', 'G', 'U', 'A']	[1587, 2911, 2448, 829, 1731, 1456, 1029, 1224, 4000, 904, 1888, 986, 1335, 944, 2059, 697]	9	Present	NA	NA	PRESENT	0.06155896186828613	287.45655584335327	289.46251583099365	290.1630129814148	290.5132038593292	293.5731029510498	4.110587120056152	[287.46982288360596, 287.5866289138794, 288.57126808166504, 288.7377960681915, 289.488569021225, 289.6052188873291, 289.7223401069641, 289.8389389514923, 289.9558629989624, 290.07244992256165, 290.18948006629944, 290.3059639930725, 290.4229350090027, 290.5397229194641, 290.6565339565277, 290.77327489852905, 290.89022397994995, 291.0068259239197, 291.1235671043396, 291.2405879497528, 291.35722494125366, 291.57311391830444]	[287.46923428700967, 287.58590095367634, 288.56890095367635, 288.73560095367634, 289.48560095367634, 289.602267620343, 289.7189342870097, 289.83560095367636, 289.95226762034304, 290.0689342870097, 290.1856009536764, 290.30226762034306, 290.41893428700973, 290.5356009536764, 290.6522676203431, 290.76893428700976, 290.88560095367643, 291.0022676203431, 291.1189342870098, 291.23560095367645, 291.3522676203431, 291.5856009536765]	2021_Feb_05_1101	59.84194539283233	1	1
25	49	FALSE	NA	v	['G', 'S', 'Y', 'P', 'R', 'K', 'J', 'T', 'H', 'B', 'X', 'U', 'V', 'A', 'N', 'Z']	[944, 1731, 2670, 1456, 1587, 1122, 1029, 1888, 986, 760, 4000, 2059, 2245, 697, 1335, 2911]	11	Present	NA	NA	PRESENT	0.2906959056854248	293.57975697517395	295.57878398895264	296.51234889030457	296.8632299900055	299.6894700527191	4.1106860637664795	[293.59302592277527, 293.7097499370575, 294.67748403549194, 294.844064950943, 295.61174988746643, 295.7284300327301, 295.84549593925476, 295.96208691596985, 296.07898902893066, 296.1958439350128, 296.31268310546875, 296.4293489456177, 296.5459930896759, 296.6629710197449, 296.7796061038971, 296.89649391174316, 297.0130949020386, 297.13011288642883, 297.2300670146942, 297.34684896469116, 297.46385407447815, 297.6894690990448]	[293.5856009536765, 293.70226762034315, 294.68526762034315, 294.85196762034315, 295.60196762034315, 295.7186342870098, 295.8353009536765, 295.95196762034317, 296.06863428700984, 296.1853009536765, 296.3019676203432, 296.41863428700987, 296.53530095367654, 296.6519676203432, 296.7686342870099, 296.88530095367656, 297.00196762034324, 297.1186342870099, 297.2353009536766, 297.35196762034326, 297.46863428700993, 297.7019676203433]	2021_Feb_05_1101	59.84194539283233	1	1
25	50	FALSE	AA	v	['J', 'Y', 'N', 'T', 'A', 'E', 'P', 'H', 'M', 'K', 'surprise', 'W', 'V', 'X', 'U', 'S']	[1029, 2670, 1335, 1888, 697, 904, 1456, 986, 1224, 1122, 'stimAuditory/all_stimAuditory/114.wav', 2448, 2245, 4000, 2059, 1731]	14	Present	stimAuditory/all_stimAuditory/223.wav	stimVisual/all_stimVisual/220.jpg	PRESENT	0.3195769786834717	299.68628001213074	301.6954219341278	302.9790289402008	303.32923698425293	305.80583596229553	4.110414028167725	[299.6995470523834, 299.81635093688965, 300.80069303512573, 300.96748304367065, 301.718199968338, 301.83492493629456, 301.9519109725952, 302.06874895095825, 302.1855380535126, 302.30221009254456, 302.41901993751526, 302.53580808639526, 302.6525568962097, 302.7693340778351, 302.90272998809814, 303.00288796424866, 303.11994099617004, 303.2364480495453, 303.35346388816833, 303.470153093338, 303.58719396591187, 303.80583691596985]	[299.7019676203433, 299.81863428700996, 300.80163428700996, 300.96833428700995, 301.71833428700995, 301.8350009536766, 301.9516676203433, 302.06833428701, 302.18500095367665, 302.3016676203433, 302.41833428701, 302.5350009536767, 302.65166762034335, 302.76833428701, 302.8850009536767, 303.00166762034337, 303.11833428701004, 303.2350009536767, 303.3516676203434, 303.46833428701007, 303.58500095367674, 303.8183342870101]	2021_Feb_05_1101	59.84194539283233	1	1
25	51	FALSE	NN	v	['A', 'V', 'N', 'G', 'U', 'T', 'Y', 'M', 'H', 'P', 'S', 'B', 'E', 'R', 'K', 'Z']	[697, 2245, 1335, 944, 2059, 1888, 2670, 1224, 986, 1456, 1731, 760, 904, 1587, 1122, 2911]	12	Absent	NA	NA	ABSENT	0.4850149154663086	305.8097438812256	307.81159496307373	308.86189699172974	309.21194195747375	311.92220401763916	4.11060905456543	[305.82301211357117, 305.93954610824585, 306.92395401000977, 307.0906949043274, 307.84157490730286, 307.95819902420044, 308.0751268863678, 308.1917040348053, 308.3088150024414, 308.42560291290283, 308.5423560142517, 308.6593189239502, 308.77578806877136, 308.89261198043823, 309.0094850063324, 309.1262719631195, 309.2430009841919, 309.35983395576477, 309.4766991138458, 309.59349489212036, 309.69329810142517, 309.92220306396484]	[305.8183342870101, 305.93500095367676, 306.91800095367677, 307.08470095367676, 307.83470095367676, 307.95136762034343, 308.0680342870101, 308.1847009536768, 308.30136762034346, 308.41803428701013, 308.5347009536768, 308.6513676203435, 308.76803428701015, 308.8847009536768, 309.0013676203435, 309.1180342870102, 309.23470095367685, 309.3513676203435, 309.4680342870102, 309.5847009536769, 309.70136762034355, 309.9347009536769]	2021_Feb_05_1101	59.84194539283233	1	1
25	52	FALSE	NA	v	['M', 'J', 'Z', 'T', 'R', 'Y', 'H', 'B', 'X', 'U', 'G', 'V', 'C', 'P', 'E', 'W']	[1224, 1029, 2911, 1888, 1587, 2670, 986, 760, 4000, 2059, 944, 2245, 829, 1456, 904, 2448]	9	Present	NA	NA	PRESENT	0.04912996292114258	311.9161238670349	313.9281849861145	314.6283769607544	314.9785258769989	318.0385699272156	4.110384941101074	[311.9293909072876, 312.0460960865021, 313.0304009914398, 313.1971049308777, 313.964684009552, 314.06472611427307, 314.18155694007874, 314.29830288887024, 314.41524291038513, 314.5318319797516, 314.64875292778015, 314.7656669616699, 314.88245010375977, 314.9992699623108, 315.1159338951111, 315.2325439453125, 315.34957790374756, 315.46618604660034, 315.5832118988037, 315.7000811100006, 315.8167459964752, 316.03856897354126]	[311.9347009536769, 312.05136762034357, 313.0343676203436, 313.20106762034357, 313.95106762034357, 314.06773428701024, 314.1844009536769, 314.3010676203436, 314.41773428701026, 314.53440095367694, 314.6510676203436, 314.7677342870103, 314.88440095367696, 315.00106762034363, 315.1177342870103, 315.234400953677, 315.35106762034366, 315.46773428701033, 315.584400953677, 315.7010676203437, 315.81773428701035, 316.0510676203437]	2021_Feb_05_1101	59.84194539283233	1	1
25	53	FALSE	NA	v	['M', 'W', 'S', 'N', 'B', 'G', 'A', 'J', 'E', 'T', 'U', 'K', 'X', 'C', 'V', 'R']	[1224, 2448, 1731, 1335, 760, 944, 697, 1029, 904, 1888, 2059, 1122, 4000, 829, 2245, 1587]	13	Present	NA	NA	PRESENT	0.2778959274291992	318.03913593292236	320.0442018508911	321.2112309932709	321.5614528656006	324.1549370288849	4.110735177993774	[318.05240392684937, 318.16924691200256, 319.1534779071808, 319.3204929828644, 320.07115411758423, 320.1878550052643, 320.304927110672, 320.42161202430725, 320.53843808174133, 320.655100107193, 320.77202892303467, 320.8888199329376, 321.00565099716187, 321.12236309051514, 321.2392609119415, 321.3559548854828, 321.4728240966797, 321.5893249511719, 321.706444978714, 321.8230810165405, 321.9399139881134, 322.1549379825592]	[318.0510676203437, 318.1677342870104, 319.1507342870104, 319.31743428701037, 320.06743428701037, 320.18410095367705, 320.3007676203437, 320.4174342870104, 320.53410095367707, 320.65076762034374, 320.7674342870104, 320.8841009536771, 321.00076762034377, 321.11743428701044, 321.2341009536771, 321.3507676203438, 321.46743428701046, 321.58410095367714, 321.7007676203438, 321.8174342870105, 321.93410095367716, 322.1674342870105]	2021_Feb_05_1101	59.84194539283233	1	1
25	54	FALSE	NN	v	['G', 'Z', 'K', 'W', 'P', 'T', 'V', 'U', 'E', 'H', 'B', 'N', 'A', 'M', 'Y', 'C']	[944, 2911, 1122, 2448, 1456, 1888, 2245, 2059, 904, 986, 760, 1335, 697, 1224, 2670, 829]	11	Absent	NA	NA	ABSENT	0.36318111419677734	324.1624598503113	326.1604688167572	327.0947279930115	327.44437885284424	330.2713029384613	4.110834121704102	[324.17572808265686, 324.2923629283905, 325.25998091697693, 325.42677211761475, 326.1947720050812, 326.3113660812378, 326.4281499385834, 326.5449080467224, 326.66171002388, 326.7784790992737, 326.8951470851898, 327.01195001602173, 327.12872195243835, 327.2287800312042, 327.3455140590668, 327.4623050689697, 327.5790910720825, 327.69584703445435, 327.81265091896057, 327.92945408821106, 328.04642605781555, 328.271301984787]	[324.1674342870105, 324.2841009536772, 325.2671009536772, 325.4338009536772, 326.1838009536772, 326.30046762034385, 326.4171342870105, 326.5338009536772, 326.6504676203439, 326.76713428701055, 326.8838009536772, 327.0004676203439, 327.1171342870106, 327.23380095367725, 327.3504676203439, 327.4671342870106, 327.58380095367727, 327.70046762034394, 327.8171342870106, 327.9338009536773, 328.05046762034397, 328.2838009536773]	2021_Feb_05_1101	59.84194539283233	1	1
25	55	FALSE	NV	v	['T', 'E', 'J', 'N', 'V', 'C', 'R', 'K', 'M', 'W', 'U', 'Z', 'P', 'X', 'H', 'S']	[1888, 904, 1029, 1335, 2245, 829, 1587, 1122, 1224, 2448, 2059, 2911, 1456, 4000, 986, 1731]	14	Present	NA	NA	PRESENT	0.2796030044555664	330.2688817977905	332.27695393562317	333.56096386909485	333.9107439517975	336.3876700401306	4.110716104507446	[330.2821500301361, 330.3990559577942, 331.38317108154297, 331.5502669811249, 332.3008599281311, 332.4178819656372, 332.5346329212189, 332.6512269973755, 332.76825189590454, 332.8848669528961, 333.00183391571045, 333.1185610294342, 333.2353210449219, 333.3520200252533, 333.46897292137146, 333.585501909256, 333.7024040222168, 333.8192460536957, 333.93609404563904, 334.0527141094208, 334.1696538925171, 334.3876690864563]	[330.2838009536773, 330.400467620344, 331.383467620344, 331.550167620344, 332.300167620344, 332.41683428701066, 332.53350095367733, 332.650167620344, 332.7668342870107, 332.88350095367736, 333.00016762034403, 333.1168342870107, 333.2335009536774, 333.35016762034405, 333.4668342870107, 333.5835009536774, 333.7001676203441, 333.81683428701075, 333.9335009536774, 334.0501676203441, 334.1668342870108, 334.4001676203441]	2021_Feb_05_1101	59.84194539283233	1	1
25	56	FALSE	NA	v	['T', 'P', 'H', 'Z', 'S', 'J', 'C', 'A', 'U', 'V', 'R', 'X', 'Y', 'K', 'E', 'B']	[1888, 1456, 986, 2911, 1731, 1029, 829, 697, 2059, 2245, 1587, 4000, 2670, 1122, 904, 760]	12	Present	NA	NA	PRESENT	0.24501514434814453	336.3924059867859	338.3935749530792	339.44376587867737	339.7939398288727	342.50403690338135	4.110461950302124	[336.4056749343872, 336.52209210395813, 337.50657391548157, 337.6734700202942, 338.4241919517517, 338.54101300239563, 338.65769696235657, 338.77444410324097, 338.89142394065857, 339.00833010673523, 339.1250410079956, 339.24187994003296, 339.35855889320374, 339.4752690792084, 339.5921959877014, 339.7089719772339, 339.8256359100342, 339.94255805015564, 340.05901288986206, 340.1761360168457, 340.2760269641876, 340.50403690338135]	[336.4001676203441, 336.5168342870108, 337.4998342870108, 337.6665342870108, 338.4165342870108, 338.53320095367746, 338.64986762034414, 338.7665342870108, 338.8832009536775, 338.99986762034416, 339.11653428701084, 339.2332009536775, 339.3498676203442, 339.46653428701086, 339.58320095367753, 339.6998676203442, 339.8165342870109, 339.93320095367756, 340.04986762034423, 340.1665342870109, 340.2832009536776, 340.5165342870109]	2021_Feb_05_1101	59.84194539283233	1	1
25	57	FALSE	NA	v	['W', 'Y', 'G', 'H', 'J', 'P', 'K', 'U', 'A', 'T', 'R', 'X', 'Z', 'N', 'C', 'E']	[2448, 2670, 944, 986, 1029, 1456, 1122, 2059, 697, 1888, 1587, 4000, 2911, 1335, 829, 904]	12	Present	NA	NA	PRESENT	0.2893209457397461	342.4985499382019	344.5097908973694	345.5601968765259	345.91010880470276	348.62040400505066	4.110613107681274	[342.51183009147644, 342.6286950111389, 343.61298394203186, 343.7798900604248, 344.5305140018463, 344.64758491516113, 344.7643029689789, 344.8809130191803, 344.9978280067444, 345.1145191192627, 345.23146295547485, 345.34806394577026, 345.4650499820709, 345.5816900730133, 345.69897198677063, 345.81536388397217, 345.9323470592499, 346.0489580631256, 346.16588592529297, 346.2825610637665, 346.3992359638214, 346.620404958725]	[342.5165342870109, 342.6332009536776, 343.6162009536776, 343.7829009536776, 344.5329009536776, 344.64956762034427, 344.76623428701095, 344.8829009536776, 344.9995676203443, 345.11623428701097, 345.23290095367764, 345.3495676203443, 345.466234287011, 345.58290095367767, 345.69956762034434, 345.816234287011, 345.9329009536777, 346.04956762034436, 346.16623428701104, 346.2829009536777, 346.3995676203444, 346.63290095367773]	2021_Feb_05_1101	59.84194539283233	1	1
25	58	FALSE	NA	v	['U', 'W', 'G', 'H', 'V', 'S', 'J', 'C', 'M', 'K', 'X', 'Y', 'E', 'R', 'N', 'A']	[2059, 2448, 944, 986, 2245, 1731, 1029, 829, 1224, 1122, 4000, 2670, 904, 1587, 1335, 697]	11	Present	NA	NA	PRESENT	0.25409698486328125	348.6218149662018	350.62623500823975	351.56013584136963	351.9097259044647	354.7367699146271	4.110534906387329	[348.63508200645447, 348.75189304351807, 349.7362630367279, 349.9031949043274, 350.653804063797, 350.7705829143524, 350.887512922287, 351.0041780471802, 351.12111806869507, 351.2377300262451, 351.35446190834045, 351.4714560508728, 351.5880620479584, 351.7051410675049, 351.82193994522095, 351.93862795829773, 352.0553500652313, 352.17231607437134, 352.28901505470276, 352.4058198928833, 352.52254700660706, 352.7367699146271]	[348.63290095367773, 348.7495676203444, 349.7325676203444, 349.8992676203444, 350.6492676203444, 350.7659342870111, 350.88260095367775, 350.9992676203444, 351.1159342870111, 351.2326009536778, 351.34926762034445, 351.4659342870111, 351.5826009536778, 351.6992676203445, 351.81593428701115, 351.9326009536778, 352.0492676203445, 352.16593428701117, 352.28260095367784, 352.3992676203445, 352.5159342870112, 352.74926762034454]	2021_Feb_05_1101	59.84194539283233	1	1
25	59	FALSE	NN	v	['P', 'W', 'K', 'R', 'M', 'U', 'N', 'S', 'V', 'E', 'H', 'Z', 'G', 'A', 'J', 'T']	[1456, 2448, 1122, 1587, 1224, 2059, 1335, 1731, 2245, 904, 986, 2911, 944, 697, 1029, 1888]	10	Absent	NA	NA	ABSENT	0.33127498626708984	354.7449779510498	356.7425558567047	357.5598659515381	357.9095878601074	360.8531370162964	4.110581159591675	[354.7582459449768, 354.8581750392914, 355.84308195114136, 356.0094840526581, 356.77708196640015, 356.8769791126251, 356.9938280582428, 357.1105179786682, 357.227343082428, 357.3611569404602, 357.4610619544983, 357.57784390449524, 357.6946461200714, 357.8114550113678, 357.92817211151123, 358.0449559688568, 358.1617820262909, 358.2786419391632, 358.39532494544983, 358.51208996772766, 358.6290829181671, 358.85313606262207]	[354.74926762034454, 354.8659342870112, 355.8489342870112, 356.0156342870112, 356.7656342870112, 356.8823009536779, 356.99896762034456, 357.11563428701123, 357.2323009536779, 357.3489676203446, 357.46563428701126, 357.58230095367793, 357.6989676203446, 357.8156342870113, 357.93230095367795, 358.0489676203446, 358.1656342870113, 358.282300953678, 358.39896762034465, 358.5156342870113, 358.632300953678, 358.86563428701135]	2021_Feb_05_1101	59.84194539283233	1	1
25	60	FALSE	VV	v	['M', 'Z', 'P', 'J', 'K', 'A', 'U', 'C', 'H', 'V', 'surprise', 'N', 'S', 'X', 'T', 'G']	[1224, 2911, 1456, 1029, 1122, 697, 2059, 829, 986, 2245, 'stimAuditory/all_stimAuditory/215.wav', 1335, 1731, 4000, 1888, 944]	14	Present	NA	stimVisual/all_stimVisual/212.jpg	PRESENT	0.2958381175994873	360.8515818119049	362.8589680194855	364.1426019668579	364.49265789985657	366.9695029258728	4.110534906387329	[360.8648500442505, 360.9816610813141, 361.96591997146606, 362.1327450275421, 362.8835639953613, 363.0004940032959, 363.1172618865967, 363.2340819835663, 363.3507809638977, 363.4676339626312, 363.5843529701233, 363.7010700702667, 363.81798791885376, 363.93474197387695, 364.068510055542, 364.16820907592773, 364.2851390838623, 364.40175104141235, 364.51878094673157, 364.6355049610138, 364.7523190975189, 364.9695029258728]	[360.86563428701135, 360.982300953678, 361.965300953678, 362.132000953678, 362.882000953678, 362.9986676203447, 363.11533428701136, 363.23200095367804, 363.3486676203447, 363.4653342870114, 363.58200095367806, 363.69866762034474, 363.8153342870114, 363.9320009536781, 364.04866762034476, 364.16533428701143, 364.2820009536781, 364.3986676203448, 364.51533428701146, 364.63200095367813, 364.7486676203448, 364.98200095367815]	2021_Feb_05_1101	59.84194539283233	1	1
25	61	FALSE	NV	v	['R', 'S', 'B', 'N', 'A', 'T', 'M', 'X', 'W', 'H', 'C', 'P', 'Y', 'V', 'E', 'U']	[1587, 1731, 760, 1335, 697, 1888, 1224, 4000, 2448, 986, 829, 1456, 2670, 2245, 904, 2059]	8	Present	NA	NA	PRESENT	0.10128903388977052	366.97505497932434	368.9752399921417	369.5589818954468	369.90898990631104	373.0858700275421	4.110630035400391	[366.98832392692566, 367.1048541069031, 368.08920788764954, 368.25613808631897, 369.00663590431213, 369.1237471103668, 369.240385055542, 369.3573489189148, 369.47394704818726, 369.5907030105591, 369.7074770927429, 369.82451701164246, 369.9411470890045, 370.05800104141235, 370.1747899055481, 370.29165506362915, 370.4082770347595, 370.5251910686493, 370.6418180465698, 370.7585520744324, 370.8587119579315, 371.0858700275421]	[366.98200095367815, 367.0986676203448, 368.08166762034483, 368.2483676203448, 368.9983676203448, 369.1150342870115, 369.23170095367817, 369.34836762034485, 369.4650342870115, 369.5817009536782, 369.69836762034487, 369.81503428701154, 369.9317009536782, 370.0483676203449, 370.16503428701157, 370.28170095367824, 370.3983676203449, 370.5150342870116, 370.63170095367826, 370.74836762034494, 370.8650342870116, 371.09836762034496]	2021_Feb_05_1101	59.84194539283233	1	1
25	62	FALSE	NN	v	['V', 'G', 'Z', 'J', 'R', 'E', 'C', 'W', 'B', 'H', 'M', 'N', 'T', 'U', 'K', 'Y']	[2245, 944, 2911, 1029, 1587, 904, 829, 2448, 760, 986, 1224, 1335, 1888, 2059, 1122, 2670]	14	Absent	NA	NA	ABSENT	0.31365394592285156	373.0810978412628	375.09177684783936	376.3752717971802	376.7254028320313	379.2022368907929	4.110460042953491	[373.0943660736084, 373.21109104156494, 374.1954689025879, 374.36251306533813, 375.1131489276886, 375.23000597953796, 375.34688091278076, 375.46375608444214, 375.58050990104675, 375.6971459388733, 375.814208984375, 375.93092608451843, 376.04757499694824, 376.16444993019104, 376.281368970871, 376.39806509017944, 376.5147590637207, 376.63200306892395, 376.7484540939331, 376.8652889728546, 376.98209500312805, 377.20223593711853]	[373.09836762034496, 373.21503428701163, 374.19803428701164, 374.36473428701163, 375.11473428701163, 375.2314009536783, 375.348067620345, 375.46473428701165, 375.5814009536783, 375.698067620345, 375.8147342870117, 375.93140095367835, 376.048067620345, 376.1647342870117, 376.28140095367837, 376.39806762034505, 376.5147342870117, 376.6314009536784, 376.74806762034507, 376.86473428701174, 376.9814009536784, 377.21473428701177]	2021_Feb_05_1101	59.84194539283233	1	1
25	63	FALSE	NA	v	['C', 'V', 'K', 'Z', 'M', 'R', 'A', 'U', 'H', 'X', 'P', 'W', 'G', 'T', 'N', 'E']	[829, 2245, 1122, 2911, 1224, 1587, 697, 2059, 986, 4000, 1456, 2448, 944, 1888, 1335, 904]	10	Present	NA	NA	PRESENT	0.27829599380493164	379.2043788433075	381.2080388069153	382.0249409675598	382.37501287460327	385.31860399246216	4.110565185546875	[379.21766805648804, 379.3346140384674, 380.31900906562805, 380.4858660697937, 381.2364659309387, 381.3532929420471, 381.470006942749, 381.586807012558, 381.70372891426086, 381.82062101364136, 381.937096118927, 382.0541229248047, 382.17097997665405, 382.28775000572205, 382.4044830799103, 382.52125310897827, 382.6380920410156, 382.75488805770874, 382.87145805358887, 382.98831701278687, 383.10527992248535, 383.3186020851135]	[379.21473428701177, 379.33140095367844, 380.31440095367844, 380.48110095367844, 381.23110095367844, 381.3477676203451, 381.4644342870118, 381.58110095367846, 381.69776762034513, 381.8144342870118, 381.9311009536785, 382.04776762034516, 382.16443428701183, 382.2811009536785, 382.3977676203452, 382.51443428701185, 382.6311009536785, 382.7477676203452, 382.8644342870119, 382.98110095367855, 383.0977676203452, 383.3311009536786]	2021_Feb_05_1101	59.84194539283233	1	1
25	64	FALSE	AA	v	['E', 'W', 'C', 'U', 'P', 'surprise', 'Y', 'G', 'X', 'V', 'S', 'J', 'A', 'M', 'K', 'T']	[904, 2448, 829, 2059, 1456, 'stimAuditory/all_stimAuditory/221.wav', 2670, 944, 4000, 2245, 1731, 1029, 697, 1224, 1122, 1888]	9	Present	stimAuditory/all_stimAuditory/217.wav	stimVisual/all_stimVisual/100.jpg	PRESENT	0.24359607696533203	385.31081199646	387.3244128227234	388.02471590042114	388.3746418952942	391.4349699020386	4.1105570793151855	[385.32407999038696, 385.4408140182495, 386.4252281188965, 386.59215688705444, 387.3601291179657, 387.45965099334717, 387.57649302482605, 387.6932330131531, 387.81004309654236, 387.9435980319977, 388.04362893104553, 388.16048097610474, 388.27723693847656, 388.3940079212189, 388.511027097702, 388.6275990009308, 388.7446069717407, 388.86121892929077, 388.9782340526581, 389.09480595588684, 389.2118639945984, 389.43496894836426]	[385.3311009536786, 385.44776762034525, 386.43076762034525, 386.59746762034524, 387.34746762034524, 387.4641342870119, 387.5808009536786, 387.69746762034526, 387.81413428701194, 387.9308009536786, 388.0474676203453, 388.16413428701196, 388.28080095367864, 388.3974676203453, 388.514134287012, 388.63080095367866, 388.74746762034533, 388.864134287012, 388.9808009536787, 389.09746762034536, 389.21413428701203, 389.4474676203454]	2021_Feb_05_1101	59.84194539283233	1	1
25	65	FALSE	NA	v	['Y', 'E', 'V', 'K', 'W', 'U', 'M', 'R', 'G', 'A', 'T', 'Z', 'X', 'P', 'S', 'B']	[2670, 904, 2245, 1122, 2448, 2059, 1224, 1587, 944, 697, 1888, 2911, 4000, 1456, 1731, 760]	13	Present	NA	NA	PRESENT	0.24808502197265625	391.4342348575592	393.4407880306244	394.6083738803863	394.9579439163208	397.5513370037079	4.110548973083496	[391.4475018978119, 391.5641551017761, 392.5485351085663, 392.7154231071472, 393.4662539958954, 393.5829019546509, 393.6998929977417, 393.81667709350586, 393.93347096443176, 394.05014395713806, 394.166846036911, 394.2837870121002, 394.4005160331726, 394.5173718929291, 394.6342759132385, 394.7509870529175, 394.8675880432129, 394.98463106155396, 395.10123109817505, 395.2181770801544, 395.3348970413208, 395.55133605003357]	[391.4474676203454, 391.56413428701205, 392.54713428701206, 392.71383428701205, 393.46383428701205, 393.5805009536787, 393.6971676203454, 393.81383428701207, 393.93050095367875, 394.0471676203454, 394.1638342870121, 394.28050095367877, 394.39716762034544, 394.5138342870121, 394.6305009536788, 394.74716762034546, 394.86383428701214, 394.9805009536788, 395.0971676203455, 395.21383428701216, 395.33050095367884, 395.5638342870122]	2021_Feb_05_1101	59.84194539283233	1	1
25	66	FALSE	NV	v	['H', 'M', 'R', 'G', 'Z', 'A', 'C', 'V', 'U', 'Y', 'X', 'W', 'B', 'T', 'N', 'K']	[986, 1224, 1587, 944, 2911, 697, 829, 2245, 2059, 2670, 4000, 2448, 760, 1888, 1335, 1122]	11	Present	NA	NA	PRESENT	0.27738189697265625	397.5576570034027	399.55694699287415	400.4910988807678	400.8406939506531	403.6677029132843	4.110755920410156	[397.570925951004, 397.6874029636383, 398.67167711257935, 398.8385679721832, 399.58948397636414, 399.7061870098114, 399.8229238986969, 399.9399220943451, 400.05666399002075, 400.1734850406647, 400.2901248931885, 400.40710401535034, 400.5236449241638, 400.6406979560852, 400.757257938385, 400.8742399215698, 400.9910399913788, 401.10755801200867, 401.2247428894043, 401.34141302108765, 401.44159293174744, 401.66770195961]	[397.5638342870122, 397.68050095367886, 398.66350095367886, 398.83020095367885, 399.58020095367885, 399.69686762034553, 399.8135342870122, 399.9302009536789, 400.04686762034555, 400.1635342870122, 400.2802009536789, 400.3968676203456, 400.51353428701225, 400.6302009536789, 400.7468676203456, 400.86353428701227, 400.98020095367895, 401.0968676203456, 401.2135342870123, 401.33020095367897, 401.44686762034564, 401.680200953679]	2021_Feb_05_1101	59.84194539283233	1	1
25	67	FALSE	NV	v	['J', 'K', 'G', 'B', 'P', 'C', 'E', 'W', 'H', 'X', 'Y', 'Z', 'S', 'T', 'A', 'V']	[1029, 1122, 944, 760, 1456, 829, 904, 2448, 986, 4000, 2670, 2911, 1731, 1888, 697, 2245]	10	Present	NA	NA	PRESENT	0.12197995185852052	403.6639540195465	405.6734058856964	406.4907879829407	406.84066581726074	409.7840700149536	4.110664129257202	[403.6772220134735, 403.79381799697876, 404.778244972229, 404.9452838897705, 405.6959240436554, 405.8126800060272, 405.92960000038147, 406.0462849140167, 406.16315388679504, 406.27986311912537, 406.3968288898468, 406.5135600566864, 406.63065695762634, 406.74699211120605, 406.8637080192566, 406.9806339740753, 407.0976610183716, 407.2143540382385, 407.33098006248474, 407.4478840827942, 407.5646688938141, 407.7840690612793]	[403.680200953679, 403.79686762034567, 404.77986762034567, 404.94656762034566, 405.69656762034566, 405.81323428701234, 405.929900953679, 406.0465676203457, 406.16323428701236, 406.27990095367903, 406.3965676203457, 406.5132342870124, 406.62990095367905, 406.74656762034573, 406.8632342870124, 406.9799009536791, 407.09656762034575, 407.2132342870124, 407.3299009536791, 407.4465676203458, 407.56323428701245, 407.7965676203458]	2021_Feb_05_1101	59.84194539283233	1	1
25	68	FALSE	NV	v	['K', 'V', 'M', 'G', 'R', 'C', 'Y', 'U', 'X', 'A', 'H', 'Z', 'N', 'S', 'E', 'T']	[1122, 2245, 1224, 944, 1587, 829, 2670, 2059, 4000, 697, 986, 2911, 1335, 1731, 904, 1888]	9	Present	NA	NA	PRESENT	0.12662005424499512	409.7871468067169	411.7899568080902	412.49001002311707	412.8401789665222	415.90043592453	4.110479116439819	[409.8004620075226, 409.91703391075134, 410.90156602859497, 411.0683550834656, 411.8191339969635, 411.9359669685364, 412.052668094635, 412.1696500778198, 412.2863509654999, 412.40307903289795, 412.51989698410034, 412.63673090934753, 412.75347900390625, 412.87029910087585, 412.9869689941406, 413.10391211509705, 413.2206709384918, 413.33753204345703, 413.45438599586487, 413.571163892746, 413.6877861022949, 413.9004349708557]	[409.7965676203458, 409.9132342870125, 410.8962342870125, 411.06293428701247, 411.81293428701247, 411.92960095367914, 412.0462676203458, 412.1629342870125, 412.27960095367916, 412.39626762034584, 412.5129342870125, 412.6296009536792, 412.74626762034586, 412.86293428701254, 412.9796009536792, 413.0962676203459, 413.21293428701256, 413.32960095367923, 413.4462676203459, 413.5629342870126, 413.67960095367926, 413.9129342870126]	2021_Feb_05_1101	59.84194539283233	1	1
25	69	FALSE	NV	v	['A', 'N', 'B', 'V', 'W', 'R', 'H', 'E', 'C', 'X', 'Y', 'T', 'K', 'G', 'S', 'M']	[697, 1335, 760, 2245, 2448, 1587, 986, 904, 829, 4000, 2670, 1888, 1122, 944, 1731, 1224]	10	Present	NA	NA	PRESENT	0.29182004928588867	415.8935058116913	417.90604400634766	418.7230679988861	419.07341480255127	422.01680302619934	4.110759019851685	[415.9067840576172, 416.023540019989, 417.0082609653473, 417.17495703697205, 417.9425220489502, 418.0423800945282, 418.1593759059906, 418.2759790420532, 418.39282608032227, 418.50943303108215, 418.6262240409851, 418.7430520057678, 418.85985589027405, 418.976674079895, 419.0936269760132, 419.21021604537964, 419.32716703414917, 419.4440040588379, 419.56062602996826, 419.6776669025421, 419.7942819595337, 420.01680302619934]	[415.9129342870126, 416.0296009536793, 417.0126009536793, 417.1793009536793, 417.9293009536793, 418.04596762034595, 418.1626342870126, 418.2793009536793, 418.39596762034597, 418.51263428701265, 418.6293009536793, 418.745967620346, 418.86263428701267, 418.97930095367934, 419.095967620346, 419.2126342870127, 419.32930095367936, 419.44596762034604, 419.5626342870127, 419.6793009536794, 419.79596762034606, 420.0293009536794]	2021_Feb_05_1101	59.84194539283233	1	1
25	70	FALSE	NV	v	['T', 'C', 'G', 'P', 'M', 'K', 'Y', 'R', 'H', 'U', 'B', 'Z', 'V', 'X', 'A', 'J']	[1888, 829, 944, 1456, 1224, 1122, 2670, 1587, 986, 2059, 760, 2911, 2245, 4000, 697, 1029]	14	Present	NA	NA	PRESENT	0.25629401206970215	422.0169198513031	424.0227060317993	425.3066020011902	425.65635800361633	428.1331698894501	4.110463857650757	[422.03021001815796, 422.1467740535736, 423.13129591941833, 423.2981688976288, 424.04889011383057, 424.16571402549744, 424.282438993454, 424.3993589878082, 424.51594400405884, 424.63282203674316, 424.7497329711914, 424.86653304100037, 424.98312497138977, 425.1000339984894, 425.21665501594543, 425.3337709903717, 425.4503300189972, 425.5672149658203, 425.68395805358887, 425.80080699920654, 425.91764092445374, 426.1331698894501]	[422.0293009536794, 422.1459676203461, 423.1289676203461, 423.2956676203461, 424.0456676203461, 424.16233428701275, 424.27900095367943, 424.3956676203461, 424.5123342870128, 424.62900095367945, 424.7456676203461, 424.8623342870128, 424.9790009536795, 425.09566762034615, 425.2123342870128, 425.3290009536795, 425.44566762034617, 425.56233428701285, 425.6790009536795, 425.7956676203462, 425.91233428701287, 426.1456676203462]	2021_Feb_05_1101	59.84194539283233	1	1
25	71	FALSE	NV	v	['G', 'Y', 'T', 'R', 'Z', 'C', 'H', 'W', 'V', 'X', 'A', 'E', 'J', 'N', 'P', 'B']	[944, 2670, 1888, 1587, 2911, 829, 986, 2448, 2245, 4000, 697, 904, 1029, 1335, 1456, 760]	10	Present	NA	NA	PRESENT	0.2778041362762451	428.1404469013214	430.1389288902282	430.95586681365967	431.306135892868	434.2495369911194	4.110608100891113	[428.1537148952484, 428.27003502845764, 429.2375249862671, 429.4044098854065, 430.1720449924469, 430.28900504112244, 430.40563106536865, 430.52262902259827, 430.63938093185425, 430.7562050819397, 430.87297201156616, 430.98978209495544, 431.10647797584534, 431.2230679988861, 431.33993101119995, 431.4568829536438, 431.5734701156616, 431.6902639865875, 431.80728697776794, 431.90716791152954, 432.0239291191101, 432.2495369911194]	[428.1456676203462, 428.2623342870129, 429.2453342870129, 429.4120342870129, 430.1620342870129, 430.27870095367956, 430.39536762034624, 430.5120342870129, 430.6287009536796, 430.74536762034626, 430.86203428701293, 430.9787009536796, 431.0953676203463, 431.21203428701295, 431.32870095367963, 431.4453676203463, 431.562034287013, 431.67870095367965, 431.7953676203463, 431.912034287013, 432.0287009536797, 432.262034287013]	2021_Feb_05_1101	59.84194539283233	1	1
25	72	FALSE	NV	v	['Y', 'J', 'M', 'W', 'C', 'V', 'U', 'N', 'H', 'P', 'A', 'R', 'K', 'X', 'T', 'Z']	[2670, 1029, 1224, 2448, 829, 2245, 2059, 1335, 986, 1456, 697, 1587, 1122, 4000, 1888, 2911]	14	Present	NA	NA	PRESENT	0.2582669258117676	434.24664092063904	436.25527000427246	437.5392119884491	437.8888130187988	440.365905046463	4.110635042190552	[434.2599220275879, 434.37650990486145, 435.3609049320221, 435.52784395217896, 436.278608083725, 436.3953878879547, 436.51234197616577, 436.6290490627289, 436.745943069458, 436.8625319004059, 436.9793939590454, 437.09613394737244, 437.2127730846405, 437.3298330307007, 437.44659399986267, 437.56337809562683, 437.6804509162903, 437.7969810962677, 437.9136130809784, 438.0303590297699, 438.14714193344116, 438.3659129142761]	[434.262034287013, 434.3787009536797, 435.3617009536797, 435.5284009536797, 436.2784009536797, 436.39506762034637, 436.51173428701304, 436.6284009536797, 436.7450676203464, 436.86173428701306, 436.97840095367974, 437.0950676203464, 437.2117342870131, 437.32840095367976, 437.44506762034644, 437.5617342870131, 437.6784009536798, 437.79506762034646, 437.91173428701313, 438.0284009536798, 438.1450676203465, 438.37840095367983]	2021_Feb_05_1101	59.84194539283233	1	1
25	73	FALSE	VN	v	['G', 'R', 'W', 'A', 'J', 'Y', 'P', 'M', 'T', 'surprise', 'Z', 'E', 'N', 'V', 'S', 'U']	[944, 1587, 2448, 697, 1029, 2670, 1456, 1224, 1888, 'stimAuditory/all_stimAuditory/104.wav', 2911, 904, 1335, 2245, 1731, 2059]	13	Absent	NA	stimVisual/all_stimVisual/50.jpg	ABSENT	1.2957370281219482	440.36977982521057	442.37143301963806	443.53897881507874	443.8888750076294	446.4822690486908	4.110836029052734	[440.38304805755615, 440.49967193603516, 441.4843089580536, 441.6508278846741, 442.40179204940796, 442.51879596710205, 442.6354401111603, 442.7522358894348, 442.86886501312256, 442.9858510494232, 443.1025860309601, 443.21923208236694, 443.3362100124359, 443.4528489112854, 443.5698161125183, 443.6865999698639, 443.8033199310303, 443.9202480316162, 444.0369429588318, 444.153776884079, 444.25372791290283, 444.4822690486908]	[440.37840095367983, 440.4950676203465, 441.4780676203465, 441.6447676203465, 442.3947676203465, 442.5114342870132, 442.62810095367985, 442.7447676203465, 442.8614342870132, 442.97810095367987, 443.09476762034654, 443.2114342870132, 443.3281009536799, 443.44476762034657, 443.56143428701324, 443.6781009536799, 443.7947676203466, 443.91143428701326, 444.02810095367994, 444.1447676203466, 444.2614342870133, 444.49476762034664]	2021_Feb_05_1101	59.84194539283233	1	1
25	74	FALSE	NA	v	['W', 'E', 'Z', 'N', 'A', 'M', 'C', 'P', 'U', 'Y', 'J', 'K', 'G', 'X', 'S', 'B']	[2448, 904, 2911, 1335, 697, 1224, 829, 1456, 2059, 2670, 1029, 1122, 944, 4000, 1731, 760]	14	Present	NA	NA	PRESENT	0.3321230411529541	446.4763038158417	448.4881238937378	449.7720968723297	450.1220998764038	452.5986371040344	4.110513210296631	[446.48957204818726, 446.6061909198761, 447.59050011634827, 447.75791001319885, 448.52498602867126, 448.6250948905945, 448.74177598953247, 448.858647108078, 448.9755549430847, 449.092159986496, 449.20916295051575, 449.3257920742035, 449.44275403022766, 449.55929493904114, 449.6761429309845, 449.7931160926819, 449.90964698791504, 450.02667808532715, 450.1432828903198, 450.2602560520172, 450.3770830631256, 450.5986371040344]	[446.49476762034664, 446.6114342870133, 447.5944342870133, 447.7611342870133, 448.5111342870133, 448.62780095368, 448.74446762034665, 448.86113428701333, 448.97780095368, 449.0944676203467, 449.21113428701335, 449.32780095368, 449.4444676203467, 449.5611342870134, 449.67780095368005, 449.7944676203467, 449.9111342870134, 450.02780095368007, 450.14446762034675, 450.2611342870134, 450.3778009536801, 450.61113428701344]	2021_Feb_05_1101	59.84194539283233	1	1
25	75	FALSE	NA	v	['T', 'G', 'S', 'A', 'N', 'U', 'R', 'C', 'E', 'Y', 'H', 'J', 'X', 'V', 'B', 'P']	[1888, 944, 1731, 697, 1335, 2059, 1587, 829, 904, 2670, 986, 1029, 4000, 2245, 760, 1456]	13	Present	NA	NA	PRESENT	0.2404918670654297	452.59948086738586	454.6042368412018	455.77133989334106	456.12221693992615	458.7150030136109	4.110766172409058	[452.61274909973145, 452.72946310043335, 453.7137289047241, 453.88075590133667, 454.6313519477844, 454.7484691143036, 454.86529302597046, 454.9819610118866, 455.098601102829, 455.21558809280396, 455.3324410915375, 455.44919300079346, 455.56577491760254, 455.6825759410858, 455.79922103881836, 455.91628789901733, 456.0330219268799, 456.1498849391937, 456.2665650844574, 456.383416891098, 456.5002439022064, 456.71500301361084]	[452.61113428701344, 452.7278009536801, 453.7108009536801, 453.8775009536801, 454.6275009536801, 454.7441676203468, 454.86083428701346, 454.97750095368013, 455.0941676203468, 455.2108342870135, 455.32750095368016, 455.44416762034683, 455.5608342870135, 455.6775009536802, 455.79416762034685, 455.91083428701353, 456.0275009536802, 456.1441676203469, 456.26083428701355, 456.3775009536802, 456.4941676203469, 456.72750095368025]	2021_Feb_05_1101	59.84194539283233	1	1
25	76	FALSE	NV	v	['P', 'E', 'R', 'Z', 'C', 'Y', 'W', 'M', 'H', 'T', 'X', 'U', 'A', 'B', 'K', 'J']	[1456, 904, 1587, 2911, 829, 2670, 2448, 1224, 986, 1888, 4000, 2059, 697, 760, 1122, 1029]	11	Present	NA	NA	PRESENT	0.15800213813781738	458.7230339050293	460.7210400104522	461.6546959877014	462.00468397140503	464.83137011528015	4.110330104827881	[458.7363030910492, 458.8526999950409, 459.8202929496765, 459.98731994628906, 460.75480794906616, 460.87138390541077, 460.98820209503174, 461.1052420139313, 461.2218499183655, 461.3217930793762, 461.4556438922882, 461.55553102493286, 461.68916606903076, 461.7890589237213, 461.90571904182434, 462.0225250720978, 462.1393599510193, 462.2562210559845, 462.37297892570496, 462.48974895477295, 462.6066279411316, 462.83137011528015]	[458.72750095368025, 458.8441676203469, 459.8271676203469, 459.9938676203469, 460.7438676203469, 460.8605342870136, 460.97720095368027, 461.09386762034694, 461.2105342870136, 461.3272009536803, 461.44386762034696, 461.56053428701364, 461.6772009536803, 461.793867620347, 461.91053428701366, 462.02720095368034, 462.143867620347, 462.2605342870137, 462.37720095368036, 462.49386762034703, 462.6105342870137, 462.84386762034705]	2021_Feb_05_1101	59.84194539283233	1	1
25	77	FALSE	NV	v	['N', 'Z', 'S', 'U', 'A', 'J', 'M', 'R', 'P', 'X', 'B', 'G', 'Y', 'V', 'H', 'C']	[1335, 2911, 1731, 2059, 697, 1029, 1224, 1587, 1456, 4000, 760, 944, 2670, 2245, 986, 829]	10	Present	NA	NA	PRESENT	0.3385651111602783	464.8292198181152	466.83715081214905	467.6543188095093	468.0040910243988	470.9477369785309	4.110586166381836	[464.84248900413513, 464.95921897888184, 465.9435410499573, 466.11040711402893, 466.86112093925476, 466.9781301021576, 467.09484004974365, 467.2117130756378, 467.32828998565674, 467.44528698921204, 467.5619099140167, 467.67878794670105, 467.79547691345215, 467.9124939441681, 468.0290639400482, 468.1460220813751, 468.2633879184723, 468.37962889671326, 468.4963059425354, 468.6135060787201, 468.7298409938812, 468.94773602485657]	[464.84386762034705, 464.96053428701373, 465.94353428701373, 466.1102342870137, 466.8602342870137, 466.9769009536804, 467.0935676203471, 467.21023428701375, 467.3269009536804, 467.4435676203471, 467.56023428701377, 467.67690095368044, 467.7935676203471, 467.9102342870138, 468.02690095368047, 468.14356762034714, 468.2602342870138, 468.3769009536805, 468.49356762034716, 468.61023428701384, 468.7269009536805, 468.96023428701386]	2021_Feb_05_1101	59.84194539283233	1	1
25	78	FALSE	NN	v	['S', 'V', 'P', 'E', 'K', 'Y', 'H', 'W', 'J', 'U', 'Z', 'R', 'C', 'A', 'B', 'T']	[1731, 2245, 1456, 904, 1122, 2670, 986, 2448, 1029, 2059, 2911, 1587, 829, 697, 760, 1888]	8	Absent	NA	NA	ABSENT	0.42385101318359375	470.9525170326233	472.9534449577331	473.5372169017792	473.8873620033264	477.0641028881073	4.1106579303741455	[470.96580696105957, 471.0824830532074, 472.0669300556183, 472.23347210884094, 472.9843969345093, 473.1012840270996, 473.21811294555664, 473.3347179889679, 473.45158791542053, 473.56844902038574, 473.6851398944855, 473.8021149635315, 473.9188289642334, 474.0357139110565, 474.15241408348083, 474.2691390514374, 474.38595700263977, 474.5028569698334, 474.61969089508057, 474.7362411022186, 474.8362820148468, 475.064101934433]	[470.96023428701386, 471.07690095368054, 472.05990095368054, 472.22660095368053, 472.97660095368053, 473.0932676203472, 473.2099342870139, 473.32660095368055, 473.4432676203472, 473.5599342870139, 473.6766009536806, 473.79326762034725, 473.9099342870139, 474.0266009536806, 474.1432676203473, 474.25993428701395, 474.3766009536806, 474.4932676203473, 474.60993428701397, 474.72660095368065, 474.8432676203473, 475.07660095368067]	2021_Feb_05_1101	59.84194539283233	1	1
25	79	FALSE	NN	v	['V', 'W', 'C', 'S', 'U', 'J', 'T', 'B', 'P', 'K', 'R', 'H', 'E', 'G', 'M', 'A']	[2245, 2448, 829, 1731, 2059, 1029, 1888, 760, 1456, 1122, 1587, 986, 904, 944, 1224, 697]	14	Absent	NA	NA	ABSENT	0.7323508262634277	477.0588278770447	479.0698130130768	480.35353779792786	480.70372796058655	483.1804699897766	4.110656976699829	[477.0720970630646, 477.1889879703522, 478.1732430458069, 478.34022307395935, 479.0910859107971, 479.2076768875122, 479.3246040344238, 479.44131994247437, 479.55798506736755, 479.6748640537262, 479.7918310165405, 479.9085600376129, 480.0252630710602, 480.14220809936523, 480.25904393196106, 480.3757529258728, 480.49233293533325, 480.6093339920044, 480.725949048996, 480.8428781032562, 480.95956897735596, 481.1804709434509]	[477.07660095368067, 477.19326762034734, 478.17626762034735, 478.34296762034734, 479.09296762034734, 479.209634287014, 479.3263009536807, 479.44296762034736, 479.55963428701403, 479.6763009536807, 479.7929676203474, 479.90963428701406, 480.02630095368073, 480.1429676203474, 480.2596342870141, 480.37630095368075, 480.49296762034743, 480.6096342870141, 480.7263009536808, 480.84296762034745, 480.9596342870141, 481.1929676203475]	2021_Feb_05_1101	59.84194539283233	1	1
