participant	trial_num	practice	task	condition	RSVP	RAP	probePos	probe_presence	surprise_sound	surprise_img	probe_response	probe_resp_time	first_fixation_time	trial_start_time	surprise_start_time	probe_start_time	trial_end_time	trial_duration	actualEventTimes	plannedEventTimes	date	framerate	marker_vol	RAP_vol
18	1	FALSE	NV	a	['N', 'H', 'P', 'K', 'B', 'T', 'Z', 'C', 'X', 'M', 'A', 'S', 'W', 'V', 'Y', 'G']	[1335, 986, 1456, 1122, 760, 1888, 2911, 829, 4000, 1224, 697, 1731, 2448, 2245, 2670, 944]	9	Present	NA	NA	PRESENT	0.2854299545288086	1.9073486328125e-6	2.0008089542388916	2.7008180141048976	3.05081992143353	6.103869915008545	4.103060960769653	[0.008826017379760742, 0.1256101131439209, 1.0871939659118652, 1.260343074798584, 2.028012990951538, 2.1277410984039307, 2.2447309494018555, 2.3614721298217773, 2.478163003921509, 2.595000982284546, 2.7116858959198, 2.828695058822632, 2.9452850818634033, 3.062324047088623, 3.179037094116211, 3.2957980632781982, 3.4124670028686523, 3.529541015625, 3.6462531089782715, 3.76311993598938, 3.87973690032959, 4.10387110710144]	[9.5367431640625e-07, 0.11666762033431641, 1.0996676203343163, 1.2663676203343164, 2.016367620334316, 2.133034286994316, 2.249700953654316, 2.3663676203143162, 2.4830342869743163, 2.5997009536343163, 2.7163676202943163, 2.8330342869543164, 2.9497009536143164, 3.0663676202743164, 3.1830342869343164, 3.2997009535943165, 3.4163676202543165, 3.5330342869143165, 3.6497009535743166, 3.7663676202343166, 3.8830342868943166, 4.11636762022765]	2021_Feb_01_1415	59.92581966978894	1	0.375
18	2	FALSE	NV	a	['N', 'J', 'A', 'K', 'P', 'V', 'E', 'Z', 'B', 'M', 'S', 'X', 'H', 'Y', 'R', 'G']	[1335, 1029, 697, 1122, 1456, 2245, 904, 2911, 760, 1224, 1731, 4000, 986, 2670, 1587, 944]	12	Present	NA	NA	PRESENT	0.22618889808654785	6.106679916381836	8.11427903175354	9.164286899506653	9.51428999892818	12.22023606300354	4.10595703125	[6.1155030727386475, 6.232340097427368, 7.20356011390686, 7.383466005325317, 8.134443044662476, 8.25102710723877, 8.36784291267395, 8.484807968139648, 8.60145092010498, 8.718322038650513, 8.835186958312988, 8.951815128326416, 9.06867003440857, 9.185631036758423, 9.302200078964233, 9.419121980667114, 9.535989046096802, 9.652760982513428, 9.76944899559021, 9.88625192642212, 10.003037929534912, 10.220237016677856]	[6.11636762022765, 6.23303428688765, 7.216034286887649, 7.382734286887649, 8.132734286887649, 8.24940095354765, 8.36606762020765, 8.48273428686765, 8.59940095352765, 8.716067620187651, 8.832734286847652, 8.949400953507652, 9.066067620167653, 9.182734286827653, 9.299400953487654, 9.416067620147654, 9.532734286807655, 9.649400953467655, 9.766067620127656, 9.882734286787656, 9.999400953447656, 10.232734286780989]	2021_Feb_01_1415	59.92581966978894	1	0.375
18	3	FALSE	NV	a	['A', 'V', 'T', 'W', 'C', 'E', 'G', 'Z', 'X', 'U', 'S', 'K', 'M', 'B', 'Y', 'N']	[697, 2245, 1888, 2448, 829, 904, 944, 2911, 4000, 2059, 1731, 1122, 1224, 760, 2670, 1335]	9	Present	NA	NA	ABSENT	0.26349902153015137	12.23035192489624	14.230374097824097	14.930384111364418	15.280386018693052	18.336602926254272	4.106228828430176	[12.239176034927368, 12.355688095092773, 13.319921016693115, 13.506829977035522, 14.257636070251465, 14.374336957931519, 14.49122405052185, 14.591140985488892, 14.70805811882019, 14.824697971343994, 14.941504001617432, 15.05839490890503, 15.175169944763184, 15.291985034942627, 15.40877103805542, 15.52555799484253, 15.642300128936768, 15.759052038192749, 15.875891923904419, 15.992698907852173, 16.109501123428345, 16.336601972579956]	[12.232734286780989, 12.34940095344099, 13.33240095344099, 13.49910095344099, 14.24910095344099, 14.365767620100991, 14.482434286760991, 14.599100953420992, 14.715767620080992, 14.832434286740993, 14.949100953400993, 15.065767620060994, 15.182434286720994, 15.299100953380995, 15.415767620040995, 15.532434286700996, 15.649100953360996, 15.765767620020997, 15.882434286680997, 15.999100953340998, 16.115767620000998, 16.349100953334332]	2021_Feb_01_1415	59.92581966978894	1	0.375
18	4	FALSE	NN	a	['T', 'R', 'E', 'A', 'S', 'V', 'Y', 'H', 'P', 'C', 'B', 'U', 'K', 'M', 'N', 'Z']	[1888, 1587, 904, 697, 1731, 2245, 2670, 986, 1456, 829, 760, 2059, 1122, 1224, 1335, 2911]	12	Absent	NA	NA	ABSENT	0.2759370803833008	18.33659601211548	20.346909999847412	21.3969181060191	21.746920013347733	24.452969074249268	4.1060590744018555	[18.345420122146606, 18.46208691596985, 19.436291933059692, 19.613476037979126, 20.364162921905518, 20.481048107147217, 20.597673892974854, 20.714700937271118, 20.83140993118286, 20.948336124420166, 21.0649631023407, 21.181806087493896, 21.298471927642822, 21.415235996246338, 21.532077074050903, 21.648956060409546, 21.765674114227295, 21.882445096969604, 21.999522924423218, 22.115973949432373, 22.2329580783844, 22.452969074249268]	[18.349100953334332, 18.46576761999433, 19.44876761999433, 19.61546761999433, 20.36546761999433, 20.48213428665433, 20.598800953314328, 20.715467619974326, 20.832134286634325, 20.948800953294324, 21.065467619954322, 21.18213428661432, 21.29880095327432, 21.41546761993432, 21.532134286594317, 21.648800953254316, 21.765467619914315, 21.882134286574313, 21.998800953234312, 22.11546761989431, 22.23213428655431, 22.465467619887644]	2021_Feb_01_1415	59.92581966978894	1	0.375
18	5	FALSE	NN	a	['E', 'S', 'V', 'G', 'N', 'K', 'M', 'U', 'R', 'W', 'J', 'P', 'C', 'H', 'Z', 'B']	[904, 1731, 2245, 944, 1335, 1122, 1224, 2059, 1587, 2448, 1029, 1456, 829, 986, 2911, 760]	9	Absent	NA	NA	ABSENT	0.3364078998565674	24.4597589969635	26.46316409111023	27.16317195888334	27.51317410463055	30.569337129592896	4.106173038482666	[24.468581914901733, 24.585529088974, 25.552658081054688, 25.73660111427307, 26.48739194869995, 26.604339122772217, 26.72104811668396, 26.837799072265625, 26.954567909240723, 27.07159996032715, 27.18845510482788, 27.305083990097046, 27.4218111038208, 27.538672924041748, 27.65546989440918, 27.77214002609253, 27.888848066329956, 28.005844116210938, 28.12275505065918, 28.23935604095459, 28.35628390312195, 28.569337129592896]	[24.465467619887644, 24.582134286547642, 25.565134286547643, 25.73183428654764, 26.48183428654764, 26.59850095320764, 26.71516761986764, 26.831834286527638, 26.948500953187636, 27.065167619847635, 27.181834286507634, 27.298500953167633, 27.41516761982763, 27.53183428648763, 27.64850095314763, 27.765167619807627, 27.881834286467626, 27.998500953127625, 28.115167619787623, 28.231834286447622, 28.34850095310762, 28.581834286440955]	2021_Feb_01_1415	59.92581966978894	1	0.375
18	6	FALSE	NA	a	['S', 'G', 'C', 'H', 'M', 'W', 'T', 'B', 'V', 'X', 'J', 'P', 'Z', 'R', 'K', 'Y']	[1731, 944, 829, 986, 1224, 2448, 1888, 760, 2245, 4000, 1029, 1456, 2911, 1587, 1122, 2670]	10	Present	NA	NA	PRESENT	0.23771905899047852	30.566317081451416	32.579444885253906	33.3961196581056	33.74612061175991	36.68570399284363	4.106259107589722	[30.57513999938965, 30.691881895065308, 31.669027090072632, 31.843310117721558, 32.59428596496582, 32.71098208427429, 32.82753801345825, 32.9445059299469, 33.06128001213074, 33.17813992500305, 33.2948100566864, 33.41168212890625, 33.52825689315796, 33.64529204368591, 33.76191210746765, 33.878894090652466, 33.99553990364075, 34.112457036972046, 34.229137897491455, 34.345909118652344, 34.462817907333374, 34.68570399284363]	[30.581834286440955, 30.698500953100954, 31.681500953100954, 31.848200953100953, 32.59820095310096, 32.71486761976096, 32.83153428642096, 32.94820095308096, 33.064867619740966, 33.18153428640097, 33.29820095306097, 33.41486761972097, 33.531534286380975, 33.64820095304098, 33.76486761970098, 33.88153428636098, 33.998200953020984, 34.114867619680986, 34.23153428634099, 34.34820095300099, 34.46486761966099, 34.69820095299433]	2021_Feb_01_1415	59.92581966978894	1	0.375
18	7	FALSE	NV	a	['T', 'B', 'N', 'G', 'K', 'Y', 'R', 'X', 'H', 'M', 'J', 'C', 'Z', 'S', 'E', 'W']	[1888, 760, 1335, 944, 1122, 2670, 1587, 4000, 986, 1224, 1029, 829, 2911, 1731, 904, 2448]	8	Present	NA	NA	PRESENT	0.2422161102294922	36.689615964889526	38.69565391540527	39.27899535493696	39.62899726226559	42.80206894874573	4.106415033340454	[36.69845199584961, 36.815463066101074, 37.78539204597473, 37.96646308898926, 38.71729612350464, 38.834177017211914, 38.95091509819031, 39.06779408454895, 39.18453812599182, 39.30125403404236, 39.4181170463562, 39.535073041915894, 39.65161108970642, 39.76839303970337, 39.885234117507935, 40.00252294540405, 40.11899995803833, 40.2358500957489, 40.35243797302246, 40.469130992889404, 40.5861439704895, 40.80206894874573]	[36.69820095299433, 36.81486761965433, 37.797867619654326, 37.964567619654325, 38.714567619654325, 38.83123428631433, 38.94790095297433, 39.06456761963433, 39.181234286294334, 39.297900952954336, 39.41456761961434, 39.53123428627434, 39.64790095293434, 39.764567619594345, 39.88123428625435, 39.99790095291435, 40.11456761957435, 40.231234286234354, 40.347900952894356, 40.46456761955436, 40.58123428621436, 40.814567619547695]	2021_Feb_01_1415	59.92581966978894	1	0.375
18	8	FALSE	NV	a	['N', 'R', 'Y', 'V', 'S', 'Z', 'K', 'M', 'H', 'E', 'W', 'P', 'X', 'J', 'B', 'C']	[1335, 1587, 2670, 2245, 1731, 2911, 1122, 1224, 986, 904, 2448, 1456, 4000, 1029, 760, 829]	13	Present	NA	NA	PRESENT	0.28770995140075684	42.81333589553833	44.81226992607117	45.97894374522854	46.328945652557174	48.918437004089355	4.1061670780181885	[42.822160959243774, 42.938652992248535, 43.901758909225464, 44.073009967803955, 44.840667963027954, 44.940792083740234, 45.05746412277222, 45.1742730140686, 45.291067123413086, 45.40792107582092, 45.52489495277405, 45.641560077667236, 45.75813412666321, 45.8751699924469, 45.9919490814209, 46.10875105857849, 46.2253201007843, 46.342267990112305, 46.4589319229126, 46.57601189613342, 46.69253492355347, 46.91843605041504]	[42.814567619547695, 42.9312342862077, 43.914234286207694, 44.08093428620769, 44.83093428620769, 44.947600952867695, 45.0642676195277, 45.1809342861877, 45.2976009528477, 45.414267619507704, 45.53093428616771, 45.64760095282771, 45.76426761948771, 45.88093428614771, 45.997600952807716, 46.11426761946772, 46.23093428612772, 46.34760095278772, 46.464267619447725, 46.58093428610773, 46.69760095276773, 46.93093428610106]	2021_Feb_01_1415	59.92581966978894	1	0.375
18	9	FALSE	NN	a	['E', 'R', 'M', 'C', 'A', 'U', 'J', 'G', 'K', 'W', 'Z', 'V', 'H', 'T', 'Y', 'P']	[904, 1587, 1224, 829, 697, 2059, 1029, 944, 1122, 2448, 2911, 2245, 986, 1888, 2670, 1456]	12	Absent	NA	NA	ABSENT	0.11612415313720705	48.91944408416748	50.928406953811646	51.978415059983334	52.328416967311966	55.03480291366577	4.106395959854126	[48.928290128707886, 49.0451021194458, 50.01812505722046, 50.196489095687866, 50.94716000556946, 51.064160108566284, 51.18063306808472, 51.29762291908264, 51.41431403160095, 51.53130793571472, 51.64787793159485, 51.76482796669006, 51.88156199455261, 51.998685121536255, 52.1151978969574, 52.231996059417725, 52.34874510765076, 52.465620040893555, 52.58224010467529, 52.69929003715515, 52.8160080909729, 53.034801959991455]	[48.93093428610106, 49.047600952761066, 50.03060095276106, 50.19730095276106, 50.94730095276106, 51.063967619421064, 51.180634286081066, 51.29730095274107, 51.41396761940107, 51.53063428606107, 51.647300952721075, 51.76396761938108, 51.88063428604108, 51.99730095270108, 52.113967619361084, 52.230634286021086, 52.34730095268109, 52.46396761934109, 52.58063428600109, 52.697300952661095, 52.8139676193211, 53.04730095265443]	2021_Feb_01_1415	59.92581966978894	1	0.375
18	10	FALSE	NA	a	['T', 'K', 'B', 'R', 'G', 'J', 'U', 'S', 'E', 'X', 'Y', 'C', 'P', 'H', 'W', 'Z']	[1888, 1122, 760, 1587, 944, 1029, 2059, 1731, 904, 4000, 2670, 829, 1456, 986, 2448, 2911]	10	Present	NA	NA	PRESENT	0.1935329437255859	55.04273200035095	57.0450439453125	57.861717764489875	58.21172062549282	61.15117001533508	4.106126070022583	[55.05155611038208, 55.16850805282593, 56.1344940662384, 56.319709062576294, 57.070552110672, 57.18740105628967, 57.30416011810303, 57.420828104019165, 57.53781700134277, 57.65437602996826, 57.77144002914429, 57.88807797431946, 58.00496506690979, 58.12156391143799, 58.238430976867676, 58.35511493682861, 58.47215700149536, 58.588943004608154, 58.705557107925415, 58.80551195144653, 58.922348976135254, 59.15117001533508]	[55.04730095265443, 55.163967619314434, 56.14696761931443, 56.31366761931443, 57.06366761931443, 57.18033428597443, 57.297000952634434, 57.413667619294436, 57.53033428595444, 57.64700095261444, 57.76366761927444, 57.880334285934445, 57.99700095259445, 58.11366761925445, 58.23033428591445, 58.347000952574454, 58.46366761923446, 58.58033428589446, 58.69700095255446, 58.81366761921446, 58.930334285874466, 59.1636676192078]	2021_Feb_01_1415	59.92581966978894	1	0.375
18	11	FALSE	NA	a	['Z', 'M', 'U', 'R', 'A', 'V', 'B', 'S', 'H', 'W', 'X', 'E', 'N', 'Y', 'T', 'G']	[2911, 1224, 2059, 1587, 697, 2245, 760, 1731, 986, 2448, 4000, 904, 1335, 2670, 1888, 944]	11	Present	NA	NA	PRESENT	0.18195486068725583	61.149473905563354	63.161531925201416	64.09487336471311	64.44487527204174	67.2675359249115	4.106003999710083	[61.158297061920166, 61.274970054626465, 62.25085997581482, 62.42661190032959, 63.17709398269653, 63.2939190864563, 63.4105761051178, 63.527589082717896, 63.64424395561218, 63.76118302345276, 63.87781310081482, 63.99473190307617, 64.11139011383057, 64.22839593887329, 64.34497499465942, 64.46184206008911, 64.57852792739868, 64.69526600837708, 64.81217408180237, 64.92896604537964, 65.04591703414917, 65.2675359249115]	[61.1636676192078, 61.2803342858678, 62.2633342858678, 62.4300342858678, 63.1800342858678, 63.2967009525278, 63.4133676191878, 63.530034285847805, 63.64670095250781, 63.76336761916781, 63.88003428582781, 63.996700952487814, 64.11336761914781, 64.2300342858078, 64.3467009524678, 64.4633676191278, 64.58003428578779, 64.69670095244778, 64.81336761910778, 64.93003428576777, 65.04670095242777, 65.2800342857611]	2021_Feb_01_1415	59.92581966978894	1	0.375
18	12	FALSE	NA	a	['G', 'R', 'P', 'C', 'A', 'T', 'N', 'V', 'W', 'K', 'M', 'X', 'Y', 'J', 'Z', 'B']	[944, 1587, 1456, 829, 697, 1888, 1335, 2245, 2448, 1122, 1224, 4000, 2670, 1029, 2911, 760]	12	Present	NA	NA	PRESENT	0.09057497978210448	67.27265691757202	69.27746605873108	70.32747392648419	70.6774760722314	73.38390302658081	4.1064369678497314	[67.28148007392883, 67.39846110343933, 68.3672239780426, 68.54940605163574, 69.30030703544617, 69.41719508171082, 69.53409600257874, 69.65066504478455, 69.76759099960327, 69.8844621181488, 70.00105309486389, 70.11788892745972, 70.2348530292511, 70.35139608383179, 70.46831107139587, 70.58507990837097, 70.70191502571106, 70.81869602203369, 70.93557691574097, 71.05221891403198, 71.16912794113159, 71.3839020729065]	[67.2800342857611, 67.3967009524211, 68.3797009524211, 68.54640095242111, 69.29640095242111, 69.4130676190811, 69.5297342857411, 69.6464009524011, 69.76306761906109, 69.87973428572109, 69.99640095238108, 70.11306761904108, 70.22973428570107, 70.34640095236107, 70.46306761902106, 70.57973428568106, 70.69640095234105, 70.81306761900105, 70.92973428566104, 71.04640095232104, 71.16306761898103, 71.39640095231437]	2021_Feb_01_1415	59.92581966978894	1	0.375
18	13	FALSE	NA	a	['K', 'H', 'U', 'N', 'A', 'Z', 'G', 'S', 'C', 'E', 'X', 'B', 'M', 'J', 'R', 'V']	[1122, 986, 2059, 1335, 697, 2911, 944, 1731, 829, 904, 4000, 760, 1224, 1029, 1587, 2245]	11	Present	NA	NA	PRESENT	0.4237060546875	73.39648699760437	75.3938479423523	76.32718938186399	76.6771903355183	79.50027012825012	4.106422185897827	[73.40531206130981, 73.52163100242615, 74.48359203338623, 74.65605401992798, 75.42364811897278, 75.52380204200745, 75.64060401916504, 75.75752902030945, 75.87405490875244, 75.99097609519958, 76.10764193534851, 76.22464108467102, 76.34122109413147, 76.4581549167633, 76.57488799095154, 76.69154095649719, 76.80843901634216, 76.92529106140137, 77.04203009605408, 77.15893602371216, 77.27577710151672, 77.50026893615723]	[73.39640095231437, 73.51306761897436, 74.49606761897437, 74.66276761897437, 75.41276761897437, 75.52943428563437, 75.64610095229436, 75.76276761895436, 75.87943428561435, 75.99610095227435, 76.11276761893434, 76.22943428559434, 76.34610095225433, 76.46276761891433, 76.57943428557432, 76.69610095223432, 76.81276761889431, 76.92943428555431, 77.0461009522143, 77.1627676188743, 77.2794342855343, 77.51276761886763]	2021_Feb_01_1415	59.92581966978894	1	0.375
18	14	FALSE	NA	a	['H', 'W', 'B', 'J', 'Y', 'M', 'G', 'C', 'P', 'E', 'Z', 'T', 'A', 'X', 'V', 'N']	[986, 2448, 760, 1029, 2670, 1224, 944, 829, 1456, 904, 2911, 1888, 697, 4000, 2245, 1335]	14	Present	NA	NA	PRESENT	0.2045259475708008	79.50266194343567	81.51038193702698	82.79372242284435	83.14372433017299	85.61663699150085	4.106255054473877	[79.51148509979248, 79.6282069683075, 80.59996199607849, 80.77947092056274, 81.53023099899292, 81.64699602127075, 81.76375007629395, 81.8806619644165, 81.99739289283752, 82.11426711082458, 82.23105096817017, 82.347727060318, 82.46472096443176, 82.5814950466156, 82.69831991195679, 82.81486392021179, 82.93205308914185, 83.04845595359802, 83.16547298431396, 83.28208994865417, 83.39892411231995, 83.61663794517517]	[79.51276761886763, 79.62943428552762, 80.61243428552763, 80.77913428552763, 81.52913428552763, 81.64580095218763, 81.76246761884762, 81.87913428550762, 81.99580095216761, 82.11246761882761, 82.2291342854876, 82.3458009521476, 82.4624676188076, 82.57913428546759, 82.69580095212758, 82.81246761878758, 82.92913428544757, 83.04580095210757, 83.16246761876756, 83.27913428542756, 83.39580095208755, 83.62913428542089]	2021_Feb_01_1415	59.92581966978894	1	0.375
18	15	FALSE	NN	a	['J', 'Z', 'H', 'B', 'T', 'A', 'V', 'C', 'Y', 'U', 'K', 'G', 'N', 'M', 'S', 'W']	[1029, 2911, 986, 760, 1888, 697, 2245, 829, 2670, 2059, 1122, 944, 1335, 1224, 1731, 2448]	10	Absent	NA	NA	ABSENT	0.1939549446105957	85.62586498260498	87.62690496444702	88.4435797372987	88.79358164462734	91.73300290107728	4.106097936630249	[85.63470101356506, 85.75159692764282, 86.71632695198059, 86.90253806114197, 87.65345501899719, 87.77024602890015, 87.88714098930359, 88.00389099121094, 88.12089395523071, 88.2206449508667, 88.33750605583191, 88.45430111885071, 88.57104992866516, 88.6879050731659, 88.80465292930603, 88.92149090766907, 89.0381829738617, 89.15505790710449, 89.27177691459656, 89.38858199119568, 89.50540804862976, 89.73300290107727]	[85.62913428542089, 85.74580095208088, 86.72880095208089, 86.8955009520809, 87.6455009520809, 87.76216761874089, 87.87883428540088, 87.99550095206088, 88.11216761872087, 88.22883428538087, 88.34550095204087, 88.46216761870086, 88.57883428536086, 88.69550095202085, 88.81216761868085, 88.92883428534084, 89.04550095200084, 89.16216761866083, 89.27883428532083, 89.39550095198082, 89.51216761864082, 89.74550095197415]	2021_Feb_01_1415	59.92581966978894	1	0.375
18	16	FALSE	NA	a	['H', 'C', 'S', 'U', 'A', 'N', 'M', 'Y', 'P', 'R', 'T', 'X', 'G', 'Z', 'E', 'K']	[986, 829, 1731, 2059, 697, 1335, 1224, 2670, 1456, 1587, 1888, 4000, 944, 2911, 904, 1122]	12	Present	NA	NA	PRESENT	0.0222170352935791	91.7323739528656	93.7430329322815	94.79304103845318	95.14304389945612	97.84936904907228	4.1063361167907715	[91.74119806289673, 91.85813593864441, 92.83269309997559, 93.00961804389954, 93.76009702682495, 93.87680006027222, 93.99368095397949, 94.1103720664978, 94.22729206085205, 94.34412503242493, 94.46081590652466, 94.57765007019043, 94.69452404975891, 94.81113791465759, 94.92795991897583, 95.04488205909729, 95.16162610054016, 95.27846908569336, 95.39522695541382, 95.51192498207092, 95.62884712219238, 95.84936904907227]	[91.74550095197415, 91.86216761863415, 92.84516761863415, 93.01186761863416, 93.76186761863416, 93.87853428529415, 93.99520095195415, 94.11186761861414, 94.22853428527414, 94.34520095193413, 94.46186761859413, 94.57853428525412, 94.69520095191412, 94.81186761857411, 94.92853428523411, 95.0452009518941, 95.1618676185541, 95.27853428521409, 95.39520095187409, 95.51186761853408, 95.62853428519408, 95.86186761852741]	2021_Feb_01_1415	59.92581966978894	1	0.375
18	17	FALSE	NN	a	['Z', 'A', 'H', 'M', 'U', 'P', 'N', 'V', 'B', 'S', 'K', 'W', 'G', 'E', 'C', 'T']	[2911, 697, 986, 1224, 2059, 1456, 1335, 2245, 760, 1731, 1122, 2448, 944, 904, 829, 1888]	9	Absent	NA	NA	ABSENT	0.2427978515625	97.85568189620972	99.85937809944151	100.55938596721464	100.90938811296184	103.9657371044159	4.106359004974365	[97.8645179271698, 97.98121094703674, 98.94905996322632, 99.1326789855957, 99.8833999633789, 100.00017404556274, 100.11702990531921, 100.23371005058289, 100.3507809638977, 100.46734690666199, 100.58428597450256, 100.70107102394104, 100.8177809715271, 100.93443608283997, 101.05148506164551, 101.1682391166687, 101.28501009941101, 101.4016649723053, 101.51830410957336, 101.63530206680298, 101.7521641254425, 101.965735912323]	[97.86186761852741, 97.97853428518741, 98.96153428518741, 99.12823428518742, 99.87823428518742, 99.99490095184741, 100.11156761850741, 100.2282342851674, 100.3449009518274, 100.4615676184874, 100.57823428514739, 100.69490095180738, 100.81156761846738, 100.92823428512737, 101.04490095178737, 101.16156761844736, 101.27823428510736, 101.39490095176735, 101.51156761842735, 101.62823428508734, 101.74490095174734, 101.97823428508067]	2021_Feb_01_1415	59.92581966978894	1	0.375
18	18	FALSE	VV	a	['V', 'G', 'M', 'S', 'P', 'K', 'surprise', 'J', 'Z', 'X', 'B', 'A', 'U', 'H', 'W', 'T']	[2245, 944, 1224, 1731, 1456, 1122, 'stimAuditory/all_stimAuditory/101.wav', 1029, 2911, 4000, 760, 697, 2059, 986, 2448, 1888]	10	Present	NA	NA	PRESENT	0.2080831527709961	103.97943210601808	105.97591304779051	106.79258758222365	107.14258972797084	110.082102060318	4.106189012527466	[103.98825597763062, 104.08781909942627, 105.06542801856995, 105.23908305168152, 105.98988103866577, 106.10685396194458, 106.22367000579834, 106.3404700756073, 106.45725512504578, 106.57401990890503, 106.69068503379822, 106.80754494667053, 106.92421293258667, 107.04100799560547, 107.15786695480347, 107.27486896514893, 107.3916540145874, 107.50838112831116, 107.62517309188843, 107.74179005622864, 107.8587920665741, 108.08210396766663]	[103.97823428508067, 104.09490095174067, 105.07790095174067, 105.24460095174068, 105.99460095174068, 106.11126761840067, 106.22793428506067, 106.34460095172066, 106.46126761838066, 106.57793428504066, 106.69460095170065, 106.81126761836065, 106.92793428502064, 107.04460095168064, 107.16126761834063, 107.27793428500063, 107.39460095166062, 107.51126761832062, 107.62793428498061, 107.7446009516406, 107.8612676183006, 108.09460095163394]	2021_Feb_01_1415	59.92581966978894	1	0.375
18	19	FALSE	NV	a	['S', 'R', 'C', 'V', 'N', 'H', 'K', 'X', 'M', 'G', 'W', 'B', 'A', 'Z', 'E', 'J']	[1731, 1587, 829, 2245, 1335, 986, 1122, 4000, 1224, 944, 2448, 760, 697, 2911, 904, 1029]	8	Present	NA	NA	PRESENT	0.14855098724365234	110.0854549407959	112.0921790599823	112.6755193074211	113.02552240684264	116.19847011566162	4.106291055679321	[110.09427809715271, 110.21132612228394, 111.18179392814636, 111.3624210357666, 112.11322593688965, 112.23011493682861, 112.34675407409668, 112.46354508399963, 112.58035492897034, 112.69740295410156, 112.81395697593689, 112.93090391159058, 113.04764699935913, 113.1643009185791, 113.28134894371033, 113.39786911010742, 113.51490998268127, 113.6315770149231, 113.74832606315613, 113.86518692970276, 113.98229694366455, 114.19847011566162]	[110.09460095163394, 110.21126761829393, 111.19426761829394, 111.36096761829394, 112.11096761829394, 112.22763428495394, 112.34430095161393, 112.46096761827393, 112.57763428493392, 112.69430095159392, 112.81096761825391, 112.9276342849139, 113.0443009515739, 113.1609676182339, 113.27763428489389, 113.39430095155389, 113.51096761821388, 113.62763428487388, 113.74430095153387, 113.86096761819387, 113.97763428485386, 114.2109676181872]	2021_Feb_01_1415	59.92581966978894	1	0.375
18	20	FALSE	NV	a	['U', 'V', 'N', 'H', 'S', 'M', 'E', 'Z', 'J', 'T', 'X', 'A', 'B', 'K', 'R', 'P']	[2059, 2245, 1335, 986, 1731, 1224, 904, 2911, 1029, 1888, 4000, 697, 760, 1122, 1587, 1456]	11	Present	NA	NA	PRESENT	0.08210396766662598	116.20897889137268	118.20889210700987	119.142233308103	119.49223521543163	122.31483602523804	4.105943918228149	[116.21780204772949, 116.33466792106628, 117.29815697669983, 117.48580598831177, 118.23646712303162, 118.33654689788818, 118.45329093933105, 118.57011604309082, 118.6869421005249, 118.80367994308472, 118.92050290107727, 119.03727412223816, 119.15409708023071, 119.27108192443848, 119.38772511482239, 119.50448989868164, 119.6212990283966, 119.7381820678711, 119.854984998703, 119.97174096107483, 120.08843493461609, 120.31483602523804]	[116.2109676181872, 116.32763428484719, 117.3106342848472, 117.4773342848472, 118.2273342848472, 118.3440009515072, 118.4606676181672, 118.57733428482719, 118.69400095148718, 118.81066761814718, 118.92733428480717, 119.04400095146717, 119.16066761812716, 119.27733428478716, 119.39400095144715, 119.51066761810715, 119.62733428476714, 119.74400095142714, 119.86066761808713, 119.97733428474713, 120.09400095140712, 120.32733428474046]	2021_Feb_01_1415	59.92581966978894	1	0.375
18	21	FALSE	NV	a	['N', 'P', 'K', 'G', 'J', 'Z', 'M', 'X', 'Y', 'R', 'H', 'W', 'E', 'C', 'U', 'V']	[1335, 1456, 1122, 944, 1029, 2911, 1224, 4000, 2670, 1587, 986, 2448, 904, 829, 2059, 2245]	8	Present	NA	NA	PRESENT	0.13441085815429688	122.31538105010986	124.32487106323242	124.90821226434554	125.25821321799984	128.43120312690735	4.106332063674927	[122.3242039680481, 122.44114708900452, 123.41452407836914, 123.59222912788391, 124.34345197677612, 124.46006512641907, 124.57666301727295, 124.69364094734192, 124.81029009819031, 124.92719411849976, 125.04375410079956, 125.16067600250244, 125.27753591537476, 125.39433002471924, 125.51107406616211, 125.62789797782898, 125.74473810195923, 125.86148691177368, 125.97828793525696, 126.09492611885071, 126.2119369506836, 126.43120193481445]	[122.32733428474046, 122.44400095140045, 123.42700095140046, 123.59370095140046, 124.34370095140046, 124.46036761806046, 124.57703428472045, 124.69370095138045, 124.81036761804044, 124.92703428470044, 125.04370095136044, 125.16036761802043, 125.27703428468043, 125.39370095134042, 125.51036761800042, 125.62703428466041, 125.7437009513204, 125.8603676179804, 125.9770342846404, 126.09370095130039, 126.21036761796039, 126.44370095129372]	2021_Feb_01_1415	59.92581966978894	1	0.375
18	22	FALSE	NA	a	['A', 'M', 'T', 'Y', 'U', 'K', 'W', 'Z', 'P', 'E', 'C', 'B', 'J', 'X', 'N', 'S']	[697, 1224, 1888, 2670, 2059, 1122, 2448, 2911, 1456, 904, 829, 760, 1029, 4000, 1335, 1731]	14	Present	NA	NA	PRESENT	0.01088213920593261	128.4386270046234	130.4411609172821	131.7245023567738	132.07450426410242	134.54756903648376	4.10640811920166	[128.44744992256165, 128.56440591812134, 129.5308940410614, 129.71570205688477, 130.46638011932373, 130.58315205574036, 130.70007991790771, 130.81679391860962, 130.93361806869507, 131.0502450466156, 131.16729998588562, 131.28405094146729, 131.40061712265015, 131.5175061225891, 131.63447499275208, 131.75111198425293, 131.86798810958862, 131.98482990264893, 132.10133504867554, 132.21823000907898, 132.335058927536, 132.54756903648376]	[128.44370095129372, 128.56036761795372, 129.54336761795372, 129.7100676179537, 130.4600676179537, 130.5767342846137, 130.6934009512737, 130.8100676179337, 130.9267342845937, 131.0434009512537, 131.16006761791368, 131.27673428457368, 131.39340095123367, 131.51006761789367, 131.62673428455366, 131.74340095121366, 131.86006761787365, 131.97673428453365, 132.09340095119364, 132.21006761785364, 132.32673428451363, 132.56006761784695]	2021_Feb_01_1415	59.92581966978894	1	0.375
18	23	FALSE	NN	a	['P', 'M', 'J', 'G', 'R', 'K', 'U', 'B', 'W', 'H', 'E', 'V', 'T', 'Y', 'C', 'S']	[1456, 1224, 1029, 944, 1587, 1122, 2059, 760, 2448, 986, 904, 2245, 1888, 2670, 829, 1731]	12	Absent	NA	NA	ABSENT	0.1922159194946289	134.54547309875488	136.55776596069336	137.60777406686506	137.95777502051936	140.6639370918274	4.106171131134033	[134.55429601669312, 134.6709339618683, 135.64726090431213, 135.8222939968109, 136.57281303405762, 136.68983006477356, 136.80652809143066, 136.923259973526, 137.04009008407593, 137.156888961792, 137.27375507354736, 137.39045810699463, 137.50731706619263, 137.6240041255951, 137.74091601371765, 137.85783195495605, 137.97456097602844, 138.0913441181183, 138.20819902420044, 138.32472705841064, 138.44168305397034, 138.6639370918274]	[134.56006761784695, 134.67673428450695, 135.65973428450695, 135.82643428450695, 136.57643428450695, 136.69310095116694, 136.80976761782694, 136.92643428448693, 137.04310095114693, 137.15976761780692, 137.27643428446692, 137.3931009511269, 137.5097676177869, 137.6264342844469, 137.7431009511069, 137.8597676177669, 137.9764342844269, 138.09310095108688, 138.20976761774688, 138.32643428440687, 138.44310095106687, 138.6764342844002]	2021_Feb_01_1415	59.92581966978894	1	0.375
18	24	FALSE	NV	a	['T', 'S', 'W', 'H', 'E', 'M', 'K', 'V', 'P', 'Y', 'C', 'R', 'X', 'U', 'N', 'J']	[1888, 1731, 2448, 986, 904, 1224, 1122, 2245, 1456, 2670, 829, 1587, 4000, 2059, 1335, 1029]	13	Present	NA	NA	PRESENT	0.02086114883422851	140.66853189468384	142.67432188987732	143.84099666270902	144.19099857003764	146.7803030014038	4.105981111526489	[140.6773669719696, 140.79426789283752, 141.76362299919128, 141.94539999961853, 142.6962730884552, 142.8132040500641, 142.92988896369934, 143.0465099811554, 143.1634681224823, 143.28034806251526, 143.39710593223572, 143.51372408866882, 143.6306550502777, 143.7474820613861, 143.86424803733826, 143.9812889099121, 144.09791898727417, 144.21458911895752, 144.3314459323883, 144.44821691513062, 144.5653579235077, 144.7803020477295]	[140.6764342844002, 140.79310095106018, 141.7761009510602, 141.94280095106018, 142.69280095106018, 142.80946761772017, 142.92613428438017, 143.04280095104016, 143.15946761770016, 143.27613428436015, 143.39280095102015, 143.50946761768014, 143.62613428434014, 143.74280095100013, 143.85946761766013, 143.97613428432012, 144.09280095098012, 144.20946761764012, 144.3261342843001, 144.4428009509601, 144.5594676176201, 144.79280095095342]	2021_Feb_01_1415	59.92581966978894	1	0.375
18	25	FALSE	NA	a	['M', 'C', 'G', 'Z', 'W', 'Y', 'K', 'P', 'S', 'V', 'A', 'X', 'B', 'J', 'H', 'N']	[1224, 829, 944, 2911, 2448, 2670, 1122, 1456, 1731, 2245, 697, 4000, 760, 1029, 986, 1335]	12	Present	NA	NA	PRESENT	0.06617307662963867	146.7916979789734	148.79056811332703	149.84057598108015	150.19057788840877	152.89667010307312	4.106101989746094	[146.80052208900452, 146.9176230430603, 147.87999391555786, 148.05202102661133, 148.8195149898529, 148.9196801185608, 149.03655409812927, 149.15307998657227, 149.26987195014954, 149.38690090179443, 149.50351905822754, 149.62052392959595, 149.73715996742249, 149.85401391983032, 149.9707989692688, 150.08740210533142, 150.20439195632935, 150.32121992111206, 150.43792390823364, 150.55480909347534, 150.67155194282532, 150.89666891098022]	[146.79280095095342, 146.90946761761342, 147.89246761761342, 148.0591676176134, 148.8091676176134, 148.9258342842734, 149.0425009509334, 149.1591676175934, 149.2758342842534, 149.3925009509134, 149.50916761757338, 149.62583428423338, 149.74250095089337, 149.85916761755337, 149.97583428421336, 150.09250095087336, 150.20916761753335, 150.32583428419335, 150.44250095085334, 150.55916761751334, 150.67583428417333, 150.90916761750665]	2021_Feb_01_1415	59.92581966978894	1	0.375
18	26	FALSE	NV	a	['M', 'P', 'G', 'J', 'W', 'R', 'H', 'S', 'A', 'B', 'X', 'T', 'C', 'Z', 'U', 'N']	[1224, 1456, 944, 1029, 2448, 1587, 986, 1731, 697, 760, 4000, 1888, 829, 2911, 2059, 1335]	11	Present	NA	NA	PRESENT	0.1828761100769043	152.89829397201538	154.9070110321045	155.84035127952328	156.1903534252705	159.01303696632385	4.10602593421936	[152.9071180820465, 153.02410793304443, 153.99635791778564, 154.17562794685364, 154.926029920578, 155.0429708957672, 155.15965795516968, 155.2766261100769, 155.39331197738647, 155.51010298728943, 155.62695693969727, 155.7435131072998, 155.8606140613556, 155.97731590270996, 156.09416890144348, 156.2110080718994, 156.3277349472046, 156.4444010257721, 156.56141304969788, 156.67793202400208, 156.7948739528656, 157.01303601264954]	[152.90916761750665, 153.02583428416665, 154.00883428416665, 154.17553428416664, 154.92553428416664, 155.04220095082664, 155.15886761748664, 155.27553428414663, 155.39220095080663, 155.50886761746662, 155.62553428412662, 155.7422009507866, 155.8588676174466, 155.9755342841066, 156.0922009507666, 156.2088676174266, 156.3255342840866, 156.44220095074658, 156.55886761740658, 156.67553428406657, 156.79220095072657, 157.0255342840599]	2021_Feb_01_1415	59.92581966978894	1	0.375
18	27	FALSE	NV	a	['S', 'G', 'V', 'T', 'K', 'H', 'A', 'E', 'R', 'B', 'P', 'M', 'X', 'J', 'N', 'Y']	[1731, 944, 2245, 1888, 1122, 986, 697, 904, 1587, 760, 1456, 1224, 4000, 1029, 1335, 2670]	13	Present	NA	NA	PRESENT	0.14819097518920898	159.02175903320312	161.02303099632263	162.18970457706143	162.53970767648295	165.12940311431885	4.106372117996216	[159.03058290481567, 159.14726901054382, 160.1127269268036, 160.29873895645142, 161.04940104484558, 161.16607403755188, 161.28288793563843, 161.3997609615326, 161.5165810585022, 161.63342189788818, 161.750097990036, 161.8670220375061, 161.98386597633362, 162.10044598579407, 162.21723294258118, 162.3172800540924, 162.43418502807617, 162.55096006393433, 162.66778707504272, 162.78458094596863, 162.90127897262573, 163.12940406799316]	[159.0255342840599, 159.14220095071988, 160.1252009507199, 160.29190095071988, 161.04190095071988, 161.15856761737987, 161.27523428403987, 161.39190095069986, 161.50856761735986, 161.62523428401985, 161.74190095067985, 161.85856761733984, 161.97523428399984, 162.09190095065983, 162.20856761731983, 162.32523428397982, 162.44190095063982, 162.55856761729981, 162.6752342839598, 162.7919009506198, 162.9085676172798, 163.14190095061312]	2021_Feb_01_1415	59.92581966978894	1	0.375
18	28	FALSE	VA	a	['B', 'S', 'J', 'V', 'Y', 'H', 'K', 'U', 'E', 'surprise', 'R', 'C', 'X', 'T', 'A', 'G']	[760, 1731, 1029, 2245, 2670, 986, 1122, 2059, 904, 'stimAuditory/all_stimAuditory/216.wav', 1587, 829, 4000, 1888, 697, 944]	13	Present	NA	NA	PRESENT	0.28066086769104004	165.12861609458923	167.13965106010437	168.3063255945175	168.6563277402647	171.24576997756958	4.10611891746521	[165.1374409198761, 165.25400710105896, 166.22909212112427, 166.40520000457764, 167.15589094161987, 167.27290892601013, 167.38955903053284, 167.5062870979309, 167.6232569217682, 167.73996806144714, 167.85677409172058, 167.97345805168152, 168.09026312828064, 168.20708298683167, 168.3239300251007, 168.44063091278076, 168.55756497383118, 168.67419004440308, 168.79097390174866, 168.90797400474548, 169.0247619152069, 169.24576997756958]	[165.14190095061312, 165.25856761727312, 166.24156761727312, 166.4082676172731, 167.1582676172731, 167.2749342839331, 167.3916009505931, 167.5082676172531, 167.6249342839131, 167.7416009505731, 167.85826761723308, 167.97493428389308, 168.09160095055307, 168.20826761721307, 168.32493428387306, 168.44160095053306, 168.55826761719305, 168.67493428385305, 168.79160095051304, 168.90826761717304, 169.02493428383303, 169.25826761716635]	2021_Feb_01_1415	59.92581966978894	1	0.375
18	29	FALSE	NA	a	['V', 'H', 'W', 'T', 'N', 'G', 'Y', 'A', 'K', 'Z', 'U', 'X', 'R', 'J', 'S', 'M']	[2245, 986, 2448, 1888, 1335, 944, 2670, 697, 1122, 2911, 2059, 4000, 1587, 1029, 1731, 1224]	12	Present	NA	NA	PRESENT	0.1333930492401123	171.2516050338745	173.25585007667542	174.30585699075422	174.65585889808284	177.3621370792389	4.106287002563477	[171.26042890548706, 171.3770411014557, 172.3454611301422, 172.52856492996216, 173.27931189537048, 173.39606308937073, 173.51283311843872, 173.62967801094055, 173.74644994735718, 173.86325192451477, 173.9799768924713, 174.09707808494568, 174.21352696418762, 174.33034300804138, 174.44705390930176, 174.56431007385254, 174.68074297904968, 174.79755306243896, 174.91449689865112, 175.03149509429932, 175.14790511131287, 175.36213612556458]	[171.25826761716635, 171.37493428382635, 172.35793428382635, 172.52463428382634, 173.27463428382634, 173.39130095048634, 173.50796761714633, 173.62463428380633, 173.74130095046633, 173.85796761712632, 173.97463428378632, 174.0913009504463, 174.2079676171063, 174.3246342837663, 174.4413009504263, 174.5579676170863, 174.6746342837463, 174.79130095040628, 174.90796761706628, 175.02463428372627, 175.14130095038627, 175.3746342837196]	2021_Feb_01_1415	59.92581966978894	1	0.375
18	30	FALSE	NA	a	['C', 'S', 'M', 'G', 'N', 'P', 'U', 'H', 'Y', 'W', 'J', 'Z', 'E', 'X', 'B', 'R']	[829, 1731, 1224, 944, 1335, 1456, 2059, 986, 2670, 2448, 1029, 2911, 904, 4000, 760, 1587]	14	Present	NA	NA	PRESENT	0.06640982627868652	177.37493896484375	179.37207508087158	180.6554162819447	181.0054184276919	183.4785029888153	4.106427907943726	[177.38376307487488, 177.4836869239807, 178.46182703971863, 178.63496708869934, 179.38575506210327, 179.50272798538208, 179.61948704719543, 179.7363200187683, 179.85292291641235, 179.96971011161804, 180.0865490436554, 180.20325207710266, 180.3202929496765, 180.43683910369873, 180.55388712882996, 180.67042803764343, 180.78751611709595, 180.90412306785583, 181.0211100578308, 181.13791704177856, 181.2545669078827, 181.478502035141]	[177.3746342837196, 177.49130095037958, 178.4743009503796, 178.64100095037958, 179.39100095037958, 179.50766761703957, 179.62433428369957, 179.74100095035956, 179.85766761701956, 179.97433428367955, 180.09100095033955, 180.20766761699954, 180.32433428365954, 180.44100095031953, 180.55766761697953, 180.67433428363952, 180.79100095029952, 180.90766761695951, 181.0243342836195, 181.1410009502795, 181.2576676169395, 181.49100095027282]	2021_Feb_01_1415	59.92581966978894	1	0.375
18	31	FALSE	AV	a	['U', 'E', 'R', 'J', 'Y', 'V', 'B', 'T', 'H', 'A', 'surprise', 'K', 'G', 'X', 'Z', 'M']	[2059, 904, 1587, 1029, 2670, 2245, 760, 1888, 986, 697, 'stimAuditory/all_stimAuditory/120.wav', 1122, 944, 4000, 2911, 1224]	14	Present	stimAuditory/all_stimAuditory/101.wav	NA	PRESENT	0.4149470329284668	183.4813940525055	185.4887409210205	186.77208140683788	187.1220833141665	189.59486889839172	4.106127977371216	[183.49021792411804, 183.60717606544495, 184.57819604873657, 184.75836896896362, 185.50948309898376, 185.62603402137756, 185.74275708198547, 185.85939598083496, 185.97643089294434, 186.09326791763306, 186.210058927536, 186.32663893699646, 186.4434940814972, 186.56036806106567, 186.67720103263855, 186.79379296302795, 186.91067790985107, 187.0273311138153, 187.1440920829773, 187.26111602783203, 187.37770104408264, 187.59487009048462]	[183.49100095027282, 183.60766761693282, 184.59066761693282, 184.7573676169328, 185.5073676169328, 185.6240342835928, 185.7407009502528, 185.8573676169128, 185.9740342835728, 186.0907009502328, 186.20736761689278, 186.32403428355278, 186.44070095021277, 186.55736761687277, 186.67403428353276, 186.79070095019276, 186.90736761685275, 187.02403428351275, 187.14070095017274, 187.25736761683274, 187.37403428349273, 187.60736761682605]	2021_Feb_01_1415	59.92581966978894	1	0.375
18	32	FALSE	NA	a	['V', 'J', 'G', 'B', 'S', 'Z', 'P', 'C', 'W', 'R', 'X', 'E', 'Y', 'H', 'A', 'T']	[2245, 1029, 944, 760, 1731, 2911, 1456, 829, 2448, 1587, 4000, 904, 2670, 986, 697, 1888]	11	Present	NA	NA	PRESENT	0.11616992950439452	189.6048800945282	191.60503888130188	192.53837936713924	192.8883812744679	195.71123695373535	4.106198072433472	[189.61370301246643, 189.73037099838257, 190.694561958313, 190.88169407844543, 191.63249111175537, 191.73233795166016, 191.8492259979248, 191.96602296829224, 192.08274102210999, 192.19961309432983, 192.31632208824158, 192.4331829547882, 192.549987077713, 192.6667459011078, 192.78359389305115, 192.90029311180115, 193.01721692085266, 193.13391709327698, 193.25078010559082, 193.367525100708, 193.48450803756714, 193.71123695373535]	[189.60736761682605, 189.72403428348605, 190.70703428348605, 190.87373428348604, 191.62373428348604, 191.74040095014604, 191.85706761680603, 191.97373428346603, 192.09040095012602, 192.20706761678602, 192.32373428344602, 192.440400950106, 192.557067616766, 192.673734283426, 192.790400950086, 192.907067616746, 193.023734283406, 193.14040095006598, 193.25706761672598, 193.37373428338597, 193.49040095004597, 193.7237342833793]	2021_Feb_01_1415	59.92581966978894	1	0.375
18	33	FALSE	NA	a	['G', 'J', 'W', 'N', 'P', 'U', 'H', 'A', 'T', 'X', 'S', 'E', 'V', 'K', 'R', 'M']	[944, 1029, 2448, 1335, 1456, 2059, 986, 697, 1888, 4000, 1731, 904, 2245, 1122, 1587, 1224]	10	Present	NA	NA	PRESENT	0.01686692237854004	195.71159291267395	197.72154307365415	198.53821760808728	198.8882207075088	201.82760310173035	4.106060028076172	[195.72041702270508, 195.8371090888977, 196.8109269142151, 196.98816990852356, 197.73904395103455, 197.85593795776367, 197.97268104553223, 198.08926510810852, 198.2062430381775, 198.32284212112427, 198.43980503082275, 198.556401014328, 198.6734790802002, 198.79016494750977, 198.9069309234619, 199.02363204956055, 199.140625, 199.2571940422058, 199.3742790222168, 199.4910011291504, 199.60781407356262, 199.82760190963745]	[195.7237342833793, 195.84040095003928, 196.8234009500393, 196.99010095003928, 197.74010095003928, 197.85676761669927, 197.97343428335927, 198.09010095001926, 198.20676761667926, 198.32343428333925, 198.44010094999925, 198.55676761665924, 198.67343428331924, 198.79010094997923, 198.90676761663923, 199.02343428329922, 199.14010094995922, 199.25676761661921, 199.3734342832792, 199.4901009499392, 199.6067676165992, 199.84010094993252]	2021_Feb_01_1415	59.92581966978894	1	0.375
18	34	FALSE	AA	a	['U', 'Z', 'K', 'W', 'J', 'Y', 'surprise', 'A', 'S', 'X', 'P', 'N', 'M', 'R', 'T', 'H']	[2059, 2911, 1122, 2448, 1029, 2670, 'stimAuditory/all_stimAuditory/113.wav', 697, 1731, 4000, 1456, 1335, 1224, 1587, 1888, 986]	10	Present	stimAuditory/all_stimAuditory/216.wav	NA	PRESENT	0.35637903213500977	201.83475303649905	203.8376669883728	204.6543417612245	205.00434366855313	207.94396996498108	4.106302976608276	[201.84357595443726, 201.96010303497314, 202.92729210853577, 203.1113579273224, 203.86240601539612, 203.97899389266968, 204.09591507911682, 204.2125689983368, 204.32950806617737, 204.44634890556335, 204.5631229877472, 204.67980790138245, 204.7965281009674, 204.91349601745605, 205.03052306175232, 205.1471118927002, 205.26390290260315, 205.38066792488098, 205.49756789207458, 205.61419892311096, 205.73090410232544, 205.94396901130676]	[201.84010094993252, 201.95676761659251, 202.93976761659252, 203.1064676165925, 203.8564676165925, 203.9731342832525, 204.0898009499125, 204.2064676165725, 204.3231342832325, 204.4398009498925, 204.55646761655248, 204.67313428321248, 204.78980094987247, 204.90646761653247, 205.02313428319246, 205.13980094985246, 205.25646761651245, 205.37313428317245, 205.48980094983244, 205.60646761649244, 205.72313428315243, 205.95646761648575]	2021_Feb_01_1415	59.92581966978894	1	0.375
18	35	FALSE	NA	a	['B', 'M', 'Z', 'R', 'G', 'P', 'E', 'X', 'H', 'N', 'Y', 'U', 'C', 'A', 'K', 'S']	[760, 1224, 2911, 1587, 944, 1456, 904, 4000, 986, 1335, 2670, 2059, 829, 697, 1122, 1731]	8	Present	NA	NA	PRESENT	0.2104949951171875	207.9410879611969	209.95393991470337	210.53728040056075	210.88728230788936	214.06033611297607	4.106396198272705	[207.9499111175537, 208.06675601005554, 209.04365706443787, 209.21798610687256, 209.96876096725464, 210.08571410179138, 210.20239400863647, 210.3192970752716, 210.4362690448761, 210.55289793014526, 210.66964101791382, 210.78634810447693, 210.9032859802246, 211.0199499130249, 211.13695907592773, 211.25360107421875, 211.3704650402069, 211.48715710639954, 211.60409498214722, 211.72083806991577, 211.837632894516, 212.06033611297607]	[207.95646761648575, 208.07313428314575, 209.05613428314575, 209.22283428314574, 209.97283428314574, 210.08950094980574, 210.20616761646573, 210.32283428312573, 210.43950094978572, 210.55616761644572, 210.67283428310571, 210.7895009497657, 210.9061676164257, 211.0228342830857, 211.1395009497457, 211.2561676164057, 211.37283428306569, 211.48950094972568, 211.60616761638568, 211.72283428304567, 211.83950094970567, 212.072834283039]	2021_Feb_01_1415	59.92581966978894	1	0.375
18	36	FALSE	NV	a	['Y', 'C', 'G', 'A', 'R', 'S', 'M', 'X', 'N', 'P', 'Z', 'J', 'E', 'B', 'U', 'H']	[2670, 829, 944, 697, 1587, 1731, 1224, 4000, 1335, 1456, 2911, 1029, 904, 760, 2059, 986]	8	Present	NA	NA	PRESENT	0.03131103515625	214.06454610824585	216.0706090927124	216.6539493401512	217.00395124747985	220.1767029762268	4.106093883514404	[214.0733699798584, 214.1902561187744, 215.16002702713013, 215.34178495407104, 216.09214210510254, 216.20902490615845, 216.32588291168213, 216.4424250125885, 216.55945301055908, 216.67606711387634, 216.79293298721313, 216.90964198112488, 217.0265839099884, 217.14321303367615, 217.25997400283813, 217.377023935318, 217.49375009536743, 217.61036109924316, 217.7271020412445, 217.84401202201843, 217.96089696884155, 218.1767029762268]	[214.072834283039, 214.18950094969898, 215.17250094969899, 215.33920094969898, 216.08920094969898, 216.20586761635897, 216.32253428301897, 216.43920094967896, 216.55586761633896, 216.67253428299895, 216.78920094965895, 216.90586761631894, 217.02253428297894, 217.13920094963893, 217.25586761629893, 217.37253428295892, 217.48920094961892, 217.6058676162789, 217.7225342829389, 217.8392009495989, 217.9558676162589, 218.18920094959222]	2021_Feb_01_1415	59.92581966978894	1	0.375
18	37	FALSE	NN	a	['R', 'P', 'V', 'C', 'T', 'G', 'U', 'B', 'W', 'E', 'A', 'S', 'J', 'N', 'K', 'Y']	[1587, 1456, 2245, 829, 1888, 944, 2059, 760, 2448, 904, 697, 1731, 1029, 1335, 1122, 2670]	13	Absent	NA	NA	ABSENT	0.2524890899658203	220.18787693977356	222.1870300769806	223.3537036577194	223.703705565048	226.29307007789612	4.106040000915527	[220.19670009613037, 220.31343007087708, 221.27639293670654, 221.44783806800842, 222.21557807922363, 222.3154740333557, 222.4322690963745, 222.54893803596497, 222.66579699516296, 222.78281497955322, 222.89948201179504, 223.01621389389038, 223.13308310508728, 223.24973106384277, 223.36658811569214, 223.4834690093994, 223.60027694702148, 223.7168939113617, 223.83385396003723, 223.95068311691284, 224.0675230026245, 224.2930691242218]	[220.18920094959222, 220.30586761625221, 221.28886761625222, 221.4555676162522, 222.2055676162522, 222.3222342829122, 222.4389009495722, 222.5555676162322, 222.6722342828922, 222.7889009495522, 222.90556761621218, 223.02223428287218, 223.13890094953217, 223.25556761619217, 223.37223428285216, 223.48890094951216, 223.60556761617215, 223.72223428283215, 223.83890094949214, 223.95556761615214, 224.07223428281213, 224.30556761614545]	2021_Feb_01_1415	59.92581966978894	1	0.375
18	38	FALSE	NN	a	['H', 'A', 'W', 'J', 'Z', 'K', 'Y', 'B', 'T', 'N', 'U', 'C', 'M', 'E', 'V', 'R']	[986, 697, 2448, 1029, 2911, 1122, 2670, 760, 1888, 1335, 2059, 829, 1224, 904, 2245, 1587]	11	Absent	NA	NA	ABSENT	0.21715092658996585	226.2946150302887	228.30344796180725	229.23678940131893	229.5867913086476	232.40943694114685	4.1059889793396	[226.30343890190125, 226.4201009273529, 227.39276003837585, 227.57118010520935, 228.32216596603394, 228.4388210773468, 228.55571007728577, 228.6722218990326, 228.7892200946808, 228.9058210849762, 229.02283191680908, 229.1396119594574, 229.25646305084229, 229.37305092811584, 229.48999905586243, 229.60666012763977, 229.72361707687378, 229.84030890464783, 229.95725798606873, 230.07384705543518, 230.1906659603119, 230.40943598747253]	[226.30556761614545, 226.42223428280545, 227.40523428280545, 227.57193428280544, 228.32193428280544, 228.43860094946544, 228.55526761612543, 228.67193428278543, 228.78860094944542, 228.90526761610542, 229.02193428276541, 229.1386009494254, 229.2552676160854, 229.3719342827454, 229.4886009494054, 229.6052676160654, 229.72193428272539, 229.83860094938538, 229.95526761604538, 230.07193428270537, 230.18860094936537, 230.4219342826987]	2021_Feb_01_1415	59.92581966978894	1	0.375
18	39	FALSE	NV	a	['B', 'V', 'R', 'J', 'S', 'P', 'C', 'K', 'H', 'A', 'N', 'Y', 'X', 'G', 'T', 'M']	[760, 2245, 1587, 1029, 1731, 1456, 829, 1122, 986, 697, 1335, 2670, 4000, 944, 1888, 1224]	13	Present	NA	NA	PRESENT	0.16649413108825684	232.4176919460297	234.41948103904724	235.58615557346036	235.93615771920756	238.52580404281616	4.106323003768921	[232.42651391029358, 232.54321098327637, 233.5091269016266, 233.69459295272827, 234.44529008865356, 234.56201004981995, 234.67896008491516, 234.7957739830017, 234.9123179912567, 235.02923393249512, 235.14587593078613, 235.26288390159607, 235.3797640800476, 235.49638605117798, 235.61308908462524, 235.73008394241333, 235.8468279838562, 235.96379494667053, 236.0804901123047, 236.18031692504883, 236.29719305038452, 236.52580308914185]	[232.4219342826987, 232.53860094935868, 233.52160094935869, 233.68830094935868, 234.43830094935868, 234.55496761601867, 234.67163428267867, 234.78830094933866, 234.90496761599866, 235.02163428265865, 235.13830094931865, 235.25496761597864, 235.37163428263864, 235.48830094929863, 235.60496761595863, 235.72163428261862, 235.83830094927862, 235.9549676159386, 236.0716342825986, 236.1883009492586, 236.3049676159186, 236.53830094925192]	2021_Feb_01_1415	59.92581966978894	1	0.375
18	40	FALSE	NA	a	['H', 'B', 'N', 'S', 'V', 'U', 'A', 'Z', 'P', 'G', 'W', 'X', 'C', 'T', 'M', 'Y']	[986, 760, 1335, 1731, 2245, 2059, 697, 2911, 1456, 944, 2448, 4000, 829, 1888, 1224, 2670]	12	Present	NA	NA	PRESENT	0.322782039642334	238.52416396141052	240.5357689857483	241.58577709192	241.9357789992486	244.64216995239255	4.106400966644287	[238.53298711776733, 238.6499969959259, 239.62549304962158, 239.80100202560425, 240.55184507369995, 240.66864705085754, 240.7855920791626, 240.90220999717712, 241.0191149711609, 241.1359510421753, 241.2527039051056, 241.36953806877136, 241.48630499839783, 241.60286808013916, 241.71991801261902, 241.8365340232849, 241.9534969329834, 242.07029700279236, 242.18701004981995, 242.3037509918213, 242.42049407958984, 242.64216995239258]	[238.53830094925192, 238.65496761591191, 239.63796761591192, 239.8046676159119, 240.5546676159119, 240.6713342825719, 240.7880009492319, 240.9046676158919, 241.0213342825519, 241.1380009492119, 241.25466761587188, 241.37133428253188, 241.48800094919187, 241.60466761585187, 241.72133428251186, 241.83800094917186, 241.95466761583185, 242.07133428249185, 242.18800094915184, 242.30466761581184, 242.42133428247183, 242.65466761580515]	2021_Feb_01_1415	59.92581966978894	1	0.375
18	41	FALSE	NN	a	['J', 'V', 'S', 'A', 'Y', 'G', 'R', 'N', 'K', 'U', 'Z', 'W', 'H', 'C', 'M', 'E']	[1029, 2245, 1731, 697, 2670, 944, 1587, 1335, 1122, 2059, 2911, 2448, 986, 829, 1224, 904]	9	Absent	NA	NA	ABSENT	0.21557402610778809	244.64755010604856	246.6523859500885	247.3523940562802	247.70239596360884	250.7585370540619	4.106151103973389	[244.65637302398682, 244.77330708503723, 245.74185991287231, 245.9246790409088, 246.67520809173584, 246.79202699661255, 246.90890502929688, 247.02543902397156, 247.14227509498596, 247.25914692878723, 247.37596011161804, 247.49282908439636, 247.60932993888855, 247.72635507583618, 247.84310102462769, 247.95994091033936, 248.0768461227417, 248.19353103637695, 248.31042408943176, 248.42713403701782, 248.54396891593933, 248.75853610038757]	[244.65466761580515, 244.77133428246515, 245.75433428246515, 245.92103428246514, 246.67103428246514, 246.78770094912514, 246.90436761578513, 247.02103428244513, 247.13770094910512, 247.25436761576512, 247.37103428242511, 247.4877009490851, 247.6043676157451, 247.7210342824051, 247.8377009490651, 247.9543676157251, 248.07103428238509, 248.18770094904508, 248.30436761570508, 248.42103428236507, 248.53770094902507, 248.77103428235839]	2021_Feb_01_1415	59.92581966978894	1	0.375
18	42	FALSE	NN	a	['V', 'B', 'C', 'S', 'U', 'Y', 'K', 'T', 'M', 'Z', 'H', 'E', 'N', 'G', 'R', 'A']	[2245, 760, 829, 1731, 2059, 2670, 1122, 1888, 1224, 2911, 986, 904, 1335, 944, 1587, 697]	13	Absent	NA	NA	ABSENT	0.23674798011779785	250.77062797546387	252.768630027771	253.93530456218411	254.2853067079313	256.8749029636383	4.10627293586731	[250.779452085495, 250.87953805923462, 251.85822701454163, 252.03084111213684, 252.79858899116516, 252.8986930847168, 253.01532196998596, 253.13222694396973, 253.2490041255951, 253.3656361103058, 253.48249292373657, 253.59916710853577, 253.71614503860474, 253.83275604248047, 253.94978189468384, 254.06639409065247, 254.18334889411926, 254.3001561164856, 254.4168860912323, 254.53359699249268, 254.65042209625244, 254.874902009964]	[250.77103428235839, 250.88770094901838, 251.87070094901839, 252.03740094901838, 252.78740094901838, 252.90406761567837, 253.02073428233837, 253.13740094899836, 253.25406761565836, 253.37073428231835, 253.48740094897835, 253.60406761563834, 253.72073428229834, 253.83740094895833, 253.95406761561833, 254.07073428227832, 254.18740094893832, 254.3040676155983, 254.4207342822583, 254.5374009489183, 254.6540676155783, 254.88740094891162]	2021_Feb_01_1415	59.92581966978894	1	0.375
18	43	FALSE	NV	a	['K', 'B', 'C', 'U', 'Y', 'P', 'N', 'A', 'W', 'J', 'H', 'V', 'E', 'X', 'M', 'G']	[1122, 760, 829, 2059, 2670, 1456, 1335, 697, 2448, 1029, 986, 2245, 904, 4000, 1224, 944]	14	Present	NA	NA	PRESENT	0.2014760971069336	256.87770891189575	258.8848509788513	260.1681912262501	260.5181933719973	262.9912700653076	4.106419086456299	[256.88653206825256, 257.0032079219818, 257.9745910167694, 258.1542971134186, 258.90503311157227, 259.0218300819397, 259.1387519836426, 259.25541400909424, 259.3722651004791, 259.48913407325745, 259.60586190223694, 259.7225320339203, 259.83924889564514, 259.95602107048035, 260.07283210754395, 260.1896650791168, 260.30661511421204, 260.423278093338, 260.5401260852814, 260.65706396102905, 260.77361512184143, 260.9912691116333]	[256.8874009489116, 257.0040676155716, 257.9870676155716, 258.1537676155716, 258.9037676155716, 259.02043428223163, 259.13710094889166, 259.2537676155517, 259.3704342822117, 259.4871009488717, 259.60376761553175, 259.7204342821918, 259.8371009488518, 259.9537676155118, 260.07043428217185, 260.18710094883187, 260.3037676154919, 260.4204342821519, 260.53710094881194, 260.65376761547196, 260.770434282132, 261.00376761546534]	2021_Feb_01_1415	59.92581966978894	1	0.375
18	44	FALSE	NN	a	['G', 'W', 'V', 'H', 'J', 'U', 'K', 'E', 'P', 'M', 'C', 'R', 'A', 'Y', 'Z', 'B']	[944, 2448, 2245, 986, 1029, 2059, 1122, 904, 1456, 1224, 829, 1587, 697, 2670, 2911, 760]	14	Absent	NA	NA	ABSENT	0.23059606552124023	263.0008029937744	265.0014851093292	266.2848263104023	266.63482821773096	269.10763692855835	4.106151819229126	[263.0096390247345, 263.126256942749, 264.09096097946167, 264.2775990962982, 265.0282230377197, 265.1452751159668, 265.26184606552124, 265.3787770271301, 265.49562311172485, 265.6122250556946, 265.7122700214386, 265.8289849758148, 265.9460439682007, 266.0626480579376, 266.179456949234, 266.2962009906769, 266.4130630493164, 266.5298590660095, 266.6465709209442, 266.7633900642395, 266.8804008960724, 267.10763597488403]	[263.00376761546534, 263.12043428212536, 264.10343428212536, 264.27013428212535, 265.02013428212535, 265.1368009487854, 265.2534676154454, 265.3701342821054, 265.48680094876545, 265.6034676154255, 265.7201342820855, 265.8368009487455, 265.95346761540554, 266.07013428206557, 266.1868009487256, 266.3034676153856, 266.42013428204564, 266.53680094870566, 266.6534676153657, 266.7701342820257, 266.88680094868573, 267.1201342820191]	2021_Feb_01_1415	59.92581966978894	1	0.375
18	45	FALSE	AN	a	['Z', 'Y', 'H', 'R', 'surprise', 'G', 'K', 'J', 'S', 'A', 'N', 'P', 'C', 'U', 'E', 'M']	[2911, 2670, 986, 1587, 'stimAuditory/all_stimAuditory/223.wav', 944, 1122, 1029, 1731, 697, 1335, 1456, 829, 2059, 904, 1224]	8	Absent	stimAuditory/all_stimAuditory/120.wav	NA	ABSENT	0.2512171268463135	269.10714888572693	271.11796498298645	271.70130642251814	272.0513073761725	275.22400403022766	4.106039047241211	[269.11597299575806, 269.23297810554504, 270.20735812187195, 270.38401794433594, 271.1349129676819, 271.2516460418701, 271.36858105659485, 271.4851939678192, 271.60216093063354, 271.7188091278076, 271.8357241153717, 271.9523239135742, 272.0693778991699, 272.18607902526855, 272.3026599884033, 272.4196081161499, 272.5364758968353, 272.6531660556793, 272.7700629234314, 272.88690996170044, 273.0036110877991, 273.22400403022766]	[269.1201342820191, 269.2368009486791, 270.2198009486791, 270.3865009486791, 271.1365009486791, 271.2531676153391, 271.36983428199915, 271.48650094865917, 271.6031676153192, 271.7198342819792, 271.83650094863924, 271.95316761529926, 272.0698342819593, 272.1865009486193, 272.30316761527934, 272.41983428193936, 272.5365009485994, 272.6531676152594, 272.76983428191943, 272.88650094857945, 273.0031676152395, 273.2365009485728]	2021_Feb_01_1415	59.92581966978894	1	0.375
18	46	FALSE	NA	a	['Z', 'P', 'H', 'V', 'J', 'R', 'C', 'N', 'A', 'T', 'G', 'K', 'X', 'E', 'W', 'Y']	[2911, 1456, 986, 2245, 1029, 1587, 829, 1335, 697, 1888, 944, 1122, 4000, 904, 2448, 2670]	13	Present	NA	NA	PRESENT	0.21568989753723145	275.23050689697266	277.23392701148987	278.40060178432157	278.7506027379759	281.3403699398041	4.106442928314209	[275.2393310070038, 275.3559761047363, 276.3236939907074, 276.50770807266235, 277.2581820487976, 277.37510204315186, 277.49188590049744, 277.6086730957031, 277.72546792030334, 277.8421130180359, 277.9590060710907, 278.07577109336853, 278.1926460266113, 278.3094050884247, 278.42601108551025, 278.5429439544678, 278.6596179008484, 278.77644991874695, 278.89321303367615, 279.0101799964905, 279.1268811225891, 279.34036898612976]	[275.2365009485728, 275.35316761523285, 276.33616761523285, 276.50286761523284, 277.25286761523284, 277.36953428189287, 277.4862009485529, 277.6028676152129, 277.71953428187294, 277.83620094853296, 277.952867615193, 278.069534281853, 278.18620094851303, 278.30286761517306, 278.4195342818331, 278.5362009484931, 278.6528676151531, 278.76953428181315, 278.8862009484732, 279.0028676151332, 279.1195342817932, 279.35286761512657]	2021_Feb_01_1415	59.92581966978894	1	0.375
18	47	FALSE	NA	a	['T', 'A', 'G', 'M', 'S', 'W', 'B', 'C', 'K', 'Z', 'N', 'V', 'X', 'P', 'H', 'E']	[1888, 697, 944, 1224, 1731, 2448, 760, 829, 1122, 2911, 1335, 2245, 4000, 1456, 986, 904]	13	Present	NA	NA	PRESENT	0.0132448673248291	281.3369119167328	283.35045099258423	284.5171257654159	284.8671276727446	287.4567360877991	4.106285095214844	[281.3457350730896, 281.46278405189514, 282.4400610923767, 282.6136929988861, 283.36469292640686, 283.4814600944519, 283.598356962204, 283.71520709991455, 283.83192896842957, 283.9487659931183, 284.0654721260071, 284.1822590827942, 284.299103975296, 284.41577100753784, 284.53276801109314, 284.6495370864868, 284.7663791179657, 284.8830099105835, 284.9998939037323, 285.1166090965271, 285.23330092430115, 285.4567360877991]	[281.35286761512657, 281.4695342817866, 282.4525342817866, 282.6192342817866, 283.3692342817866, 283.4859009484466, 283.60256761510664, 283.71923428176666, 283.8359009484267, 283.9525676150867, 284.06923428174673, 284.18590094840675, 284.3025676150668, 284.4192342817268, 284.5359009483868, 284.65256761504685, 284.7692342817069, 284.8859009483669, 285.0025676150269, 285.11923428168694, 285.23590094834697, 285.4692342816803]	2021_Feb_01_1415	59.92581966978894	1	0.375
18	48	FALSE	NA	a	['W', 'A', 'Y', 'P', 'C', 'M', 'N', 'K', 'U', 'B', 'H', 'V', 'X', 'Z', 'T', 'E']	[2448, 697, 2670, 1456, 829, 1224, 1335, 1122, 2059, 760, 986, 2245, 4000, 2911, 1888, 904]	13	Present	NA	NA	PRESENT	0.2497870922088623	287.46079111099243	289.46672010421753	290.63339463863065	290.983395592285	293.5731029510498	4.106382846832275	[287.46961402893066, 287.5860741138458, 288.5564260482788, 288.73739409446716, 289.4881000518799, 289.60497999191284, 289.7217309474945, 289.8384370803833, 289.9552628993988, 290.0721230506897, 290.1887481212616, 290.30560398101807, 290.42226791381836, 290.53907895088196, 290.65580701828003, 290.77287101745605, 290.8895299434662, 291.0063600540161, 291.1229479312897, 291.2399830818176, 291.3566210269928, 291.5731039047241]	[287.4692342816803, 287.58590094834034, 288.56890094834034, 288.73560094834033, 289.48560094834033, 289.60226761500036, 289.7189342816604, 289.8356009483204, 289.9522676149804, 290.06893428164045, 290.1856009483005, 290.3022676149605, 290.4189342816205, 290.53560094828055, 290.65226761494057, 290.7689342816006, 290.8856009482606, 291.00226761492064, 291.11893428158066, 291.2356009482407, 291.3522676149007, 291.58560094823406]	2021_Feb_01_1415	59.92581966978894	1	0.375
18	49	FALSE	AV	a	['U', 'V', 'K', 'A', 'R', 'N', 'Y', 'B', 'surprise', 'C', 'P', 'X', 'T', 'S', 'J', 'Z']	[2059, 2245, 1122, 697, 1587, 1335, 2670, 760, 'stimAuditory/all_stimAuditory/212.wav', 829, 1456, 4000, 1888, 1731, 1029, 2911]	12	Present	stimAuditory/all_stimAuditory/113.wav	NA	PRESENT	0.21494483947753903	293.58349609375	295.58328008651733	296.63328795427043	296.98329010001765	299.6894700527191	4.106189966201782	[293.59231996536255, 293.7094349861145, 294.6727910041809, 294.8606231212616, 295.61134004592896, 295.71128392219543, 295.82808089256287, 295.9448790550232, 296.06191205978394, 296.17846393585205, 296.29524397850037, 296.41208004951477, 296.52882194519043, 296.6456410884857, 296.76258301734924, 296.87922406196594, 296.9964439868927, 297.11282110214233, 297.2295880317688, 297.34641003608704, 297.46335101127625, 297.6894700527191]	[293.58560094823406, 293.7022676148941, 294.6852676148941, 294.8519676148941, 295.6019676148941, 295.7186342815541, 295.8353009482141, 295.95196761487415, 296.0686342815342, 296.1853009481942, 296.3019676148542, 296.41863428151424, 296.53530094817427, 296.6519676148343, 296.7686342814943, 296.88530094815434, 297.00196761481436, 297.1186342814744, 297.2353009481344, 297.35196761479443, 297.46863428145446, 297.7019676147878]	2021_Feb_01_1415	59.92581966978894	1	0.375
18	50	FALSE	NN	a	['U', 'A', 'K', 'N', 'Y', 'Z', 'P', 'S', 'G', 'R', 'E', 'H', 'V', 'M', 'B', 'W']	[2059, 697, 1122, 1335, 2670, 2911, 1456, 1731, 944, 1587, 904, 986, 2245, 1224, 760, 2448]	14	Absent	NA	NA	ABSENT	0.6353819370269775	299.6903290748596	301.69995188713074	302.9832923729481	303.33329428027673	305.80583691596985	4.105885028839111	[299.69915199279785, 299.8157379627228, 300.78916096687317, 300.9671890735626, 301.7179501056671, 301.8346691131592, 301.9515619277954, 302.06816601753235, 302.18500089645386, 302.30178809165955, 302.4187059402466, 302.5353500843048, 302.6521370410919, 302.768914937973, 302.8859441280365, 303.00263595581055, 303.1193380355835, 303.2362539768219, 303.35309505462646, 303.4698839187622, 303.58647203445435, 303.80583596229553]	[299.7019676147878, 299.8186342814478, 300.80163428144783, 300.9683342814478, 301.7183342814478, 301.83500094810785, 301.95166761476787, 302.0683342814279, 302.1850009480879, 302.30166761474794, 302.41833428140797, 302.535000948068, 302.651667614728, 302.76833428138804, 302.88500094804806, 303.0016676147081, 303.1183342813681, 303.23500094802813, 303.35166761468815, 303.4683342813482, 303.5850009480082, 303.81833428134155]	2021_Feb_01_1415	59.92581966978894	1	0.375
18	51	FALSE	NN	a	['Z', 'J', 'P', 'Y', 'M', 'R', 'S', 'W', 'N', 'G', 'T', 'E', 'B', 'H', 'C', 'V']	[2911, 1029, 1456, 2670, 1224, 1587, 1731, 2448, 1335, 944, 1888, 904, 760, 986, 829, 2245]	14	Absent	NA	NA	ABSENT	0.16811513900756836	305.8136019706726	307.8157570362091	309.0990982372822	309.4491003830294	311.92220401763916	4.106446981430054	[305.8224470615387, 305.9391930103302, 306.90552401542664, 307.09076595306396, 307.8411428928375, 307.958153963089, 308.0748040676117, 308.1915330886841, 308.3083040714264, 308.42525911331177, 308.5420479774475, 308.6586699485779, 308.77559995651245, 308.8924059867859, 309.00916600227356, 309.12586402893066, 309.2425289154053, 309.35936999320984, 309.47618293762207, 309.59287691116333, 309.70973896980286, 309.92220306396484]	[305.81833428134155, 305.9350009480016, 306.9180009480016, 307.08470094800157, 307.83470094800157, 307.9513676146616, 308.0680342813216, 308.18470094798164, 308.30136761464166, 308.4180342813017, 308.5347009479617, 308.65136761462173, 308.76803428128176, 308.8847009479418, 309.0013676146018, 309.1180342812618, 309.23470094792185, 309.3513676145819, 309.4680342812419, 309.5847009479019, 309.70136761456195, 309.9347009478953]	2021_Feb_01_1415	59.92581966978894	1	0.375
18	52	FALSE	VV	a	['H', 'G', 'P', 'R', 'S', 'B', 'surprise', 'U', 'Z', 'X', 'A', 'T', 'V', 'K', 'J', 'C']	[986, 944, 1456, 1587, 1731, 760, 'stimAuditory/all_stimAuditory/215.wav', 2059, 2911, 4000, 697, 1888, 2245, 1122, 1029, 829]	10	Present	NA	NA	PRESENT	0.23745107650756836	311.91995096206665	313.93228793144226	314.7489617506196	315.0989636579483	318.0385699272156	4.106281995773315	[311.92877411842346, 312.04557609558105, 313.0218930244446, 313.1968870162964, 313.94775795936584, 314.0644431114197, 314.1815040111542, 314.29802894592285, 314.4150629043579, 314.5316460132599, 314.6485879421234, 314.7653000354767, 314.88209104537964, 314.9989171028137, 315.11576294898987, 315.23240995407104, 315.349219083786, 315.4660339355469, 315.58286690711975, 315.69964504241943, 315.8163380622864, 316.03856897354126]	[311.9347009478953, 312.0513676145553, 313.0343676145553, 313.2010676145553, 313.9510676145553, 314.06773428121534, 314.18440094787536, 314.3010676145354, 314.4177342811954, 314.53440094785543, 314.65106761451545, 314.7677342811755, 314.8844009478355, 315.0010676144955, 315.11773428115555, 315.2344009478156, 315.3510676144756, 315.4677342811356, 315.58440094779564, 315.70106761445567, 315.8177342811157, 316.05106761444904]	2021_Feb_01_1415	59.92581966978894	1	0.375
18	53	FALSE	NA	a	['G', 'R', 'C', 'U', 'V', 'M', 'Y', 'A', 'X', 'S', 'N', 'P', 'H', 'Z', 'J', 'B']	[944, 1587, 829, 2059, 2245, 1224, 2670, 697, 4000, 1731, 1335, 1456, 986, 2911, 1029, 760]	9	Present	NA	NA	PRESENT	0.03379416465759277	318.04367995262146	320.0485360622406	320.74854488368806	321.0985470294352	324.1549370288849	4.106400966644287	[318.0525040626526, 318.1689119338989, 319.1382601261139, 319.3203299045563, 320.0708680152893, 320.1878089904785, 320.30478501319885, 320.42147302627563, 320.5383110046387, 320.655002117157, 320.77181792259216, 320.8887059688568, 321.005331993103, 321.12228202819824, 321.2391119003296, 321.3556969165802, 321.47255396842957, 321.58930706977844, 321.7059979438782, 321.8228380680084, 321.93980503082275, 322.1549370288849]	[318.05106761444904, 318.16773428110906, 319.15073428110907, 319.31743428110906, 320.06743428110906, 320.1841009477691, 320.3007676144291, 320.41743428108913, 320.53410094774915, 320.6507676144092, 320.7674342810692, 320.8841009477292, 321.00076761438925, 321.11743428104927, 321.2341009477093, 321.3507676143693, 321.46743428102934, 321.58410094768936, 321.7007676143494, 321.8174342810094, 321.93410094766944, 322.1674342810028]	2021_Feb_01_1415	59.92581966978894	1	0.375
18	54	FALSE	NA	a	['M', 'S', 'G', 'C', 'Y', 'B', 'K', 'U', 'W', 'V', 'J', 'E', 'Z', 'X', 'N', 'R']	[1224, 1731, 944, 829, 2670, 760, 1122, 2059, 2448, 2245, 1029, 904, 2911, 4000, 1335, 1587]	14	Present	NA	NA	PRESENT	0.1271829605102539	324.1666009426117	326.16501808166504	327.4483592827381	327.79836023639245	330.2713029384613	4.106284856796265	[324.1754240989685, 324.29233503341675, 325.2546260356903, 325.4267370700836, 326.19444704055786, 326.294322013855, 326.4113290309906, 326.5278260707855, 326.64491295814514, 326.76150012016296, 326.87849497795105, 326.99523091316223, 327.1118540763855, 327.2286410331726, 327.34543895721436, 327.4622139930725, 327.5791389942169, 327.6957859992981, 327.8125720024109, 327.92963099479675, 328.046245098114, 328.2713029384613]	[324.1674342810028, 324.2841009476628, 325.2671009476628, 325.4338009476628, 326.1838009476628, 326.3004676143228, 326.41713428098285, 326.5338009476429, 326.6504676143029, 326.7671342809629, 326.88380094762294, 327.00046761428297, 327.117134280943, 327.233800947603, 327.35046761426304, 327.46713428092306, 327.5838009475831, 327.7004676142431, 327.81713428090313, 327.93380094756316, 328.0504676142232, 328.28380094755653]	2021_Feb_01_1415	59.92581966978894	1	0.375
18	55	FALSE	VV	a	['B', 'G', 'J', 'E', 'Z', 'H', 'P', 'M', 'V', 'Y', 'surprise', 'S', 'R', 'X', 'A', 'K']	[760, 944, 1029, 904, 2911, 986, 1456, 1224, 2245, 2670, 'stimAuditory/all_stimAuditory/123.wav', 1731, 1587, 4000, 697, 1122]	14	Present	NA	NA	PRESENT	0.20358014106750488	330.27325201034546	332.2813620567322	333.56470325780526	333.9147054035525	336.3876700401306	4.1063079833984375	[330.2820749282837, 330.39889192581177, 331.37099504470825, 331.550185918808, 332.30085611343384, 332.41763496398926, 332.5345230102539, 332.65127897262573, 332.76809906959534, 332.88471603393555, 333.0017800331116, 333.11836099624634, 333.23541712760925, 333.35210704803467, 333.4689099788666, 333.58556389808655, 333.70249009132385, 333.81923604011536, 333.9358699321747, 334.052894115448, 334.1694960594177, 334.3876690864563]	[330.28380094755653, 330.40046761421655, 331.38346761421656, 331.55016761421655, 332.30016761421655, 332.41683428087657, 332.5335009475366, 332.6501676141966, 332.76683428085664, 332.88350094751667, 333.0001676141767, 333.1168342808367, 333.23350094749674, 333.35016761415676, 333.4668342808168, 333.5835009474768, 333.70016761413683, 333.81683428079685, 333.9335009474569, 334.0501676141169, 334.1668342807769, 334.4001676141103]	2021_Feb_01_1415	59.92581966978894	1	0.375
18	56	FALSE	NA	a	['B', 'V', 'K', 'P', 'Y', 'N', 'J', 'A', 'G', 'T', 'Z', 'C', 'X', 'H', 'M', 'E']	[760, 2245, 1122, 1456, 2670, 1335, 1029, 697, 944, 1888, 2911, 829, 4000, 986, 1224, 904]	13	Present	NA	NA	PRESENT	0.08924508094787598	336.3966269493103	338.39771699905396	339.56439272555997	339.9143946328886	342.50403690338135	4.106319904327393	[336.40546202659607, 336.52209401130676, 337.48736095428467, 337.6734149456024, 338.42459297180176, 338.5410590171814, 338.6577160358429, 338.7746500968933, 338.89128398895264, 339.0082709789276, 339.12502908706665, 339.2418370246887, 339.3585829734802, 339.4584939479828, 339.5752840042114, 339.6921479701996, 339.8088130950928, 339.9257130622864, 340.0425441265106, 340.15924191474915, 340.2760260105133, 340.50403594970703]	[336.4001676141103, 336.5168342807703, 337.4998342807703, 337.6665342807703, 338.4165342807703, 338.5332009474303, 338.64986761409034, 338.76653428075036, 338.8832009474104, 338.9998676140704, 339.11653428073043, 339.23320094739046, 339.3498676140505, 339.4665342807105, 339.5832009473705, 339.69986761403055, 339.8165342806906, 339.9332009473506, 340.0498676140106, 340.16653428067065, 340.28320094733067, 340.516534280664]	2021_Feb_01_1415	59.92581966978894	1	0.375
18	57	FALSE	NA	a	['V', 'N', 'C', 'G', 'H', 'P', 'E', 'T', 'X', 'R', 'J', 'U', 'S', 'Z', 'A', 'K']	[2245, 1335, 829, 944, 986, 1456, 904, 1888, 4000, 1587, 1029, 2059, 1731, 2911, 697, 1122]	9	Present	NA	NA	PRESENT	0.1016831398010254	342.50309205055237	344.51411604881287	345.2141229629117	345.56412510865886	348.62040400505066	4.106287956237793	[342.5119159221649, 342.6284749507904, 343.6037290096283, 343.7800099849701, 344.53075194358826, 344.6474220752716, 344.7644169330597, 344.8811740875244, 344.9979770183563, 345.11470794677734, 345.23156809806824, 345.348237991333, 345.46519804000854, 345.581885099411, 345.6987030506134, 345.815584897995, 345.9321029186249, 346.04888010025024, 346.16591000556946, 346.28263092041016, 346.39937710762024, 346.62040400505066]	[342.516534280664, 342.63320094732404, 343.61620094732405, 343.78290094732404, 344.53290094732404, 344.64956761398406, 344.7662342806441, 344.8829009473041, 344.99956761396413, 345.11623428062416, 345.2329009472842, 345.3495676139442, 345.4662342806042, 345.58290094726425, 345.6995676139243, 345.8162342805843, 345.9329009472443, 346.04956761390434, 346.16623428056437, 346.2829009472244, 346.3995676138844, 346.63290094721776]	2021_Feb_01_1415	59.92581966978894	1	0.375
18	58	FALSE	NA	a	['B', 'H', 'R', 'Z', 'U', 'Y', 'K', 'J', 'C', 'A', 'N', 'X', 'T', 'M', 'W', 'G']	[760, 986, 1587, 2911, 2059, 2670, 1122, 1029, 829, 697, 1335, 4000, 1888, 1224, 2448, 944]	12	Present	NA	NA	PRESENT	0.18592405319213867	348.6267399787903	350.63038992881775	351.6803980349894	352.03039994231807	354.73676896095276	4.10637903213501	[348.6355640888214, 348.7520890235901, 349.72009110450745, 349.9033770561218, 350.6538770198822, 350.7708671092987, 350.8878049850464, 351.00447392463684, 351.12123703956604, 351.23783111572266, 351.35487699508667, 351.47162795066833, 351.5883240699768, 351.7052390575409, 351.8218879699707, 351.93861293792725, 352.055547952652, 352.1724190711975, 352.2890419960022, 352.405837059021, 352.5225820541382, 352.7367699146271]	[348.63290094721776, 348.7495676138778, 349.7325676138778, 349.8992676138778, 350.6492676138778, 350.7659342805378, 350.88260094719783, 350.99926761385785, 351.1159342805179, 351.2326009471779, 351.3492676138379, 351.46593428049795, 351.58260094715797, 351.699267613818, 351.815934280478, 351.93260094713804, 352.04926761379807, 352.1659342804581, 352.2826009471181, 352.39926761377814, 352.51593428043816, 352.7492676137715]	2021_Feb_01_1415	59.92581966978894	1	0.375
18	59	FALSE	NA	a	['N', 'M', 'Y', 'H', 'Z', 'K', 'S', 'C', 'P', 'R', 'X', 'V', 'U', 'G', 'J', 'W']	[1335, 1224, 2670, 986, 2911, 1122, 1731, 829, 1456, 1587, 4000, 2245, 2059, 944, 1029, 2448]	11	Present	NA	NA	PRESENT	0.0635840892791748	354.7496190071106	356.74700808525085	357.68034833266967	358.03035023999826	360.8531370162964	4.106128931045532	[354.75844502449036, 354.8584039211273, 355.8364610671997, 356.00969910621643, 356.76050090789795, 356.8772919178009, 356.99427103996277, 357.1110610961914, 357.22791504859924, 357.34473609924316, 357.4614670276642, 357.57815289497375, 357.69504404067993, 357.8117558956146, 357.928729057312, 358.0454170703888, 358.162250995636, 358.27884697914124, 358.39563393592834, 358.51247000694275, 358.6292519569397, 358.85313606262207]	[354.7492676137715, 354.86593428043153, 355.84893428043154, 356.0156342804315, 356.7656342804315, 356.88230094709155, 356.9989676137516, 357.1156342804116, 357.2323009470716, 357.34896761373165, 357.46563428039167, 357.5823009470517, 357.6989676137117, 357.81563428037174, 357.93230094703176, 358.0489676136918, 358.1656342803518, 358.28230094701183, 358.39896761367186, 358.5156342803319, 358.6323009469919, 358.86563428032525]	2021_Feb_01_1415	59.92581966978894	1	0.375
18	60	FALSE	NA	a	['E', 'U', 'K', 'Z', 'M', 'A', 'T', 'C', 'X', 'N', 'H', 'S', 'J', 'Y', 'W', 'B']	[904, 2059, 1122, 2911, 1224, 697, 1888, 829, 4000, 1335, 986, 1731, 1029, 2670, 2448, 760]	9	Present	NA	NA	PRESENT	0.14801502227783203	360.8563408851623	362.8631370067597	363.56314392085847	363.9131470202799	366.9695029258728	4.106365919113159	[360.86517691612244, 360.9817340373993, 361.95282196998596, 362.1330499649048, 362.8837311267853, 363.0007600784302, 363.11756205558777, 363.2343039512634, 363.3512101173401, 363.46797490119934, 363.5844430923462, 363.7013909816742, 363.8183810710907, 363.9351079463959, 364.05171608924866, 364.1686770915985, 364.28535294532776, 364.4023311138153, 364.51906991004944, 364.6356029510498, 364.7525489330292, 364.9695019721985]	[360.86563428032525, 360.9823009469853, 361.9653009469853, 362.1320009469853, 362.8820009469853, 362.9986676136453, 363.1153342803053, 363.23200094696534, 363.34866761362537, 363.4653342802854, 363.5820009469454, 363.69866761360544, 363.81533428026546, 363.9320009469255, 364.0486676135855, 364.16533428024553, 364.28200094690555, 364.3986676135656, 364.5153342802256, 364.6320009468856, 364.74866761354565, 364.982000946879]	2021_Feb_01_1415	59.92581966978894	1	0.375
18	61	FALSE	NN	a	['T', 'C', 'G', 'S', 'M', 'W', 'E', 'V', 'Y', 'J', 'A', 'B', 'N', 'P', 'R', 'Z']	[1888, 829, 944, 1731, 1224, 2448, 904, 2245, 2670, 1029, 697, 760, 1335, 1456, 1587, 2911]	11	Absent	NA	NA	ABSENT	0.28954005241394043	366.9794509410858	368.97976088523865	369.9131023247503	370.26310423207894	373.0858700275421	4.106109142303467	[366.9882740974426, 367.10509395599365, 368.06919598579407, 368.25651502609253, 369.0071198940277, 369.12407207489014, 369.22389793395996, 369.34073090553284, 369.45752811431885, 369.5743958950043, 369.69112491607666, 369.80791997909546, 369.9247109889984, 370.04150891304016, 370.15831303596497, 370.27508902549744, 370.3920741081238, 370.50864911079407, 370.6253819465637, 370.7423629760742, 370.85899806022644, 371.08587098121643]	[366.982000946879, 367.098667613539, 368.081667613539, 368.248367613539, 368.998367613539, 369.11503428019904, 369.23170094685906, 369.3483676135191, 369.4650342801791, 369.58170094683913, 369.69836761349916, 369.8150342801592, 369.9317009468192, 370.04836761347923, 370.16503428013925, 370.2817009467993, 370.3983676134593, 370.5150342801193, 370.63170094677935, 370.74836761343937, 370.8650342800994, 371.09836761343274]	2021_Feb_01_1415	59.92581966978894	1	0.375
18	62	FALSE	NN	a	['M', 'P', 'J', 'Z', 'N', 'U', 'V', 'W', 'B', 'C', 'E', 'Y', 'K', 'A', 'H', 'R']	[1224, 1456, 1029, 2911, 1335, 2059, 2245, 2448, 760, 829, 904, 2670, 1122, 697, 986, 1587]	11	Absent	NA	NA	ABSENT	0.5097920894622803	373.0859959125519	375.0960919857025	376.0294322331213	376.3794353325428	379.2022371292114	4.106145143508911	[373.0948190689087, 373.2117578983307, 374.18556094169617, 374.36306500434875, 375.1137480735779, 375.23045897483826, 375.34744596481323, 375.46417593955994, 375.58093309402466, 375.6975910663605, 375.81440711021423, 375.9312860965729, 376.04816603660583, 376.1649479866028, 376.2815930843353, 376.39863109588623, 376.51539492607117, 376.632257938385, 376.74896693229675, 376.8656589984894, 376.9823839664459, 377.20223808288574]	[373.09836761343274, 373.21503428009277, 374.19803428009277, 374.36473428009276, 375.11473428009276, 375.2314009467528, 375.3480676134128, 375.46473428007283, 375.58140094673286, 375.6980676133929, 375.8147342800529, 375.9314009467129, 376.04806761337295, 376.164734280033, 376.281400946693, 376.398067613353, 376.51473428001304, 376.63140094667307, 376.7480676133331, 376.8647342799931, 376.98140094665314, 377.2147342799865]	2021_Feb_01_1415	59.92581966978894	1	0.375
18	63	FALSE	NA	a	['Y', 'J', 'B', 'S', 'N', 'R', 'M', 'W', 'E', 'C', 'G', 'X', 'U', 'V', 'H', 'P']	[2670, 1029, 760, 1731, 1335, 1587, 1224, 2448, 904, 829, 944, 4000, 2059, 2245, 986, 1456]	12	Present	NA	NA	PRESENT	0.258512020111084	379.2095730304718	381.2122869491577	382.2622950553294	382.6122969626581	385.31860399246216	4.106317043304443	[379.21839809417725, 379.3349800109863, 380.30192708969116, 380.4862461090088, 381.23698902130127, 381.35384011268616, 381.47063398361206, 381.58745312690735, 381.70428705215454, 381.82109093666077, 381.9377999305725, 382.05469608306885, 382.17139196395874, 382.2881889343262, 382.4049229621887, 382.52184200286865, 382.63856506347656, 382.7553939819336, 382.87205696105957, 382.9888288974762, 383.1056089401245, 383.31860303878784]	[379.2147342799865, 379.3314009466465, 380.3144009466465, 380.4811009466465, 381.2311009466465, 381.34776761330653, 381.46443427996655, 381.5811009466266, 381.6977676132866, 381.8144342799466, 381.93110094660665, 382.04776761326667, 382.1644342799267, 382.2811009465867, 382.39776761324674, 382.51443427990677, 382.6311009465668, 382.7477676132268, 382.86443427988684, 382.98110094654686, 383.0977676132069, 383.33110094654023]	2021_Feb_01_1415	59.92581966978894	1	0.375
18	64	FALSE	AA	a	['H', 'G', 'A', 'R', 'C', 'W', 'surprise', 'K', 'S', 'X', 'Y', 'Z', 'B', 'E', 'P', 'U']	[986, 944, 697, 1587, 829, 2448, 'stimAuditory/all_stimAuditory/201.wav', 1122, 1731, 4000, 2670, 2911, 760, 904, 1456, 2059]	10	Present	stimAuditory/all_stimAuditory/223.wav	NA	PRESENT	0.08754920959472656	385.3158760070801	387.3287160396576	388.1453905740907	388.4953927198379	391.43496894836426	4.106252908706665	[385.3246989250183, 385.4414839744568, 386.4182929992676, 386.59288811683655, 387.34360003471375, 387.460501909256, 387.5772979259491, 387.69402289390564, 387.8109610080719, 387.92761301994324, 388.04448199272156, 388.1611759662628, 388.2779281139374, 388.3948030471802, 388.5114679336548, 388.6284520626068, 388.74524211883545, 388.86194491386414, 388.97893595695496, 389.09543204307556, 389.21218705177307, 389.43496894836426]	[385.33110094654023, 385.44776761320026, 386.43076761320026, 386.59746761320025, 387.34746761320025, 387.4641342798603, 387.5808009465203, 387.6974676131803, 387.81413427984035, 387.93080094650037, 388.0474676131604, 388.1641342798204, 388.28080094648044, 388.39746761314046, 388.5141342798005, 388.6308009464605, 388.74746761312053, 388.86413427978056, 388.9808009464406, 389.0974676131006, 389.21413427976063, 389.447467613094]	2021_Feb_01_1415	59.92581966978894	1	0.375
18	65	FALSE	NV	a	['Y', 'C', 'U', 'E', 'J', 'W', 'B', 'K', 'G', 'T', 'Z', 'P', 'H', 'X', 'N', 'R']	[2670, 829, 2059, 904, 1029, 2448, 760, 1122, 944, 1888, 2911, 1456, 986, 4000, 1335, 1587]	14	Present	NA	NA	PRESENT	0.0843808650970459	391.4391610622406	393.44507098197937	394.72841242147103	395.0784143287997	397.5513370037079	4.106266021728516	[391.44798398017883, 391.5648090839386, 392.5346601009369, 392.7160620689392, 393.4667479991913, 393.583683013916, 393.7004499435425, 393.817440032959, 393.9339780807495, 394.0509259700775, 394.1677041053772, 394.2843499183655, 394.4013171195984, 394.5180389881134, 394.63495898246765, 394.7516899108887, 394.86829590797424, 394.9852759838104, 395.10206389427185, 395.2187149524689, 395.33556389808655, 395.5513370037079]	[391.447467613094, 391.564134279754, 392.547134279754, 392.713834279754, 393.463834279754, 393.580500946414, 393.69716761307404, 393.81383427973407, 393.9305009463941, 394.0471676130541, 394.16383427971414, 394.28050094637416, 394.3971676130342, 394.5138342796942, 394.63050094635423, 394.74716761301426, 394.8638342796743, 394.9805009463343, 395.0971676129943, 395.21383427965435, 395.3305009463144, 395.5638342796477]	2021_Feb_01_1415	59.92581966978894	1	0.375
18	66	FALSE	NN	a	['G', 'U', 'B', 'Z', 'N', 'M', 'W', 'K', 'A', 'Y', 'R', 'J', 'S', 'C', 'V', 'T']	[944, 2059, 760, 2911, 1335, 1224, 2448, 1122, 697, 2670, 1587, 1029, 1731, 829, 2245, 1888]	12	Absent	NA	NA	ABSENT	0.21748900413513184	397.5623528957367	399.56128001213074	400.6112881183024	400.96129002563106	403.6677029132843	4.1064229011535645	[397.5711760520935, 397.6882119178772, 398.6510269641876, 398.8226010799408, 399.5905270576477, 399.6900990009308, 399.8071401119232, 399.9237289428711, 400.0407531261444, 400.1573851108551, 400.27430510520935, 400.3909559249878, 400.5078558921814, 400.62454199790955, 400.7414901256561, 400.85823607444763, 400.9751019477844, 401.09160900115967, 401.20866799354553, 401.32546210289, 401.44209694862366, 401.6677029132843]	[397.5638342796477, 397.68050094630775, 398.66350094630775, 398.83020094630774, 399.58020094630774, 399.69686761296776, 399.8135342796278, 399.9302009462878, 400.04686761294784, 400.16353427960786, 400.2802009462679, 400.3968676129279, 400.51353427958793, 400.63020094624795, 400.746867612908, 400.863534279568, 400.980200946228, 401.09686761288805, 401.21353427954807, 401.3302009462081, 401.4468676128681, 401.68020094620147]	2021_Feb_01_1415	59.92581966978894	1	0.375
18	67	FALSE	NV	a	['W', 'J', 'A', 'Y', 'N', 'U', 'P', 'C', 'S', 'K', 'R', 'X', 'V', 'E', 'M', 'B']	[2448, 1029, 697, 2670, 1335, 2059, 1456, 829, 1731, 1122, 1587, 4000, 2245, 904, 1224, 760]	12	Present	NA	NA	PRESENT	0.06996798515319824	403.66902208328247	405.67785000801086	406.72785906785685	407.0778609751855	409.7840700149536	4.106220006942749	[403.677845954895, 403.79457902908325, 404.76739501953125, 404.9460139274597, 405.696741104126, 405.8135690689087, 405.93017196655273, 406.04708790779114, 406.1637930870056, 406.2806839942932, 406.3975911140442, 406.5144000053406, 406.63101506233215, 406.7479989528656, 406.86469197273254, 406.9815230369568, 407.098237991333, 407.2151861190796, 407.3318691253662, 407.4485239982605, 407.5658149719238, 407.7840690612793]	[403.68020094620147, 403.7968676128615, 404.7798676128615, 404.9465676128615, 405.6965676128615, 405.8132342795215, 405.92990094618153, 406.04656761284156, 406.1632342795016, 406.2799009461616, 406.3965676128216, 406.51323427948165, 406.6299009461417, 406.7465676128017, 406.8632342794617, 406.97990094612175, 407.09656761278177, 407.2132342794418, 407.3299009461018, 407.44656761276184, 407.56323427942186, 407.7965676127552]	2021_Feb_01_1415	59.92581966978894	1	0.375
18	68	FALSE	NA	a	['E', 'V', 'H', 'T', 'Z', 'C', 'U', 'X', 'W', 'Y', 'A', 'P', 'K', 'N', 'S', 'J']	[904, 2245, 986, 1888, 2911, 829, 2059, 4000, 2448, 2670, 697, 1456, 1122, 1335, 1731, 1029]	8	Present	NA	NA	PRESENT	0.0916450023651123	409.79278111457825	411.79419589042664	412.37753828363265	412.7275404293798	415.9004371166229	4.106241226196289	[409.8016049861908, 409.9178879261017, 410.8837580680847, 411.0693190097809, 411.82000207901, 411.9369239807129, 412.05353307724, 412.17033195495605, 412.28713512420654, 412.40410590171814, 412.5208249092102, 412.6375319957733, 412.75441908836365, 412.87132811546326, 412.98808908462524, 413.10480403900146, 413.22177290916443, 413.3215169906616, 413.43836402893066, 413.5551209449768, 413.6720061302185, 413.90043592453003]	[409.7965676127552, 409.91323427941524, 410.89623427941524, 411.06293427941523, 411.81293427941523, 411.92960094607525, 412.0462676127353, 412.1629342793953, 412.2796009460553, 412.39626761271535, 412.5129342793754, 412.6296009460354, 412.7462676126954, 412.86293427935544, 412.97960094601547, 413.0962676126755, 413.2129342793355, 413.32960094599554, 413.44626761265556, 413.5629342793156, 413.6796009459756, 413.91293427930896]	2021_Feb_01_1415	59.92581966978894	1	0.375
18	69	FALSE	NV	a	['T', 'M', 'E', 'V', 'K', 'N', 'W', 'B', 'H', 'S', 'R', 'Y', 'G', 'X', 'Z', 'C']	[1888, 1224, 904, 2245, 1122, 1335, 2448, 760, 986, 1731, 1587, 2670, 944, 4000, 2911, 829]	14	Present	NA	NA	PRESENT	0.21607589721679688	415.89878702163696	417.91037797927856	419.19371822667733	419.54372037242456	422.01680302619934	4.106425046920776	[415.9076099395752, 416.02445101737976, 417.00012612342834, 417.17593002319336, 417.92651891708374, 418.0433509349823, 418.16032910346985, 418.2770619392395, 418.3939290046692, 418.51062393188477, 418.6275300979614, 418.7442030906677, 418.8608260154724, 418.9780991077423, 419.0943579673767, 419.21148109436035, 419.3281910419464, 419.44497990608215, 419.5617940425873, 419.6785840988159, 419.7952950000763, 420.016802072525]	[415.91293427930896, 416.029600945969, 417.012600945969, 417.179300945969, 417.929300945969, 418.045967612629, 418.162634279289, 418.27930094594905, 418.39596761260907, 418.5126342792691, 418.6293009459291, 418.74596761258914, 418.86263427924916, 418.9793009459092, 419.0959676125692, 419.21263427922923, 419.32930094588926, 419.4459676125493, 419.5626342792093, 419.67930094586933, 419.79596761252935, 420.0293009458627]	2021_Feb_01_1415	59.92581966978894	1	0.375
18	70	FALSE	NA	a	['T', 'E', 'S', 'N', 'W', 'R', 'K', 'C', 'U', 'V', 'B', 'X', 'M', 'P', 'Y', 'Z']	[1888, 904, 1731, 1335, 2448, 1587, 1122, 829, 2059, 2245, 760, 4000, 1224, 1456, 2670, 2911]	12	Present	NA	NA	PRESENT	0.10058116912841795	422.0222918987274	424.0270140171051	425.0770209311839	425.4270230769311	428.13317012786865	4.10615611076355	[422.03111505508423, 422.1477630138397, 423.1164939403534, 423.2990860939026, 424.0499219894409, 424.16674995422363, 424.2833459377289, 424.40036511421204, 424.5170359611511, 424.6339499950409, 424.75071692466736, 424.86746096611023, 424.9842801094055, 425.1010630130768, 425.2179129123688, 425.3345410823822, 425.45136189460754, 425.5682489871979, 425.6850790977478, 425.8017361164093, 425.9186460971832, 426.13317108154297]	[422.0293009458627, 422.1459676125227, 423.12896761252273, 423.2956676125227, 424.0456676125227, 424.16233427918274, 424.27900094584277, 424.3956676125028, 424.5123342791628, 424.62900094582284, 424.74566761248286, 424.8623342791429, 424.9790009458029, 425.09566761246293, 425.21233427912296, 425.329000945783, 425.445667612443, 425.562334279103, 425.67900094576305, 425.7956676124231, 425.9123342790831, 426.14566761241645]	2021_Feb_01_1415	59.92581966978894	1	0.375
18	71	FALSE	NN	a	['Y', 'C', 'N', 'B', 'U', 'E', 'P', 'S', 'Z', 'H', 'R', 'T', 'A', 'V', 'K', 'G']	[2670, 829, 1335, 760, 2059, 904, 1456, 1731, 2911, 986, 1587, 1888, 697, 2245, 1122, 944]	12	Absent	NA	NA	ABSENT	0.04994010925292969	428.1454119682312	430.14316511154175	431.1931729792949	431.5431748866235	434.24953603744507	4.10637092590332	[428.1542479991913, 428.25417494773865, 429.2328610420227, 429.4058299064636, 430.17297196388245, 430.27316212654114, 430.3902769088745, 430.5068709850311, 430.62350606918335, 430.7403860092163, 430.8572289943695, 430.9739570617676, 431.0906939506531, 431.20756006240845, 431.3244800567627, 431.4412090778351, 431.5579299926758, 431.67490100860596, 431.79171204566956, 431.9085519313812, 432.0250680446625, 432.2495369911194]	[428.14566761241645, 428.26233427907647, 429.2453342790765, 429.41203427907647, 430.16203427907647, 430.2787009457365, 430.3953676123965, 430.51203427905654, 430.62870094571656, 430.7453676123766, 430.8620342790366, 430.97870094569663, 431.09536761235665, 431.2120342790167, 431.3287009456767, 431.4453676123367, 431.56203427899675, 431.6787009456568, 431.7953676123168, 431.9120342789768, 432.02870094563684, 432.2620342789702]	2021_Feb_01_1415	59.92581966978894	1	0.375
18	72	FALSE	NV	a	['B', 'Z', 'J', 'V', 'G', 'M', 'E', 'A', 'X', 'N', 'K', 'S', 'T', 'W', 'C', 'U']	[760, 2911, 1029, 2245, 944, 1224, 904, 697, 4000, 1335, 1122, 1731, 1888, 2448, 829, 2059]	9	Present	NA	NA	PRESENT	0.2303318977355957	434.2521541118622	436.25966596603394	436.9596750259	437.30967597955424	440.3659029006958	4.106236934661865	[434.26097798347473, 434.3778250217438, 435.3492250442505, 435.52905011177063, 436.27978897094727, 436.39661502838135, 436.5134460926056, 436.6302421092987, 436.74685311317444, 436.8637731075287, 436.9804449081421, 437.0973949432373, 437.2140290737152, 437.331013917923, 437.4476900100708, 437.56441712379456, 437.68122911453247, 437.7981219291687, 437.91488695144653, 438.03165793418884, 438.1484520435333, 438.3659019470215]	[434.2620342789702, 434.3787009456302, 435.3617009456302, 435.5284009456302, 436.2784009456302, 436.39506761229023, 436.51173427895026, 436.6284009456103, 436.7450676122703, 436.8617342789303, 436.97840094559035, 437.0950676122504, 437.2117342789104, 437.3284009455704, 437.44506761223045, 437.56173427889047, 437.6784009455505, 437.7950676122105, 437.91173427887054, 438.02840094553056, 438.1450676121906, 438.37840094552394]	2021_Feb_01_1415	59.92581966978894	1	0.375
18	73	FALSE	NV	a	['V', 'N', 'M', 'G', 'S', 'H', 'U', 'K', 'C', 'Y', 'R', 'X', 'J', 'Z', 'T', 'P']	[2245, 1335, 1224, 944, 1731, 986, 2059, 1122, 829, 2670, 1587, 4000, 1029, 2911, 1888, 1456]	12	Present	NA	NA	PRESENT	0.16375303268432617	440.3757359981537	442.3763120174408	443.4263198851939	443.7763220309411	446.4822700023651	4.105957984924316	[440.3845601081848, 440.50100207328796, 441.46559500694275, 441.652370929718, 442.4030179977417, 442.51991391181946, 442.63657903671265, 442.75352597236633, 442.8533079624176, 442.9701199531555, 443.08694410324097, 443.2037661075592, 443.3205370903015, 443.4373528957367, 443.5541570186615, 443.6709599494934, 443.78775000572205, 443.904678106308, 444.0213270187378, 444.1383249759674, 444.25491309165955, 444.4822680950165]	[440.37840094552394, 440.49506761218396, 441.47806761218396, 441.64476761218395, 442.39476761218395, 442.511434278844, 442.628100945504, 442.744767612164, 442.86143427882405, 442.9781009454841, 443.0947676121441, 443.2114342788041, 443.32810094546414, 443.44476761212417, 443.5614342787842, 443.6781009454442, 443.79476761210424, 443.91143427876426, 444.0281009454243, 444.1447676120843, 444.26143427874433, 444.4947676120777]	2021_Feb_01_1415	59.92581966978894	1	0.375
18	74	FALSE	AV	a	['T', 'S', 'W', 'E', 'surprise', 'G', 'N', 'X', 'P', 'V', 'H', 'R', 'M', 'Y', 'Z', 'K']	[1888, 1731, 2448, 904, 'stimAuditory/all_stimAuditory/112.wav', 944, 1335, 4000, 1456, 2245, 986, 1587, 1224, 2670, 2911, 1122]	8	Present	stimAuditory/all_stimAuditory/212.wav	NA	PRESENT	0.19226598739624023	446.4821119308472	448.492427110672	449.0757692654594	449.42577141120665	452.5986371040344	4.106209993362427	[446.490935087204, 446.60747599601746, 447.58195996284485, 447.7589809894562, 448.5097019672394, 448.62646412849426, 448.74334192276, 448.859983921051, 448.9766569137573, 449.0936028957367, 449.2102019786835, 449.32700204849243, 449.4438490867615, 449.56072998046875, 449.6775839328766, 449.79432010650635, 449.9111568927765, 450.0282471179962, 450.14472699165344, 450.2614550590515, 450.3782958984375, 450.59863805770874]	[446.4947676120777, 446.6114342787377, 447.5944342787377, 447.7611342787377, 448.5111342787377, 448.6278009453977, 448.74446761205775, 448.86113427871777, 448.9778009453778, 449.0944676120378, 449.21113427869784, 449.32780094535786, 449.4444676120179, 449.5611342786779, 449.67780094533794, 449.79446761199796, 449.911134278658, 450.027800945318, 450.14446761197803, 450.26113427863805, 450.3778009452981, 450.6111342786314]	2021_Feb_01_1415	59.92581966978894	1	0.375
18	75	FALSE	NA	a	['P', 'M', 'J', 'U', 'R', 'W', 'T', 'G', 'C', 'V', 'K', 'Z', 'X', 'B', 'Y', 'H']	[1456, 1224, 1029, 2059, 1587, 2448, 1888, 944, 829, 2245, 1122, 2911, 4000, 760, 2670, 986]	13	Present	NA	NA	PRESENT	0.11681699752807616	452.60532689094543	454.60872507095337	455.77539865169217	456.1254005590208	458.7150030136109	4.106277942657471	[452.6141619682312, 452.73091101646423, 453.6983280181885, 453.8822009563446, 454.63281297683716, 454.74982500076294, 454.86650490760803, 454.983274936676, 455.1000111103058, 455.2169508934021, 455.3335340023041, 455.4503450393677, 455.5674149990082, 455.68408489227295, 455.8008270263672, 455.91775393486023, 456.0344820022583, 456.15107798576355, 456.2679879665375, 456.3846459388733, 456.50157499313354, 456.71500301361084]	[452.6111342786314, 452.72780094529145, 453.71080094529145, 453.87750094529144, 454.62750094529144, 454.74416761195147, 454.8608342786115, 454.9775009452715, 455.09416761193154, 455.21083427859156, 455.3275009452516, 455.4441676119116, 455.56083427857163, 455.67750094523166, 455.7941676118917, 455.9108342785517, 456.0275009452117, 456.14416761187175, 456.2608342785318, 456.3775009451918, 456.4941676118518, 456.72750094518517]	2021_Feb_01_1415	59.92581966978894	1	0.375
18	76	FALSE	NN	a	['W', 'N', 'Z', 'C', 'E', 'U', 'M', 'P', 'Y', 'J', 'T', 'A', 'B', 'V', 'K', 'S']	[2448, 1335, 2911, 829, 904, 2059, 1224, 1456, 2670, 1029, 1888, 697, 760, 2245, 1122, 1731]	13	Absent	NA	NA	ABSENT	0.25797510147094727	458.71166610717773	460.7250189781189	461.8916937509506	462.2416956582792	464.83137011528015	4.106351137161255	[458.72048807144165, 458.83731293678284, 459.8146929740906, 459.9888029098511, 460.7393629550934, 460.85646390914917, 460.9731469154358, 461.08983993530273, 461.20650601387024, 461.32346391677856, 461.44014406204224, 461.55699706077576, 461.673700094223, 461.79065704345703, 461.90731406211853, 462.0242280960083, 462.141154050827, 462.25788402557373, 462.3746690750122, 462.4915111064911, 462.60794496536255, 462.83137011528015]	[458.72750094518517, 458.8441676118452, 459.8271676118452, 459.9938676118452, 460.7438676118452, 460.8605342785052, 460.97720094516524, 461.09386761182526, 461.2105342784853, 461.3272009451453, 461.44386761180533, 461.56053427846535, 461.6772009451254, 461.7938676117854, 461.9105342784454, 462.02720094510545, 462.1438676117655, 462.2605342784255, 462.3772009450855, 462.49386761174554, 462.61053427840557, 462.8438676117389]	2021_Feb_01_1415	59.92581966978894	1	0.375
18	77	FALSE	VA	a	['H', 'C', 'Z', 'R', 'N', 'K', 'J', 'T', 'surprise', 'W', 'V', 'X', 'Y', 'E', 'P', 'B']	[986, 829, 2911, 1587, 1335, 1122, 1029, 1888, 'stimAuditory/all_stimAuditory/119.wav', 2448, 2245, 4000, 2670, 904, 1456, 760]	12	Present	NA	NA	PRESENT	0.09475994110107422	464.83510088920593	466.84160590171814	467.8916130542155	468.24161496154414	470.94773602485657	4.106130123138428	[464.84392404556274, 464.9608030319214, 465.9310610294342, 466.1120719909668, 466.86273312568665, 466.9796531200409, 467.0962800979614, 467.2129690647125, 467.33005595207214, 467.4467771053314, 467.56337809562683, 467.680193901062, 467.79696893692017, 467.91404700279236, 468.030818939209, 468.14735198020935, 468.2642500400543, 468.38106989860535, 468.4979839324951, 468.614511013031, 468.73161911964417, 468.94773602485657]	[464.8438676117389, 464.96053427839894, 465.94353427839894, 466.11023427839893, 466.86023427839893, 466.97690094505896, 467.093567611719, 467.210234278379, 467.32690094503903, 467.44356761169905, 467.5602342783591, 467.6769009450191, 467.7935676116791, 467.91023427833915, 468.02690094499917, 468.1435676116592, 468.2602342783192, 468.37690094497924, 468.49356761163926, 468.6102342782993, 468.7269009449593, 468.96023427829266]	2021_Feb_01_1415	59.92581966978894	1	0.375
18	78	FALSE	NV	a	['G', 'V', 'C', 'T', 'B', 'R', 'M', 'P', 'J', 'U', 'X', 'S', 'W', 'K', 'H', 'N']	[944, 2245, 829, 1888, 760, 1587, 1224, 1456, 1029, 2059, 4000, 1731, 2448, 1122, 986, 1335]	11	Present	NA	NA	PRESENT	0.09197521209716795	470.9585349559784	472.9577600955963	473.8911003430151	474.2411022503437	477.064101934433	4.10634183883667	[470.9673590660095, 471.0840389728546, 472.0474259853363, 472.2353460788727, 472.9859371185303, 473.0860159397125, 473.2028069496155, 473.3195481300354, 473.4363579750061, 473.55314803123474, 473.66991090774536, 473.7867200374603, 473.9035270214081, 474.02031898498535, 474.13709592819214, 474.2538800239563, 474.37069606781006, 474.4877099990845, 474.6043040752411, 474.7211101055145, 474.83797311782837, 475.0641040802002]	[470.96023427829266, 471.0769009449527, 472.0599009449527, 472.2266009449527, 472.9766009449527, 473.0932676116127, 473.2099342782727, 473.32660094493275, 473.4432676115928, 473.5599342782528, 473.6766009449128, 473.79326761157284, 473.90993427823287, 474.0266009448929, 474.1432676115529, 474.25993427821294, 474.37660094487296, 474.493267611533, 474.609934278193, 474.72660094485303, 474.84326761151306, 475.0766009448464]	2021_Feb_01_1415	59.92581966978894	1	0.375
18	79	FALSE	NA	a	['C', 'Z', 'R', 'B', 'G', 'S', 'M', 'P', 'Y', 'X', 'K', 'T', 'A', 'U', 'V', 'H']	[829, 2911, 1587, 760, 944, 1731, 1224, 1456, 2670, 4000, 1122, 1888, 697, 2059, 2245, 986]	10	Present	NA	NA	PRESENT	0.13645315170288086	477.0650589466095	479.0742070674896	479.89088160192273	480.2408837476699	483.1804699897766	4.106262922286987	[477.0738830566406, 477.1904981136322, 478.16379404067993, 478.34172892570496, 479.09251594543457, 479.2094190120697, 479.3261160850525, 479.44306111335754, 479.56000089645386, 479.6766269207001, 479.7932119369507, 479.9102680683136, 480.0269320011139, 480.14383006095886, 480.2605619430542, 480.3774130344391, 480.49411392211914, 480.6108500957489, 480.727735042572, 480.8446590900421, 480.96163296699524, 481.1804690361023]	[477.0766009448464, 477.1932676115064, 478.17626761150643, 478.3429676115064, 479.0929676115064, 479.20963427816645, 479.32630094482647, 479.4429676114865, 479.5596342781465, 479.67630094480654, 479.79296761146657, 479.9096342781266, 480.0263009447866, 480.14296761144664, 480.25963427810666, 480.3763009447667, 480.4929676114267, 480.60963427808673, 480.72630094474675, 480.8429676114068, 480.9596342780668, 481.19296761140015]	2021_Feb_01_1415	59.92581966978894	1	0.375
