participant	trial_num	practice	task	condition	RSVP	RAP	probePos	probe_presence	surprise_sound	surprise_img	probe_response	probe_resp_time	first_fixation_time	trial_start_time	surprise_start_time	probe_start_time	trial_end_time	trial_duration	actualEventTimes	plannedEventTimes	date	framerate	marker_vol	RAP_vol
18	1	FALSE	NA	v	['S', 'M', 'G', 'Z', 'B', 'H', 'R', 'X', 'V', 'T', 'U', 'K', 'Y', 'E', 'A', 'W']	[1731, 1224, 944, 2911, 760, 986, 1587, 4000, 2245, 1888, 2059, 1122, 2670, 904, 697, 2448]	8	Present	NA	NA	PRESENT	0.09945797920227052	2.86102294921875e-6	1.998363971710205	2.580049991607666	2.9299700260162354	6.103870153427124	4.105506181716919	[0.01126718521118164, 0.11087417602539062, 1.0954852104187012, 1.2620980739593506, 2.029693126678467, 2.129744052886963, 2.246515989303589, 2.36322021484375, 2.480070114135742, 2.596879005432129, 2.7137341499328613, 2.830641031265259, 2.947315216064453, 3.064204216003418, 3.180875062942505, 3.297865152359009, 3.41453218460083, 3.531306028366089, 3.6482300758361816, 3.7648332118988037, 3.8817660808563232, 4.10387110710144]	[1.1920928955078125e-06, 0.11666785875956216, 1.099667858759562, 1.2663678587595621, 2.016367858759562, 2.1330345254262286, 2.2497011920928953, 2.366367858759562, 2.4830345254262287, 2.5997011920928954, 2.716367858759562, 2.833034525426229, 2.9497011920928955, 3.066367858759562, 3.183034525426229, 3.2997011920928956, 3.4163678587595623, 3.533034525426229, 3.6497011920928957, 3.7663678587595624, 3.883034525426229, 4.1163678587595625]	2021_Feb_01_1439	59.88278444759494	1	1
18	2	FALSE	NA	v	['W', 'K', 'N', 'E', 'M', 'H', 'B', 'U', 'X', 'P', 'S', 'G', 'Z', 'Y', 'R', 'C']	[2448, 1122, 1335, 904, 1224, 986, 760, 2059, 4000, 1456, 1731, 944, 2911, 2670, 1587, 829]	9	Present	NA	NA	PRESENT	0.06416201591491699	6.106175899505615	8.11169981956482	8.81191086769104	9.16202688217163	12.220237016677856	4.108537197113037	[6.117440223693848, 6.234148025512695, 7.218810081481934, 7.3855061531066895, 8.136291027069092, 8.252955198287964, 8.369935035705566, 8.486754179000854, 8.603543996810913, 8.7202730178833, 8.837153196334839, 8.953785181045532, 9.070716142654419, 9.18756914138794, 9.304225206375122, 9.421069145202637, 9.537817001342773, 9.654645204544067, 9.771584033966064, 9.888121128082275, 10.005352020263672, 10.220237016677856]	[6.1163678587595625, 6.233034525426229, 7.216034525426228, 7.382734525426228, 8.132734525426228, 8.249401192092895, 8.366067858759562, 8.48273452542623, 8.599401192092897, 8.716067858759564, 8.83273452542623, 8.949401192092898, 9.066067858759565, 9.182734525426232, 9.2994011920929, 9.416067858759567, 9.532734525426234, 9.6494011920929, 9.766067858759568, 9.882734525426235, 9.999401192092902, 10.232734525426235]	2021_Feb_01_1439	59.88278444759494	1	1
18	3	FALSE	NV	v	['R', 'W', 'M', 'U', 'N', 'J', 'S', 'Y', 'T', 'X', 'C', 'B', 'V', 'A', 'E', 'K']	[1587, 2448, 1224, 2059, 1335, 1029, 1731, 2670, 1888, 4000, 829, 760, 2245, 697, 904, 1122]	10	Present	NA	NA	PRESENT	0.14123892784118652	12.229542970657349	14.22801399230957	15.044821977615356	15.394970893859863	18.336604118347168	4.108590126037598	[12.240807056427002, 12.357516050338745, 13.325152158737183, 13.491942167282104, 14.259704113006592, 14.37627911567688, 14.493295192718506, 14.609739065170288, 14.726617097854614, 14.843468189239502, 14.960371017456055, 15.07750415802002, 15.193807125091553, 15.293909072875977, 15.410616159439087, 15.527451992034912, 15.644254207611084, 15.76101303100586, 15.877823114395142, 15.99459719657898, 16.111537218093872, 16.33660316467285]	[12.232734525426235, 12.349401192092902, 13.332401192092902, 13.499101192092903, 14.249101192092903, 14.36576785875957, 14.482434525426237, 14.599101192092904, 14.715767858759571, 14.832434525426239, 14.949101192092906, 15.065767858759573, 15.18243452542624, 15.299101192092907, 15.415767858759574, 15.532434525426241, 15.649101192092909, 15.765767858759576, 15.882434525426243, 15.99910119209291, 16.115767858759575, 16.34910119209291]	2021_Feb_01_1439	59.88278444759494	1	1
18	4	FALSE	NA	v	['P', 'B', 'H', 'R', 'M', 'C', 'E', 'X', 'S', 'J', 'W', 'U', 'Y', 'A', 'Z', 'T']	[1456, 760, 986, 1587, 1224, 829, 904, 4000, 1731, 1029, 2448, 2059, 2670, 697, 2911, 1888]	8	Present	NA	NA	PRESENT	0.09770798683166504	18.336185932159424	20.34456491470337	20.928412914276123	21.277940034866333	24.452970027923584	4.108405113220215	[18.347450017929077, 18.464269161224365, 19.448700189590454, 19.615303993225098, 20.36646819114685, 20.483070135116577, 20.599675178527832, 20.716580152511597, 20.83323621749878, 20.949949026107788, 21.06680417060852, 21.18368101119995, 21.30053400993347, 21.417328119277954, 21.53409218788147, 21.650799989700317, 21.767818212509155, 21.884279012680054, 22.001374006271362, 22.118025064468384, 22.234922170639038, 22.45296812057495]	[18.34910119209291, 18.465767858759577, 19.448767858759577, 19.615467858759576, 20.365467858759576, 20.482134525426243, 20.59880119209291, 20.715467858759578, 20.832134525426245, 20.948801192092912, 21.06546785875958, 21.182134525426246, 21.298801192092913, 21.41546785875958, 21.532134525426248, 21.648801192092915, 21.765467858759582, 21.88213452542625, 21.998801192092916, 22.115467858759583, 22.23213452542625, 22.465467858759585]	2021_Feb_01_1439	59.88278444759494	1	1
18	5	FALSE	NN	v	['U', 'E', 'W', 'R', 'Z', 'C', 'Y', 'K', 'B', 'V', 'J', 'T', 'S', 'N', 'P', 'H']	[2059, 904, 2448, 1587, 2911, 829, 2670, 1122, 760, 2245, 1029, 1888, 1731, 1335, 1456, 986]	10	Absent	NA	NA	ABSENT	0.8469669818878174	24.45937991142273	26.46058201789856	27.27778387069702	27.627893924713135	30.569337129592896	4.108755111694336	[24.470643997192383, 24.58735418319702, 25.571763038635254, 25.738630056381226, 26.48939609527588, 26.606239080429077, 26.723021030426025, 26.839895009994507, 26.956674098968506, 27.073264122009277, 27.190258026123047, 27.306870222091675, 27.423654079437256, 27.54059100151062, 27.657384157180786, 27.7741641998291, 27.891000032424927, 28.007670164108276, 28.12436819076538, 28.241194009780884, 28.341288089752197, 28.56933617591858]	[24.465467858759585, 24.58213452542625, 25.565134525426252, 25.73183452542625, 26.48183452542625, 26.598501192092918, 26.715167858759585, 26.831834525426252, 26.94850119209292, 27.065167858759587, 27.181834525426254, 27.29850119209292, 27.415167858759588, 27.531834525426255, 27.648501192092922, 27.76516785875959, 27.881834525426257, 27.998501192092924, 28.11516785875959, 28.231834525426258, 28.348501192092925, 28.58183452542626]	2021_Feb_01_1439	59.88278444759494	1	1
18	6	FALSE	VV	v	['W', 'M', 'T', 'Z', 'surprise', 'U', 'G', 'X', 'K', 'H', 'N', 'V', 'C', 'P', 'E', 'A']	[2448, 1224, 1888, 2911, 'stimAuditory/all_stimAuditory/206.wav', 2059, 944, 4000, 1122, 986, 1335, 2245, 829, 1456, 904, 697]	8	Present	NA	stimVisual/all_stimVisual/50.jpg	ABSENT	0.8117289543151855	30.565982818603516	32.57692003250122	33.160831928253174	33.51114583015442	36.68570399284363	4.108783960342407	[30.577247142791748, 30.694090127944946, 31.678364038467407, 31.84533715248108, 32.59589910507202, 32.71284604072571, 32.82947611808777, 32.946256160736084, 33.07989311218262, 33.1799750328064, 33.296574115753174, 33.41355514526367, 33.53028202056885, 33.64698600769043, 33.76406812667847, 33.88074207305908, 33.99756908416748, 34.114134073257446, 34.231149196624756, 34.347753047943115, 34.46471118927002, 34.68570518493652]	[30.58183452542626, 30.698501192092927, 31.681501192092927, 31.848201192092926, 32.59820119209293, 32.7148678587596, 32.831534525426264, 32.94820119209293, 33.0648678587596, 33.181534525426265, 33.29820119209293, 33.4148678587596, 33.53153452542627, 33.648201192092934, 33.7648678587596, 33.88153452542627, 33.998201192092935, 34.1148678587596, 34.23153452542627, 34.34820119209294, 34.464867858759604, 34.69820119209294]	2021_Feb_01_1439	59.88278444759494	1	1
18	7	FALSE	NN	v	['A', 'W', 'B', 'Z', 'E', 'C', 'Y', 'P', 'M', 'R', 'T', 'U', 'K', 'G', 'J', 'H']	[697, 2448, 760, 2911, 904, 829, 2670, 1456, 1224, 1587, 1888, 2059, 1122, 944, 1029, 986]	12	Absent	NA	NA	ABSENT	0.12809205055236816	36.689098834991455	38.69345188140869	39.743841886520386	40.093997955322266	42.80207014083862	4.108618259429932	[36.70037508010864, 36.81727910041809, 37.80142903327942, 37.96845507621765, 38.71926522254944, 38.83623719215393, 38.95299506187439, 39.0697500705719, 39.18660521507263, 39.30332899093628, 39.41999006271362, 39.5368070602417, 39.65357208251953, 39.77028703689575, 39.88722014427185, 40.0041880607605, 40.12076020240784, 40.237569093704224, 40.35447311401367, 40.47122001647949, 40.58792209625244, 40.80206918716431]	[36.69820119209294, 36.814867858759605, 37.7978678587596, 37.9645678587596, 38.7145678587596, 38.83123452542627, 38.947901192092935, 39.0645678587596, 39.18123452542627, 39.29790119209294, 39.414567858759604, 39.53123452542627, 39.64790119209294, 39.764567858759605, 39.88123452542627, 39.99790119209294, 40.11456785875961, 40.231234525426274, 40.34790119209294, 40.46456785875961, 40.581234525426275, 40.81456785875961]	2021_Feb_01_1439	59.88278444759494	1	1
18	8	FALSE	NV	v	['Z', 'H', 'N', 'U', 'T', 'G', 'B', 'P', 'X', 'J', 'E', 'M', 'S', 'K', 'V', 'Y']	[2911, 986, 1335, 2059, 1888, 944, 760, 1456, 4000, 1029, 904, 1224, 1731, 1122, 2245, 2670]	9	Present	NA	NA	PRESENT	0.01343393325805664	42.81268882751465	44.81009602546692	45.510143995285034	45.86017894744873	48.918437004089355	4.1083409786224365	[42.82395315170288, 42.92366814613342, 43.90817904472351, 44.07489609718323, 44.842594146728516, 44.94255709648132, 45.05928301811218, 45.176045179367065, 45.29287314414978, 45.409751176834106, 45.526419162750244, 45.64323711395264, 45.759998083114624, 45.87682914733887, 45.99359917640686, 46.110398054122925, 46.22714805603027, 46.343958139419556, 46.46097207069397, 46.57765603065491, 46.69460606575012, 46.91843605041504]	[42.81456785875961, 42.93123452542628, 43.914234525426274, 44.08093452542627, 44.83093452542627, 44.94760119209294, 45.06426785875961, 45.180934525426274, 45.29760119209294, 45.41426785875961, 45.530934525426275, 45.64760119209294, 45.76426785875961, 45.88093452542628, 45.997601192092944, 46.11426785875961, 46.23093452542628, 46.347601192092945, 46.46426785875961, 46.58093452542628, 46.69760119209295, 46.93093452542628]	2021_Feb_01_1439	59.88278444759494	1	1
18	9	FALSE	NV	v	['N', 'U', 'S', 'P', 'C', 'W', 'V', 'G', 'X', 'Z', 'J', 'B', 'R', 'A', 'Y', 'M']	[1335, 2059, 1731, 1456, 829, 2448, 2245, 944, 4000, 2911, 1029, 760, 1587, 697, 2670, 1224]	9	Present	NA	NA	PRESENT	0.05818605422973633	48.91888904571533	50.92645287513733	51.626590967178345	51.976369857788086	55.03480410575867	4.108351230621338	[48.930153131484985, 49.04712915420532, 50.03166317939758, 50.19824504852295, 50.94899010658264, 51.06572103500366, 51.18276619911194, 51.29938316345215, 51.41631507873535, 51.53310799598694, 51.649938106536865, 51.76678204536438, 51.88351321220398, 52.00028705596924, 52.117061138153076, 52.23375105857849, 52.35053205490112, 52.46737003326416, 52.58417320251465, 52.701003074645996, 52.817615032196045, 53.03480315208435]	[48.93093452542628, 49.04760119209295, 50.030601192092945, 50.197301192092944, 50.947301192092944, 51.06396785875961, 51.18063452542628, 51.297301192092945, 51.41396785875961, 51.53063452542628, 51.64730119209295, 51.763967858759614, 51.88063452542628, 51.99730119209295, 52.113967858759615, 52.23063452542628, 52.34730119209295, 52.46396785875962, 52.580634525426284, 52.69730119209295, 52.81396785875962, 53.04730119209295]	2021_Feb_01_1439	59.88278444759494	1	1
18	10	FALSE	VA	v	['V', 'W', 'G', 'U', 'R', 'A', 'B', 'K', 'surprise', 'S', 'E', 'X', 'N', 'J', 'Y', 'M']	[2245, 2448, 944, 2059, 1587, 697, 760, 1122, 'stimAuditory/all_stimAuditory/218.wav', 1731, 904, 4000, 1335, 1029, 2670, 1224]	12	Present	NA	stimVisual/all_stimVisual/211.jpg	PRESENT	0.0633249282836914	55.042306900024414	57.04260993003845	58.092944860458374	58.44291090965271	61.15117001533508	4.108560085296631	[55.05357217788696, 55.170345067977905, 56.1545991897583, 56.321622133255005, 57.07237911224365, 57.18905806541443, 57.30589509010315, 57.42271709442139, 57.539669036865234, 57.65623712539673, 57.77327919006348, 57.88981318473816, 58.00662803649902, 58.12347102165222, 58.24017405509949, 58.356993198394775, 58.47394108772278, 58.59087800979614, 58.70751214027405, 58.82441210746765, 58.92431712150574, 59.15117001533508]	[55.04730119209295, 55.16396785875962, 56.146967858759616, 56.313667858759615, 57.063667858759615, 57.18033452542628, 57.29700119209295, 57.41366785875962, 57.530334525426284, 57.64700119209295, 57.76366785875962, 57.880334525426285, 57.99700119209295, 58.11366785875962, 58.23033452542629, 58.347001192092954, 58.46366785875962, 58.58033452542629, 58.697001192092955, 58.81366785875962, 58.93033452542629, 59.163667858759624]	2021_Feb_01_1439	59.88278444759494	1	1
18	11	FALSE	NN	v	['T', 'S', 'J', 'B', 'V', 'P', 'U', 'E', 'R', 'A', 'Z', 'W', 'Y', 'H', 'G', 'N']	[1888, 1731, 1029, 760, 2245, 1456, 2059, 904, 1587, 697, 2911, 2448, 2670, 986, 944, 1335]	12	Absent	NA	NA	ABSENT	0.18788480758666992	61.149014949798584	63.159037828445435	64.20926594734192	64.55913496017456	67.26753616333008	4.1084983348846436	[61.16027903556824, 61.27702021598816, 62.26136517524719, 62.42806816101074, 63.17878317832947, 63.295849084854126, 63.41260099411011, 63.52950310707092, 63.64612007141113, 63.763087034225464, 63.879714012145996, 63.99639701843262, 64.11324501037598, 64.23019409179688, 64.3469409942627, 64.46351504325867, 64.5804431438446, 64.69717812538147, 64.81401801109314, 64.93074822425842, 65.04760718345642, 65.26753807067871]	[61.163667858759624, 61.28033452542629, 62.26333452542629, 62.43003452542629, 63.18003452542629, 63.296701192092954, 63.41336785875962, 63.53003452542629, 63.646701192092955, 63.76336785875962, 63.88003452542629, 63.99670119209296, 64.11336785875962, 64.23003452542628, 64.34670119209294, 64.4633678587596, 64.58003452542626, 64.69670119209292, 64.81336785875958, 64.93003452542624, 65.0467011920929, 65.28003452542623]	2021_Feb_01_1439	59.88278444759494	1	1
18	12	FALSE	NA	v	['N', 'E', 'P', 'A', 'G', 'C', 'K', 'Y', 'U', 'J', 'R', 'M', 'H', 'X', 'Z', 'B']	[1335, 904, 1456, 697, 944, 829, 1122, 2670, 2059, 1029, 1587, 1224, 986, 4000, 2911, 760]	14	Present	NA	NA	PRESENT	0.09648704528808594	67.27219200134277	69.275563955307	70.5590569972992	70.90897297859192	73.3839042186737	4.108340263366699	[67.28346920013428, 67.40016317367554, 68.38438010215759, 68.55157709121704, 69.30215406417847, 69.41911101341248, 69.53589701652527, 69.65248203277588, 69.76952314376831, 69.88620901107788, 70.00290513038635, 70.11966800689697, 70.23656105995178, 70.35326600074768, 70.47004914283752, 70.58687114715576, 70.70370602607727, 70.82045221328735, 70.93720316886902, 71.05435800552368, 71.17093110084534, 71.38390302658081]	[67.28003452542623, 67.39670119209289, 68.3797011920929, 68.5464011920929, 69.2964011920929, 69.41306785875956, 69.52973452542622, 69.64640119209288, 69.76306785875954, 69.8797345254262, 69.99640119209286, 70.11306785875952, 70.22973452542618, 70.34640119209284, 70.4630678587595, 70.57973452542616, 70.69640119209282, 70.81306785875948, 70.92973452542614, 71.0464011920928, 71.16306785875946, 71.3964011920928]	2021_Feb_01_1439	59.88278444759494	1	1
18	13	FALSE	NA	v	['K', 'Y', 'N', 'Z', 'U', 'S', 'V', 'W', 'C', 'M', 'R', 'G', 'X', 'H', 'P', 'J']	[1122, 2670, 1335, 2911, 2059, 1731, 2245, 2448, 829, 1224, 1587, 944, 4000, 986, 1456, 1029]	13	Present	NA	NA	PRESENT	0.00576996803283691	73.37860989570618	75.39171385765076	76.55859184265137	76.9087438583374	79.50027012825012	4.108556270599365	[73.38989520072937, 73.50673913955688, 74.49115300178528, 74.6580560207367, 75.4254891872406, 75.52570509910583, 75.64226007461548, 75.75927901268005, 75.87576222419739, 76.04262900352478, 76.10935616493225, 76.22618007659912, 76.34306406974792, 76.4599142074585, 76.57662010192871, 76.69329714775085, 76.81040620803833, 76.92693209648132, 77.04389309883118, 77.160560131073, 77.2775650024414, 77.5002691745758]	[73.3964011920928, 73.51306785875946, 74.49606785875946, 74.66276785875947, 75.41276785875947, 75.52943452542613, 75.64610119209279, 75.76276785875945, 75.8794345254261, 75.99610119209277, 76.11276785875943, 76.22943452542609, 76.34610119209275, 76.4627678587594, 76.57943452542607, 76.69610119209273, 76.81276785875939, 76.92943452542605, 77.0461011920927, 77.16276785875937, 77.27943452542603, 77.51276785875936]	2021_Feb_01_1439	59.88278444759494	1	1
18	14	FALSE	NV	v	['M', 'N', 'T', 'E', 'J', 'P', 'V', 'W', 'Y', 'H', 'X', 'G', 'K', 'B', 'R', 'U']	[1224, 1335, 1888, 904, 1029, 1456, 2245, 2448, 2670, 986, 4000, 944, 1122, 760, 1587, 2059]	11	Present	NA	NA	PRESENT	0.7543838024139404	79.50187802314758	81.5081398487091	82.44165301322937	82.79154586791992	85.61663699150085	4.108497142791748	[79.51314210891724, 79.63010811805725, 80.61439919471741, 80.78125, 81.53231811523438, 81.64870810508728, 81.76571917533875, 81.88252711296082, 81.99933314323425, 82.11608719825745, 82.23292422294617, 82.34946703910828, 82.46624422073364, 82.58320808410645, 82.70009303092957, 82.81673312187195, 82.93366718292236, 83.0502622127533, 83.16724109649658, 83.28390121459961, 83.40067601203918, 83.61663699150085]	[79.51276785875936, 79.62943452542602, 80.61243452542602, 80.77913452542603, 81.52913452542603, 81.64580119209269, 81.76246785875935, 81.87913452542601, 81.99580119209267, 82.11246785875933, 82.22913452542599, 82.34580119209265, 82.46246785875931, 82.57913452542597, 82.69580119209263, 82.81246785875929, 82.92913452542595, 83.04580119209261, 83.16246785875927, 83.27913452542593, 83.39580119209259, 83.62913452542593]	2021_Feb_01_1439	59.88278444759494	1	1
18	15	FALSE	NN	v	['B', 'S', 'T', 'W', 'V', 'M', 'H', 'N', 'J', 'U', 'Z', 'E', 'C', 'R', 'P', 'K']	[760, 1731, 1888, 2448, 2245, 1224, 986, 1335, 1029, 2059, 2911, 904, 829, 1587, 1456, 1122]	14	Absent	NA	NA	ABSENT	0.2396070957183838	85.62523889541626	87.62448692321777	88.90796399116516	89.25827693939209	91.73300409317017	4.108517169952393	[85.63650321960449, 85.75318217277527, 86.73761701583862, 86.88772201538086, 87.65534210205078, 87.77202105522156, 87.8889729976654, 88.00565218925476, 88.12253022193909, 88.23919916152954, 88.35617709159851, 88.47304821014404, 88.589595079422, 88.70648002624512, 88.82320618629456, 88.93989706039429, 89.05668306350708, 89.17368221282959, 89.29045820236206, 89.3903260231018, 89.50736999511719, 89.73300313949585]	[85.62913452542593, 85.74580119209259, 86.72880119209259, 86.8955011920926, 87.6455011920926, 87.76216785875926, 87.87883452542592, 87.99550119209258, 88.11216785875924, 88.2288345254259, 88.34550119209256, 88.46216785875922, 88.57883452542588, 88.69550119209254, 88.8121678587592, 88.92883452542586, 89.04550119209252, 89.16216785875918, 89.27883452542584, 89.3955011920925, 89.51216785875916, 89.74550119209249]	2021_Feb_01_1439	59.88278444759494	1	1
18	16	FALSE	AV	v	['Z', 'S', 'N', 'R', 'V', 'T', 'surprise', 'H', 'A', 'X', 'E', 'C', 'J', 'G', 'Y', 'W']	[2911, 1731, 1335, 1587, 2245, 1888, 'stimAuditory/all_stimAuditory/224.wav', 986, 697, 4000, 904, 829, 1029, 944, 2670, 2448]	10	Present	stimAuditory/all_stimAuditory/206.wav	stimVisual/all_stimVisual/112.jpg	PRESENT	0.02029705047607422	91.73211693763731	93.74077081680298	94.55812001228333	94.9076328277588	97.84937000274658	4.1085991859436035	[91.74338102340698, 91.8599591255188, 92.84433817863464, 93.01098012924194, 93.76180505752563, 93.87878704071045, 93.99557209014893, 94.11220407485962, 94.2290050983429, 94.34594511985779, 94.47923302650452, 94.5793731212616, 94.69630908966064, 94.81285405158997, 94.92992520332336, 95.04650020599365, 95.16352200508118, 95.28030014038086, 95.39703106880188, 95.51374101638794, 95.63059401512146, 95.84936904907227]	[91.74550119209249, 91.86216785875915, 92.84516785875915, 93.01186785875916, 93.76186785875916, 93.87853452542582, 93.99520119209248, 94.11186785875914, 94.2285345254258, 94.34520119209246, 94.46186785875912, 94.57853452542578, 94.69520119209244, 94.8118678587591, 94.92853452542576, 95.04520119209242, 95.16186785875908, 95.27853452542574, 95.3952011920924, 95.51186785875906, 95.62853452542572, 95.86186785875906]	2021_Feb_01_1439	59.88278444759494	1	1
18	17	FALSE	NA	v	['K', 'P', 'Y', 'E', 'N', 'C', 'S', 'J', 'Z', 'R', 'T', 'X', 'B', 'W', 'V', 'G']	[1122, 1456, 2670, 904, 1335, 829, 1731, 1029, 2911, 1587, 1888, 4000, 760, 2448, 2245, 944]	12	Present	NA	NA	PRESENT	0.04154491424560547	97.8551218509674	99.85714292526244	100.90750002861024	101.25748300552368	103.9657371044159	4.108594179153442	[97.86639714241028, 97.9829421043396, 98.96731805801392, 99.13438105583191, 99.88510513305664, 100.00205612182617, 100.1186420917511, 100.23565411567688, 100.3521671295166, 100.46913003921509, 100.58611106872559, 100.70269107818604, 100.81964015960693, 100.93630909919739, 101.05341815948486, 101.1697850227356, 101.28650212287903, 101.4034571647644, 101.52012419700623, 101.63724303245544, 101.73705005645752, 101.96573615074158]	[97.86186785875906, 97.97853452542572, 98.96153452542572, 99.12823452542573, 99.87823452542573, 99.99490119209239, 100.11156785875905, 100.2282345254257, 100.34490119209237, 100.46156785875903, 100.57823452542569, 100.69490119209235, 100.811567858759, 100.92823452542567, 101.04490119209233, 101.16156785875899, 101.27823452542565, 101.3949011920923, 101.51156785875897, 101.62823452542563, 101.74490119209229, 101.97823452542562]	2021_Feb_01_1439	59.88278444759494	1	1
18	18	FALSE	NV	v	['A', 'K', 'M', 'H', 'T', 'J', 'V', 'Z', 'P', 'C', 'S', 'X', 'N', 'W', 'R', 'G']	[697, 1122, 1224, 986, 1888, 1029, 2245, 2911, 1456, 829, 1731, 4000, 1335, 2448, 1587, 944]	12	Present	NA	NA	PRESENT	0.030059814453125	103.9614429473877	105.97339200973512	107.0243079662323	107.37396597862244	110.0821042060852	4.108712196350098	[103.97270703315735, 104.08963513374329, 105.07399821281433, 105.24085712432861, 106.00833106040955, 106.10857820510864, 106.22528100013733, 106.34195518493652, 106.45890522003174, 106.57559299468994, 106.69257307052612, 106.8091630935669, 106.92613101005554, 107.04277205467224, 107.1597101688385, 107.2763340473175, 107.39329719543457, 107.50990700721741, 107.62682700157166, 107.74353504180908, 107.86037802696228, 108.0821042060852]	[103.97823452542562, 104.09490119209228, 105.07790119209228, 105.24460119209229, 105.99460119209229, 106.11126785875895, 106.22793452542561, 106.34460119209227, 106.46126785875893, 106.57793452542559, 106.69460119209225, 106.81126785875891, 106.92793452542557, 107.04460119209223, 107.16126785875889, 107.27793452542555, 107.39460119209221, 107.51126785875887, 107.62793452542553, 107.74460119209219, 107.86126785875885, 108.09460119209218]	2021_Feb_01_1439	59.88278444759494	1	1
18	19	FALSE	NA	v	['M', 'S', 'C', 'Z', 'G', 'H', 'J', 'X', 'W', 'P', 'R', 'A', 'U', 'T', 'K', 'Y']	[1224, 1731, 829, 2911, 944, 986, 1029, 4000, 2448, 1456, 1587, 697, 2059, 1888, 1122, 2670]	8	Present	NA	NA	PRESENT	0.01875710487365722	110.0849449634552	112.08999681472778	112.67368698120116	113.0233998298645	116.19847011566162	4.108473300933838	[110.09620904922485, 110.21300005912781, 111.19760918617249, 111.3642041683197, 112.1148931980133, 112.23157119750977, 112.34869599342346, 112.46550822257996, 112.5821762084961, 112.69896507263184, 112.81585001945496, 112.93248200416565, 113.04940819740295, 113.16601419448853, 113.28298711776733, 113.39959812164307, 113.51636004447937, 113.63333415985107, 113.7501471042633, 113.86694002151489, 113.98376202583313, 114.19847106933594]	[110.09460119209218, 110.21126785875884, 111.19426785875885, 111.36096785875885, 112.11096785875885, 112.22763452542551, 112.34430119209217, 112.46096785875883, 112.5776345254255, 112.69430119209215, 112.81096785875881, 112.92763452542547, 113.04430119209214, 113.1609678587588, 113.27763452542546, 113.39430119209212, 113.51096785875878, 113.62763452542544, 113.7443011920921, 113.86096785875876, 113.97763452542542, 114.21096785875875]	2021_Feb_01_1439	59.88278444759494	1	1
18	20	FALSE	NV	v	['S', 'Z', 'B', 'C', 'V', 'U', 'P', 'X', 'M', 'G', 'A', 'K', 'J', 'T', 'W', 'N']	[1731, 2911, 760, 829, 2245, 2059, 1456, 4000, 1224, 944, 697, 1122, 1029, 1888, 2448, 1335]	8	Present	NA	NA	PRESENT	0.04785799980163574	116.20819282531738	118.2062120437622	118.78971886634828	119.139967918396	122.31483721733092	4.108625173568726	[116.2194561958313, 116.33619618415833, 117.3038740158081, 117.47056913375854, 118.23828911781311, 118.35501408576965, 118.47174000740051, 118.58884620666504, 118.70531606674194, 118.8054370880127, 118.92217016220093, 119.03898119926453, 119.15580201148987, 119.2726080417633, 119.38934111595154, 119.50611615180969, 119.62288618087769, 119.73967719078064, 119.85668802261353, 119.97330713272095, 120.09029912948608, 120.31483721733093]	[116.21096785875875, 116.32763452542541, 117.31063452542541, 117.47733452542542, 118.22733452542542, 118.34400119209208, 118.46066785875874, 118.5773345254254, 118.69400119209206, 118.81066785875872, 118.92733452542538, 119.04400119209204, 119.1606678587587, 119.27733452542536, 119.39400119209202, 119.51066785875868, 119.62733452542534, 119.744001192092, 119.86066785875866, 119.97733452542532, 120.09400119209198, 120.32733452542531]	2021_Feb_01_1439	59.88278444759494	1	1
18	21	FALSE	NV	v	['H', 'W', 'Y', 'S', 'A', 'E', 'G', 'P', 'M', 'B', 'R', 'N', 'U', 'X', 'Z', 'V']	[986, 2448, 2670, 1731, 697, 904, 944, 1456, 1224, 760, 1587, 1335, 2059, 4000, 2911, 2245]	14	Present	NA	NA	PRESENT	0.11655306816101074	122.31505393981934	124.32278203964232	125.6065239906311	125.95667386054993	128.43120312690735	4.108421087265015	[122.32631921768188, 122.44261908531189, 123.42712306976318, 123.59409713745117, 124.34475517272949, 124.46170115470886, 124.5784261226654, 124.69508504867554, 124.81203818321228, 124.92866206169128, 125.04561805725098, 125.1625440120697, 125.27932405471802, 125.39592099189758, 125.51290702819824, 125.62949013710022, 125.74645113945007, 125.86310410499573, 125.97995519638062, 126.09668517112732, 126.21351718902588, 126.43120217323303]	[122.32733452542531, 122.44400119209197, 123.42700119209198, 123.59370119209198, 124.34370119209198, 124.46036785875864, 124.5770345254253, 124.69370119209196, 124.81036785875862, 124.92703452542528, 125.04370119209194, 125.1603678587586, 125.27703452542526, 125.39370119209192, 125.51036785875858, 125.62703452542524, 125.7437011920919, 125.86036785875856, 125.97703452542522, 126.09370119209188, 126.21036785875854, 126.44370119209188]	2021_Feb_01_1439	59.88278444759494	1	1
18	22	FALSE	NA	v	['T', 'Y', 'A', 'B', 'U', 'Z', 'W', 'P', 'K', 'H', 'M', 'X', 'G', 'N', 'R', 'C']	[1888, 2670, 697, 760, 2059, 2911, 2448, 1456, 1122, 986, 1224, 4000, 944, 1335, 1587, 829]	12	Present	NA	NA	PRESENT	0.29790711402893066	128.43808603286743	130.43890595436096	131.48935103416443	131.8391878604889	134.54756999015808	4.108664035797119	[128.44935011863708, 128.566073179245, 129.55057907104492, 129.71720004081726, 130.46799612045288, 130.58485317230225, 130.70151901245117, 130.81847310066223, 130.93535113334656, 131.05196619033813, 131.16880106925964, 131.2855761051178, 131.40241408348083, 131.51939821243286, 131.63592100143433, 131.75274205207825, 131.869469165802, 131.9867022037506, 132.1031310558319, 132.21994519233704, 132.31999921798706, 132.54756903648376]	[128.44370119209188, 128.56036785875855, 129.54336785875856, 129.71006785875855, 130.46006785875855, 130.57673452542522, 130.6934011920919, 130.81006785875857, 130.92673452542525, 131.04340119209192, 131.1600678587586, 131.27673452542527, 131.39340119209194, 131.51006785875862, 131.6267345254253, 131.74340119209197, 131.86006785875864, 131.97673452542531, 132.093401192092, 132.21006785875866, 132.32673452542534, 132.56006785875866]	2021_Feb_01_1439	59.88278444759494	1	1
18	23	FALSE	NN	v	['E', 'C', 'U', 'G', 'H', 'M', 'P', 'S', 'J', 'A', 'N', 'K', 'Y', 'T', 'Z', 'R']	[904, 829, 2059, 944, 986, 1224, 1456, 1731, 1029, 697, 1335, 1122, 2670, 1888, 2911, 1587]	12	Absent	NA	NA	ABSENT	0.06215381622314453	134.54443883895874	136.5555558204651	137.60642886161804	137.95576095581055	140.6639370918274	4.108381271362305	[134.5557041168213, 134.6727511882782, 135.65711998939514, 135.82385301589966, 136.59130716323853, 136.69136905670166, 136.808265209198, 136.92492508888245, 137.04189920425415, 137.15857601165771, 137.27555203437805, 137.3921639919281, 137.50902318954468, 137.6257610321045, 137.74277210235596, 137.85937809944153, 137.9762032032013, 138.09292221069336, 138.20958399772644, 138.3265700340271, 138.44321012496948, 138.6639380455017]	[134.56006785875866, 134.67673452542533, 135.65973452542534, 135.82643452542533, 136.57643452542533, 136.693101192092, 136.80976785875868, 136.92643452542535, 137.04310119209202, 137.1597678587587, 137.27643452542537, 137.39310119209205, 137.50976785875872, 137.6264345254254, 137.74310119209207, 137.85976785875874, 137.97643452542542, 138.0931011920921, 138.20976785875877, 138.32643452542544, 138.44310119209212, 138.67643452542544]	2021_Feb_01_1439	59.88278444759494	1	1
18	24	FALSE	NA	v	['P', 'S', 'H', 'C', 'W', 'B', 'R', 'U', 'T', 'A', 'Y', 'V', 'X', 'K', 'G', 'J']	[1456, 1731, 986, 829, 2448, 760, 1587, 2059, 1888, 697, 2670, 2245, 4000, 1122, 944, 1029]	13	Present	NA	NA	PRESENT	0.05076479911804199	140.66783595085144	142.67167901992798	143.8388729095459	144.18882393836975	146.7803041934967	4.108625173568726	[140.6791009902954, 140.79574418067932, 141.78038501739502, 141.94724416732788, 142.6982901096344, 142.8146390914917, 142.93167400360107, 143.04822301864624, 143.1652340888977, 143.2820281982422, 143.39852118492126, 143.51556205749512, 143.6322751045227, 143.74896812438965, 143.8657591342926, 143.98278522491455, 144.09957718849182, 144.2163062095642, 144.33317708969116, 144.44990921020508, 144.56672310829163, 144.7803041934967]	[140.67643452542544, 140.7931011920921, 141.7761011920921, 141.9428011920921, 142.6928011920921, 142.80946785875878, 142.92613452542545, 143.04280119209213, 143.1594678587588, 143.27613452542548, 143.39280119209215, 143.50946785875882, 143.6261345254255, 143.74280119209217, 143.85946785875885, 143.97613452542552, 144.0928011920922, 144.20946785875887, 144.32613452542554, 144.44280119209222, 144.5594678587589, 144.7928011920922]	2021_Feb_01_1439	59.88278444759494	1	1
18	25	FALSE	NA	v	['U', 'M', 'K', 'A', 'J', 'T', 'G', 'V', 'R', 'X', 'S', 'H', 'C', 'P', 'E', 'N']	[2059, 1224, 1122, 697, 1029, 1888, 944, 2245, 1587, 4000, 1731, 986, 829, 1456, 904, 1335]	10	Present	NA	NA	PRESENT	0.1441030502319336	146.7742109298706	148.7883620262146	149.6053340435028	149.9550199508667	152.89667010307312	4.1083080768585205	[146.78547501564026, 146.90233612060547, 147.8869972229004, 148.05372214317322, 148.8213860988617, 148.92115807533264, 149.0379421710968, 149.15479803085327, 149.27158617973328, 149.38828706741333, 149.50538206100464, 149.62194418907166, 149.7389271259308, 149.85553216934204, 149.97254419326782, 150.08907318115234, 150.20616006851196, 150.32271599769592, 150.4397270679474, 150.55633115768433, 150.67305517196655, 150.8966691493988]	[146.7928011920922, 146.9094678587589, 147.8924678587589, 148.05916785875888, 148.80916785875888, 148.92583452542556, 149.04250119209223, 149.1591678587589, 149.27583452542558, 149.39250119209225, 149.50916785875893, 149.6258345254256, 149.74250119209228, 149.85916785875895, 149.97583452542563, 150.0925011920923, 150.20916785875897, 150.32583452542565, 150.44250119209232, 150.559167858759, 150.67583452542567, 150.909167858759]	2021_Feb_01_1439	59.88278444759494	1	1
18	26	FALSE	NA	v	['N', 'S', 'H', 'B', 'G', 'C', 'W', 'Z', 'M', 'K', 'Y', 'A', 'X', 'P', 'J', 'V']	[1335, 1731, 986, 760, 944, 829, 2448, 2911, 1224, 1122, 2670, 697, 4000, 1456, 1029, 2245]	13	Present	NA	NA	PRESENT	0.21292781829833984	152.89795684814453	154.90468001365662	156.0717179775238	156.4214768409729	159.01303720474243	4.108357191085815	[152.90922117233276, 153.02577805519104, 154.00998616218567, 154.17712807655334, 154.92775321006775, 155.0445020198822, 155.16120219230652, 155.27800512313843, 155.39502501487732, 155.51170420646667, 155.62864804267883, 155.7452690601349, 155.86222410202026, 155.97881722450256, 156.09552311897278, 156.21259808540344, 156.32929706573486, 156.44603419303894, 156.5627942085266, 156.67957401275635, 156.79645800590515, 157.01303720474243]	[152.909167858759, 153.02583452542567, 154.00883452542567, 154.17553452542566, 154.92553452542566, 155.04220119209234, 155.158867858759, 155.27553452542568, 155.39220119209236, 155.50886785875903, 155.6255345254257, 155.74220119209238, 155.85886785875906, 155.97553452542573, 156.0922011920924, 156.20886785875908, 156.32553452542575, 156.44220119209243, 156.5588678587591, 156.67553452542577, 156.79220119209245, 157.02553452542577]	2021_Feb_01_1439	59.88278444759494	1	1
18	27	FALSE	NA	v	['E', 'H', 'A', 'V', 'S', 'M', 'K', 'Y', 'W', 'U', 'G', 'X', 'T', 'P', 'N', 'B']	[904, 986, 697, 2245, 1731, 1224, 1122, 2670, 2448, 2059, 944, 4000, 1888, 1456, 1335, 760]	12	Present	NA	NA	PRESENT	0.0419168472290039	159.020849943161	161.02120804786682	162.07134699821472	162.42114186286926	165.12940311431885	4.108195066452026	[159.03211402893066, 159.14909505844116, 160.13339614868164, 160.3001070022583, 161.05092000961304, 161.16789317131042, 161.28472709655762, 161.40151119232178, 161.51823711395264, 161.6350061893463, 161.7517490386963, 161.8686511516571, 161.9857051372528, 162.10210299491882, 162.21885800361633, 162.33584308624268, 162.45241498947144, 162.56953620910645, 162.68603920936584, 162.8028211593628, 162.90308117866516, 163.12940311431885]	[159.02553452542577, 159.14220119209244, 160.12520119209245, 160.29190119209244, 161.04190119209244, 161.1585678587591, 161.2752345254258, 161.39190119209246, 161.50856785875914, 161.6252345254258, 161.74190119209248, 161.85856785875916, 161.97523452542583, 162.0919011920925, 162.20856785875918, 162.32523452542586, 162.44190119209253, 162.5585678587592, 162.67523452542588, 162.79190119209255, 162.90856785875923, 163.14190119209255]	2021_Feb_01_1439	59.88278444759494	1	1
18	28	FALSE	NV	v	['E', 'J', 'C', 'M', 'S', 'G', 'P', 'X', 'U', 'W', 'Z', 'R', 'A', 'V', 'H', 'B']	[904, 1029, 829, 1224, 1731, 944, 1456, 4000, 2059, 2448, 2911, 1587, 697, 2245, 986, 760]	8	Present	NA	NA	PRESENT	0.20661497116088867	165.12741804122925	167.13725185394287	167.72105288505554	168.07109785079956	171.24577021598816	4.108518362045288	[165.13868308067322, 165.25548315048218, 166.2401041984558, 166.40681314468384, 167.15745615959167, 167.27450704574585, 167.39129519462585, 167.50784707069397, 167.62490916252136, 167.74156212806702, 167.85846304893494, 167.97507905960083, 168.0917911529541, 168.20872402191162, 168.3254280090332, 168.44240021705627, 168.55915307998657, 168.6759171485901, 168.79260516166687, 168.9094021320343, 169.02637219429016, 169.24577021598816]	[165.14190119209255, 165.25856785875922, 166.24156785875923, 166.40826785875922, 167.15826785875922, 167.2749345254259, 167.39160119209257, 167.50826785875924, 167.6249345254259, 167.7416011920926, 167.85826785875926, 167.97493452542594, 168.0916011920926, 168.20826785875929, 168.32493452542596, 168.44160119209263, 168.5582678587593, 168.67493452542598, 168.79160119209266, 168.90826785875933, 169.024934525426, 169.25826785875933]	2021_Feb_01_1439	59.88278444759494	1	1
18	29	FALSE	AA	v	['Z', 'T', 'H', 'J', 'E', 'N', 'B', 'C', 'R', 'A', 'surprise', 'V', 'U', 'X', 'W', 'S']	[2911, 1888, 986, 1029, 904, 1335, 760, 829, 1587, 697, 'stimAuditory/all_stimAuditory/116.wav', 2245, 2059, 4000, 2448, 1731]	14	Present	stimAuditory/all_stimAuditory/218.wav	stimVisual/all_stimVisual/116.jpg	PRESENT	0.18715906143188477	171.25082087516785	173.2535560131073	174.53722381591797	174.8871488571167	177.36213612556458	4.108580112457275	[171.26208519935608, 171.3786380290985, 172.36354804039001, 172.53011417388916, 173.28077507019043, 173.39779114723206, 173.51453304290771, 173.63127899169922, 173.7481050491333, 173.86489009857178, 173.98149299621582, 174.0984251499176, 174.21533513069153, 174.3321921825409, 174.44877099990845, 174.56566405296326, 174.68233704566956, 174.79925918579102, 174.9158000946045, 175.03280019760132, 175.149640083313, 175.3621370792389]	[171.25826785875933, 171.374934525426, 172.357934525426, 172.524634525426, 173.274634525426, 173.39130119209267, 173.50796785875934, 173.62463452542602, 173.7413011920927, 173.85796785875937, 173.97463452542604, 174.09130119209271, 174.2079678587594, 174.32463452542606, 174.44130119209274, 174.5579678587594, 174.6746345254261, 174.79130119209276, 174.90796785875943, 175.0246345254261, 175.14130119209278, 175.3746345254261]	2021_Feb_01_1439	59.88278444759494	1	1
18	30	FALSE	NA	v	['G', 'V', 'U', 'Z', 'K', 'E', 'P', 'N', 'T', 'X', 'W', 'A', 'R', 'M', 'C', 'J']	[944, 2245, 2059, 2911, 1122, 904, 1456, 1335, 1888, 4000, 2448, 697, 1587, 1224, 829, 1029]	10	Present	NA	NA	PRESENT	0.1764049530029297	177.35719394683838	179.36991596221924	180.1870079040527	180.5370798110962	183.4785041809082	4.108588218688965	[177.36845707893372, 177.48526811599731, 178.46985816955566, 178.63659715652466, 179.40415000915527, 179.50406908988953, 179.62089920043945, 179.73791003227234, 179.8547441959381, 179.9714970588684, 180.08805012702942, 180.20488905906677, 180.32188200950623, 180.4385290145874, 180.55545115470886, 180.67218208312988, 180.78904008865356, 180.90576314926147, 181.02265405654907, 181.1392891407013, 181.25601506233215, 181.4785029888153]	[177.3746345254261, 177.49130119209278, 178.47430119209278, 178.64100119209277, 179.39100119209277, 179.50766785875945, 179.62433452542612, 179.7410011920928, 179.85766785875947, 179.97433452542614, 180.09100119209282, 180.2076678587595, 180.32433452542617, 180.44100119209284, 180.55766785875952, 180.6743345254262, 180.79100119209286, 180.90766785875954, 181.0243345254262, 181.1410011920929, 181.25766785875956, 181.49100119209288]	2021_Feb_01_1439	59.88278444759494	1	1
18	31	FALSE	NN	v	['P', 'G', 'Z', 'C', 'A', 'K', 'N', 'J', 'T', 'R', 'W', 'Y', 'E', 'B', 'U', 'M']	[1456, 944, 2911, 829, 697, 1122, 1335, 1029, 1888, 1587, 2448, 2670, 904, 760, 2059, 1224]	9	Absent	NA	NA	ABSENT	0.0769491195678711	183.48104596138	185.48624992370603	186.18665599823	186.53662395477295	189.59487009048465	4.1086201667785645	[183.49231004714966, 183.60851120948792, 184.59317922592163, 184.76008820533752, 185.51059818267822, 185.62745308876038, 185.744460105896, 185.86123418807983, 185.97774410247803, 186.0946650505066, 186.21159505844116, 186.32831501960754, 186.4451060295105, 186.56177806854248, 186.67844605445862, 186.795508146286, 186.91227221488953, 187.02911400794983, 187.14593720436096, 187.26274609565735, 187.3794322013855, 187.5948691368103]	[183.49100119209288, 183.60766785875956, 184.59066785875956, 184.75736785875955, 185.50736785875955, 185.62403452542623, 185.7407011920929, 185.85736785875957, 185.97403452542625, 186.09070119209292, 186.2073678587596, 186.32403452542627, 186.44070119209294, 186.55736785875962, 186.6740345254263, 186.79070119209297, 186.90736785875964, 187.02403452542632, 187.140701192093, 187.25736785875966, 187.37403452542634, 187.60736785875966]	2021_Feb_01_1439	59.88278444759494	1	1
18	32	FALSE	NV	v	['E', 'C', 'T', 'V', 'K', 'G', 'J', 'H', 'X', 'S', 'A', 'Z', 'B', 'M', 'U', 'W']	[904, 829, 1888, 2245, 1122, 944, 1029, 986, 4000, 1731, 697, 2911, 760, 1224, 2059, 2448]	9	Present	NA	NA	PRESENT	0.07440495491027832	189.6038229465485	191.60292601585388	192.30288791656497	192.65303897857663	195.71123719215393	4.108311176300049	[189.615088224411, 189.73201608657837, 190.69950699806213, 190.8664321899414, 191.6339910030365, 191.75081205368042, 191.86756420135498, 191.98431015014648, 192.10121321678162, 192.21804118156433, 192.3346130847931, 192.45141100883484, 192.568293094635, 192.6852161884308, 192.80200600624084, 192.90184712409973, 193.01891422271729, 193.13542413711548, 193.25225019454956, 193.36909699440002, 193.48598718643188, 193.71123814582825]	[189.60736785875966, 189.72403452542633, 190.70703452542634, 190.87373452542633, 191.62373452542633, 191.740401192093, 191.85706785875968, 191.97373452542635, 192.09040119209303, 192.2070678587597, 192.32373452542637, 192.44040119209305, 192.55706785875972, 192.6737345254264, 192.79040119209307, 192.90706785875975, 193.02373452542642, 193.1404011920931, 193.25706785875977, 193.37373452542644, 193.49040119209312, 193.72373452542644]	2021_Feb_01_1439	59.88278444759494	1	1
18	33	FALSE	NA	v	['R', 'N', 'V', 'T', 'H', 'K', 'J', 'S', 'U', 'X', 'M', 'A', 'P', 'Y', 'W', 'Z']	[1587, 1335, 2245, 1888, 986, 1122, 1029, 1731, 2059, 4000, 1224, 697, 1456, 2670, 2448, 2911]	10	Present	NA	NA	PRESENT	0.06283688545227051	195.7103819847107	197.71937489509585	198.5359139442444	198.88596081733704	201.82760214805603	4.108227252960205	[195.72164607048035, 195.83860516548157, 196.8228280544281, 196.98985314369202, 197.74056720733643, 197.8572211265564, 197.97407722473145, 198.09074902534485, 198.20774602890015, 198.324392080307, 198.44140815734863, 198.5581750869751, 198.6749951839447, 198.79184007644653, 198.90841507911682, 199.02540111541748, 199.14222121238708, 199.25891518592834, 199.37561416625977, 199.49253106117249, 199.60918617248535, 199.82760310173035]	[195.72373452542644, 195.8404011920931, 196.82340119209312, 196.9901011920931, 197.7401011920931, 197.85676785875978, 197.97343452542646, 198.09010119209313, 198.2067678587598, 198.32343452542648, 198.44010119209315, 198.55676785875983, 198.6734345254265, 198.79010119209318, 198.90676785875985, 199.02343452542652, 199.1401011920932, 199.25676785875987, 199.37343452542655, 199.49010119209322, 199.6067678587599, 199.84010119209321]	2021_Feb_01_1439	59.88278444759494	1	1
18	34	FALSE	VV	v	['G', 'N', 'W', 'V', 'J', 'surprise', 'E', 'Z', 'X', 'U', 'M', 'A', 'T', 'K', 'H', 'P']	[944, 1335, 2448, 2245, 1029, 'stimAuditory/all_stimAuditory/215.wav', 904, 2911, 4000, 2059, 1224, 697, 1888, 1122, 986, 1456]	9	Present	NA	stimVisual/all_stimVisual/111.jpg	PRESENT	0.12444090843200684	201.8337688446045	203.83541584014893	204.53624200820923	204.88570189476013	207.9439702033997	4.108554363250732	[201.845055103302, 201.96168208122253, 202.94614005088806, 203.1131830215454, 203.86375403404236, 203.98058009147644, 204.09747910499573, 204.21426606178284, 204.33084917068481, 204.44771003723145, 204.5645990371704, 204.6812961101532, 204.7982861995697, 204.91495513916016, 205.03191614151, 205.1486301422119, 205.26541900634766, 205.38217401504517, 205.49878811836243, 205.6155982017517, 205.7157051563263, 205.94397020339966]	[201.84010119209321, 201.9567678587599, 202.9397678587599, 203.10646785875988, 203.85646785875988, 203.97313452542656, 204.08980119209323, 204.2064678587599, 204.32313452542658, 204.43980119209326, 204.55646785875993, 204.6731345254266, 204.78980119209328, 204.90646785875995, 205.02313452542663, 205.1398011920933, 205.25646785875998, 205.37313452542665, 205.48980119209332, 205.60646785876, 205.72313452542667, 205.95646785876]	2021_Feb_01_1439	59.88278444759494	1	1
18	35	FALSE	NA	v	['N', 'B', 'T', 'C', 'Z', 'W', 'H', 'K', 'X', 'J', 'S', 'M', 'U', 'Y', 'E', 'R']	[1335, 760, 1888, 829, 2911, 2448, 986, 1122, 4000, 1029, 1731, 1224, 2059, 2670, 904, 1587]	9	Present	NA	NA	PRESENT	0.05667686462402344	207.9402039051056	209.95174098014832	210.65225386619568	211.00215482711792	214.0603370666504	4.108596086502075	[207.95146799087524, 208.0681722164154, 209.05279207229614, 209.21964812278748, 209.98692107200623, 210.08720803260803, 210.2039680480957, 210.32063722610474, 210.43761110305786, 210.55429410934448, 210.67107105255127, 210.78785514831543, 210.90478801727295, 211.02151012420654, 211.1384391784668, 211.25512504577637, 211.37196803092957, 211.48881220817566, 211.6055450439453, 211.72226405143738, 211.83908700942993, 212.0603370666504]	[207.95646785876, 208.07313452542667, 209.05613452542667, 209.22283452542666, 209.97283452542666, 210.08950119209334, 210.20616785876, 210.32283452542669, 210.43950119209336, 210.55616785876003, 210.6728345254267, 210.78950119209338, 210.90616785876006, 211.02283452542673, 211.1395011920934, 211.25616785876008, 211.37283452542675, 211.48950119209343, 211.6061678587601, 211.72283452542678, 211.83950119209345, 212.07283452542677]	2021_Feb_01_1439	59.88278444759494	1	1
18	36	FALSE	NV	v	['Z', 'K', 'E', 'U', 'C', 'V', 'M', 'B', 'H', 'X', 'S', 'W', 'T', 'A', 'Y', 'P']	[2911, 1122, 904, 2059, 829, 2245, 1224, 760, 986, 4000, 1731, 2448, 1888, 697, 2670, 1456]	10	Present	NA	NA	PRESENT	0.085308074951171875	214.0638189315796	216.06828498840332	216.8849320411682	217.2355878353119	220.1767041683197	4.108419179916382	[214.07508420944214, 214.1917290687561, 215.17595219612122, 215.34303307533264, 216.09355521202087, 216.21044921875, 216.32715106010437, 216.44416117668152, 216.56067299842834, 216.6776740550995, 216.79443216323853, 216.91124820709229, 217.0278890132904, 217.1447901725769, 217.2614390850067, 217.37839221954346, 217.4951159954071, 217.61203908920288, 217.72863006591797, 217.84547019004822, 217.96236515045166, 218.1767041683197]	[214.07283452542677, 214.18950119209345, 215.17250119209345, 215.33920119209344, 216.08920119209344, 216.20586785876012, 216.3225345254268, 216.43920119209346, 216.55586785876014, 216.6725345254268, 216.7892011920935, 216.90586785876016, 217.02253452542683, 217.1392011920935, 217.25586785876018, 217.37253452542686, 217.48920119209353, 217.6058678587602, 217.72253452542688, 217.83920119209355, 217.95586785876023, 218.18920119209355]	2021_Feb_01_1439	59.88278444759494	1	1
18	37	FALSE	NV	v	['G', 'P', 'K', 'C', 'S', 'H', 'A', 'T', 'B', 'R', 'N', 'E', 'V', 'X', 'Z', 'M']	[944, 1456, 1122, 829, 1731, 986, 697, 1888, 760, 1587, 1335, 904, 2245, 4000, 2911, 1224]	14	Present	NA	NA	PRESENT	0.08260202407836914	220.18687391281128	222.18448400497437	223.4682660102844	223.81843304634097	226.29307007789612	4.108586072921753	[220.19813799858093, 220.29806804656982, 221.28246212005615, 221.4493911266327, 222.21685814857483, 222.3337700366974, 222.43371319770813, 222.56747102737427, 222.66726899147034, 222.78406310081482, 222.90082621574402, 223.01759910583496, 223.13440799713135, 223.25120520591736, 223.36798620224, 223.4848301410675, 223.60160422325134, 223.71841311454773, 223.83520913124084, 223.95212411880493, 224.06948113441467, 224.2930691242218]	[220.18920119209355, 220.30586785876022, 221.28886785876023, 221.45556785876022, 222.20556785876022, 222.3222345254269, 222.43890119209357, 222.55556785876024, 222.67223452542692, 222.7889011920936, 222.90556785876026, 223.02223452542694, 223.1389011920936, 223.2555678587603, 223.37223452542696, 223.48890119209364, 223.6055678587603, 223.72223452542698, 223.83890119209366, 223.95556785876033, 224.072234525427, 224.30556785876033]	2021_Feb_01_1439	59.88278444759494	1	1
18	38	FALSE	AA	v	['R', 'Y', 'A', 'P', 'V', 'U', 'H', 'T', 'W', 'surprise', 'M', 'K', 'X', 'E', 'N', 'C']	[1587, 2670, 697, 1456, 2245, 2059, 986, 1888, 2448, 'stimAuditory/all_stimAuditory/203.wav', 1224, 1122, 4000, 904, 1335, 829]	13	Present	stimAuditory/all_stimAuditory/224.wav	stimVisual/all_stimVisual/205.jpg	PRESENT	0.1670701503753662	226.2934548854828	228.30102801322937	229.46786999702456	229.81769585609436	232.40943717956543	4.10840916633606	[226.30471920967102, 226.42127203941345, 227.4057321548462, 227.57271814346313, 228.32355213165283, 228.44033408164978, 228.5569040775299, 228.67385911941528, 228.79073309898376, 228.9075231552124, 229.0243000984192, 229.14111399650574, 229.257954120636, 229.37476420402527, 229.4915771484375, 229.6082260608673, 229.7249720096588, 229.84186601638794, 229.9586730003357, 230.07541513442993, 230.19237208366394, 230.4094362258911]	[226.30556785876033, 226.422234525427, 227.405234525427, 227.571934525427, 228.321934525427, 228.43860119209367, 228.55526785876035, 228.67193452542702, 228.7886011920937, 228.90526785876037, 229.02193452542704, 229.13860119209372, 229.2552678587604, 229.37193452542706, 229.48860119209374, 229.6052678587604, 229.7219345254271, 229.83860119209376, 229.95526785876044, 230.0719345254271, 230.18860119209378, 230.4219345254271]	2021_Feb_01_1439	59.88278444759494	1	1
18	39	FALSE	NA	v	['W', 'V', 'R', 'C', 'B', 'J', 'U', 'A', 'K', 'M', 'Z', 'S', 'X', 'E', 'H', 'Y']	[2448, 2245, 1587, 829, 760, 1029, 2059, 697, 1122, 1224, 2911, 1731, 4000, 904, 986, 2670]	13	Present	NA	NA	PRESENT	0.05260086059570312	232.41683292388916	234.4173300266266	235.58428502082825	235.93420791625977	238.52580404281616	4.108474016189575	[232.42810916900635, 232.5447142124176, 233.5290651321411, 233.69585704803467, 234.447172164917, 234.56371116638184, 234.68016505241394, 234.7970461845398, 234.9140682220459, 235.03085112571716, 235.14746618270874, 235.26413416862488, 235.38094806671143, 235.49777507781982, 235.61478304862976, 235.73148012161255, 235.84840202331543, 235.96516013145447, 236.08189511299133, 236.19867706298828, 236.29860401153564, 236.52580308914185]	[232.4219345254271, 232.53860119209378, 233.52160119209378, 233.68830119209377, 234.43830119209377, 234.55496785876045, 234.67163452542712, 234.7883011920938, 234.90496785876047, 235.02163452542715, 235.13830119209382, 235.2549678587605, 235.37163452542717, 235.48830119209384, 235.60496785876052, 235.7216345254272, 235.83830119209387, 235.95496785876054, 236.0716345254272, 236.1883011920939, 236.30496785876056, 236.53830119209388]	2021_Feb_01_1439	59.88278444759494	1	1
18	40	FALSE	NV	v	['Z', 'C', 'J', 'N', 'K', 'P', 'B', 'X', 'M', 'Y', 'S', 'H', 'E', 'W', 'G', 'A']	[2911, 829, 1029, 1335, 1122, 1456, 760, 4000, 1224, 2670, 1731, 986, 904, 2448, 944, 697]	8	Present	NA	NA	PRESENT	0.00896692276000976	238.5232889652252	240.5335350036621	241.1175389289856	241.4672269821167	244.64217019081116	4.108635187149048	[238.5345652103424, 238.65109705924988, 239.63571310043335, 239.8025360107422, 240.55315518379211, 240.6700839996338, 240.78698921203613, 240.90353918075562, 241.02033305168152, 241.13726210594177, 241.25418519973755, 241.37083506584167, 241.4878420829773, 241.6044521331787, 241.72112202644348, 241.8379771709442, 241.9548680782318, 242.07160902023315, 242.18833804130554, 242.30520915985107, 242.4221670627594, 242.64217019081116]	[238.53830119209388, 238.65496785876056, 239.63796785876056, 239.80466785876055, 240.55466785876055, 240.67133452542723, 240.7880011920939, 240.90466785876058, 241.02133452542725, 241.13800119209392, 241.2546678587606, 241.37133452542727, 241.48800119209395, 241.60466785876062, 241.7213345254273, 241.83800119209397, 241.95466785876064, 242.07133452542732, 242.188001192094, 242.30466785876067, 242.42133452542734, 242.65466785876066]	2021_Feb_01_1439	59.88278444759494	1	1
18	41	FALSE	NN	v	['S', 'R', 'Y', 'J', 'C', 'N', 'Z', 'W', 'B', 'G', 'U', 'P', 'E', 'H', 'T', 'A']	[1731, 1587, 2670, 1029, 829, 1335, 2911, 2448, 760, 944, 2059, 1456, 904, 986, 1888, 697]	9	Absent	NA	NA	ABSENT	0.2535369396209717	244.646831035614	246.64999103546145	247.35027384757996	247.70034790039065	250.7585370540619	4.108546018600464	[244.65809512138367, 244.77443718910217, 245.75889420509338, 245.9258689880371, 246.6766541004181, 246.79362511634827, 246.91019010543823, 247.02698612213135, 247.14386820793152, 247.26065015792847, 247.37727308273315, 247.4942650794983, 247.61088109016418, 247.727881193161, 247.84460306167603, 247.9614200592041, 248.07828903198242, 248.19491314888, 248.31170105934143, 248.42841601371765, 248.5452311038971, 248.75853610038757]	[244.65466785876066, 244.77133452542733, 245.75433452542734, 245.92103452542733, 246.67103452542733, 246.787701192094, 246.90436785876068, 247.02103452542735, 247.13770119209403, 247.2543678587607, 247.37103452542738, 247.48770119209405, 247.60436785876072, 247.7210345254274, 247.83770119209407, 247.95436785876075, 248.07103452542742, 248.1877011920941, 248.30436785876077, 248.42103452542744, 248.53770119209412, 248.77103452542744]	2021_Feb_01_1439	59.88278444759494	1	1
18	42	FALSE	AV	v	['R', 'U', 'N', 'V', 'H', 'J', 'Z', 'C', 'T', 'S', 'surprise', 'P', 'K', 'X', 'B', 'Y']	[1587, 2059, 1335, 2245, 986, 1029, 2911, 829, 1888, 1731, 'stimAuditory/all_stimAuditory/115.wav', 1456, 1122, 4000, 760, 2670]	14	Present	stimAuditory/all_stimAuditory/116.wav	stimVisual/all_stimVisual/208.jpg	PRESENT	0.14694809913635254	250.75289583206177	252.7662618160248	254.0501439571381	254.3999719619751	256.8749041557312	4.108642339706421	[250.76416015625, 250.88097715377808, 251.86552500724792, 252.0322561264038, 252.79995322227478, 252.89985918998718, 253.016743183136, 253.13337206840515, 253.25018310546875, 253.3669571876526, 253.48397707939148, 253.60057616233826, 253.71762204170227, 253.8342912197113, 253.9509551525116, 254.06803917884827, 254.1845350265503, 254.30146503448486, 254.41815900802612, 254.53502321243286, 254.65181016921997, 254.87490320205688]	[250.77103452542744, 250.8877011920941, 251.87070119209412, 252.0374011920941, 252.7874011920941, 252.90406785876078, 253.02073452542746, 253.13740119209413, 253.2540678587608, 253.37073452542748, 253.48740119209415, 253.60406785876083, 253.7207345254275, 253.83740119209418, 253.95406785876085, 254.07073452542753, 254.1874011920942, 254.30406785876087, 254.42073452542755, 254.53740119209422, 254.6540678587609, 254.88740119209422]	2021_Feb_01_1439	59.88278444759494	1	1
18	43	FALSE	NA	v	['W', 'E', 'Y', 'U', 'V', 'S', 'J', 'H', 'B', 'Z', 'X', 'N', 'P', 'M', 'C', 'K']	[2448, 904, 2670, 2059, 2245, 1731, 1029, 986, 760, 2911, 4000, 1335, 1456, 1224, 829, 1122]	11	Present	NA	NA	PRESENT	0.21528887748718264	256.8764820098877	258.8825159072876	259.8165650367737	260.1663978099823	262.9912700653076	4.1087541580200195	[256.88775610923767, 257.0043511390686, 257.98867201805115, 258.1557741165161, 258.90643405914307, 259.02329301834106, 259.1401720046997, 259.25689601898193, 259.3735001087189, 259.49052715301514, 259.6071081161499, 259.7239911556244, 259.8407120704651, 259.9575672149658, 260.07455706596375, 260.1911242008209, 260.3078501224518, 260.4245731830597, 260.5413861274719, 260.65843319892883, 260.7751100063324, 260.9912691116333]	[256.8874011920942, 257.0040678587609, 257.9870678587609, 258.1537678587609, 258.9037678587609, 259.02043452542756, 259.13710119209424, 259.2537678587609, 259.3704345254276, 259.48710119209426, 259.60376785876093, 259.7204345254276, 259.8371011920943, 259.95376785876095, 260.07043452542763, 260.1871011920943, 260.303767858761, 260.42043452542765, 260.5371011920943, 260.653767858761, 260.7704345254277, 261.003767858761]	2021_Feb_01_1439	59.88278444759494	1	1
18	44	FALSE	NV	v	['M', 'K', 'W', 'Y', 'P', 'T', 'N', 'J', 'C', 'B', 'E', 'H', 'X', 'G', 'U', 'R']	[1224, 1122, 2448, 2670, 1456, 1888, 1335, 1029, 829, 760, 904, 986, 4000, 944, 2059, 1587]	13	Present	NA	NA	PRESENT	0.06069183349609375	262.99967789649963	264.9991228580475	266.16642785072327	266.51609802246094	269.10763716697693	4.108514308929443	[263.01094222068787, 263.1276741027832, 264.1124892234802, 264.2789480686188, 265.029767036438, 265.1465871334076, 265.2632761001587, 265.3799571990967, 265.49669003486633, 265.61369919776917, 265.7303321361542, 265.8473291397095, 265.9642310142517, 266.08081102371216, 266.19767212867737, 266.3145821094513, 266.43134903907776, 266.54794812202454, 266.6649401187897, 266.7817270755768, 266.8816421031952, 267.1076362133026]	[263.003767858761, 263.1204345254277, 264.1034345254277, 264.2701345254277, 265.0201345254277, 265.13680119209437, 265.25346785876104, 265.3701345254277, 265.4868011920944, 265.60346785876106, 265.72013452542774, 265.8368011920944, 265.9534678587611, 266.07013452542776, 266.18680119209444, 266.3034678587611, 266.4201345254278, 266.53680119209446, 266.65346785876113, 266.7701345254278, 266.8868011920945, 267.12013452542783]	2021_Feb_01_1439	59.88278444759494	1	1
18	45	FALSE	NN	v	['P', 'S', 'A', 'W', 'R', 'Z', 'J', 'M', 'B', 'H', 'K', 'T', 'V', 'C', 'G', 'Y']	[1456, 1731, 697, 2448, 1587, 2911, 1029, 1224, 760, 986, 1122, 1888, 2245, 829, 944, 2670]	12	Absent	NA	NA	ABSENT	0.24910998344421387	269.10623693466187	271.1154730319977	272.16578698158264	272.5163218975067	275.22401213645935	4.10853910446167	[269.1175010204315, 269.2341341972351, 270.2185890674591, 270.3854660987854, 271.1362090110779, 271.253053188324, 271.36985421180725, 271.48672699928284, 271.60337114334106, 271.7201211452484, 271.8368470668793, 271.95384407043457, 272.0706090927124, 272.1873941421509, 272.30408906936646, 272.42116022109985, 272.5376660823822, 272.654776096344, 272.77147102355957, 272.88827419281006, 273.004940032959, 273.22400403022766]	[269.12013452542783, 269.2368011920945, 270.2198011920945, 270.3865011920945, 271.1365011920945, 271.2531678587612, 271.36983452542785, 271.4865011920945, 271.6031678587612, 271.71983452542787, 271.83650119209454, 271.9531678587612, 272.0698345254279, 272.18650119209457, 272.30316785876124, 272.4198345254279, 272.5365011920946, 272.65316785876126, 272.76983452542794, 272.8865011920946, 273.0031678587613, 273.23650119209464]	2021_Feb_01_1439	59.88278444759494	1	1
18	46	FALSE	NA	v	['S', 'W', 'A', 'H', 'R', 'K', 'V', 'X', 'T', 'U', 'E', 'N', 'B', 'G', 'Z', 'P']	[1731, 2448, 697, 986, 1587, 1122, 2245, 4000, 1888, 2059, 904, 1335, 760, 944, 2911, 1456]	8	Present	NA	NA	PRESENT	0.04674291610717773	275.22966289520264	277.2318539619446	277.81596088409424	278.16556882858276	281.34037017822266	4.108516216278076	[275.2409281730652, 275.35750913619995, 276.3419589996338, 276.50865411758423, 277.25942301750183, 277.37645411491394, 277.49321699142456, 277.60995411872864, 277.72678804397583, 277.84347915649414, 277.96026515960693, 278.07719111442566, 278.19395899772644, 278.3106770515442, 278.4273781776428, 278.5441770553589, 278.66097116470337, 278.77788519859314, 278.89477610588074, 279.01141905784607, 279.1283531188965, 279.34037017822266]	[275.23650119209464, 275.3531678587613, 276.3361678587613, 276.5028678587613, 277.2528678587613, 277.369534525428, 277.48620119209465, 277.60286785876133, 277.719534525428, 277.8362011920947, 277.95286785876135, 278.069534525428, 278.1862011920947, 278.3028678587614, 278.41953452542805, 278.5362011920947, 278.6528678587614, 278.76953452542807, 278.88620119209475, 279.0028678587614, 279.1195345254281, 279.35286785876144]	2021_Feb_01_1439	59.88278444759494	1	1
18	47	FALSE	NN	v	['S', 'A', 'T', 'R', 'N', 'V', 'G', 'H', 'B', 'U', 'Y', 'Z', 'K', 'W', 'C', 'P']	[1731, 697, 1888, 1587, 1335, 2245, 944, 986, 760, 2059, 2670, 2911, 1122, 2448, 829, 1456]	13	Absent	NA	NA	ABSENT	0.17090106010437012	281.33586597442627	283.3481798171997	284.5151119232178	284.86528992652893	287.4567370414734	4.108557224273682	[281.3471300601959, 281.46391320228577, 282.44856214523315, 282.61530017852783, 283.38277316093445, 283.48286509513855, 283.5997920036316, 283.71660017967224, 283.8333489894867, 283.94990611076355, 284.0670042037964, 284.1836440563202, 284.30054211616516, 284.4172520637512, 284.5339460372925, 284.65095615386963, 284.7675311565399, 284.88452100753784, 285.00152707099915, 285.118045091629, 285.23482298851013, 285.4567360877991]	[281.35286785876144, 281.4695345254281, 282.4525345254281, 282.6192345254281, 283.3692345254281, 283.4859011920948, 283.60256785876146, 283.71923452542813, 283.8359011920948, 283.9525678587615, 284.06923452542816, 284.18590119209483, 284.3025678587615, 284.4192345254282, 284.53590119209485, 284.65256785876153, 284.7692345254282, 284.8859011920949, 285.00256785876155, 285.1192345254282, 285.2359011920949, 285.46923452542825]	2021_Feb_01_1439	59.88278444759494	1	1
18	48	FALSE	NV	v	['N', 'Z', 'G', 'A', 'J', 'K', 'V', 'M', 'B', 'Y', 'X', 'P', 'T', 'E', 'U', 'R']	[1335, 2911, 944, 697, 1029, 1122, 2245, 1224, 760, 2670, 4000, 1456, 1888, 904, 2059, 1587]	11	Present	NA	NA	PRESENT	0.1516549587249756	287.4594488143921	289.4643988609314	290.39815187454224	290.7482478618622	293.5731041431427	4.108705282211304	[287.4707131385803, 287.58720803260803, 288.5717091560364, 288.7385461330414, 289.48942613601685, 289.60626101493835, 289.72294902801514, 289.8398480415344, 289.95651412010193, 290.0734660625458, 290.19000720977783, 290.3068940639496, 290.4235610961914, 290.5405662059784, 290.6571800708771, 290.77412509918213, 290.89090299606323, 291.00771713256836, 291.12445616722107, 291.2411861419678, 291.3581211566925, 291.5731132030487]	[287.46923452542825, 287.5859011920949, 288.5689011920949, 288.7356011920949, 289.4856011920949, 289.6022678587616, 289.71893452542827, 289.83560119209494, 289.9522678587616, 290.0689345254283, 290.18560119209496, 290.30226785876164, 290.4189345254283, 290.535601192095, 290.65226785876166, 290.76893452542834, 290.885601192095, 291.0022678587617, 291.11893452542836, 291.23560119209503, 291.3522678587617, 291.58560119209506]	2021_Feb_01_1439	59.88278444759494	1	1
18	49	FALSE	NN	v	['B', 'K', 'S', 'M', 'J', 'P', 'R', 'C', 'E', 'A', 'H', 'N', 'G', 'W', 'V', 'Y']	[760, 1122, 1731, 1224, 1029, 1456, 1587, 829, 904, 697, 986, 1335, 944, 2448, 2245, 2670]	10	Absent	NA	NA	ABSENT	0.0929269790649414	293.5825078487396	295.5809528827667	296.39794087409973	296.7478229999542	299.6894700527191	4.108517169952393	[293.59377217292786, 293.71049404144287, 294.67812609672546, 294.8450310230255, 295.6130220890045, 295.72960901260376, 295.8461902141571, 295.96292304992676, 296.07978320121765, 296.19670701026917, 296.31358218193054, 296.4299941062927, 296.5300772190094, 296.64693999290466, 296.7636811733246, 296.8805890083313, 296.99737215042114, 297.1140880584717, 297.23095202445984, 297.3477602005005, 297.4645850658417, 297.68947100639343]	[293.58560119209506, 293.70226785876173, 294.68526785876173, 294.8519678587617, 295.6019678587617, 295.7186345254284, 295.8353011920951, 295.95196785876175, 296.0686345254284, 296.1853011920951, 296.30196785876177, 296.41863452542844, 296.5353011920951, 296.6519678587618, 296.76863452542847, 296.88530119209514, 297.0019678587618, 297.1186345254285, 297.23530119209516, 297.35196785876184, 297.4686345254285, 297.70196785876186]	2021_Feb_01_1439	59.88278444759494	1	1
18	50	FALSE	NA	v	['U', 'P', 'R', 'M', 'S', 'W', 'K', 'E', 'Y', 'N', 'V', 'H', 'X', 'C', 'A', 'J']	[2059, 1456, 1587, 1224, 1731, 2448, 1122, 904, 2670, 1335, 2245, 986, 4000, 829, 697, 1029]	13	Present	NA	NA	PRESENT	0.07338213920593262	299.6890158653259	301.6975610256195	302.86412382125854	303.2145948410034	305.8058371543884	4.108276128768921	[299.70028018951416, 299.81702303886414, 300.80158019065857, 300.96842408180237, 301.7191390991211, 301.83618807792664, 301.9526422023773, 302.0696351528168, 302.18645906448364, 302.30318808555603, 302.4201240539551, 302.53678822517395, 302.6534821987152, 302.77043199539185, 302.8870711326599, 303.00405502319336, 303.1206421852112, 303.2376251220703, 303.3543300628662, 303.47090911865234, 303.58781814575195, 303.8058371543884]	[299.70196785876186, 299.81863452542854, 300.80163452542854, 300.96833452542853, 301.71833452542853, 301.8350011920952, 301.9516678587619, 302.06833452542855, 302.1850011920952, 302.3016678587619, 302.4183345254286, 302.53500119209525, 302.6516678587619, 302.7683345254286, 302.8850011920953, 303.00166785876195, 303.1183345254286, 303.2350011920953, 303.35166785876197, 303.46833452542865, 303.5850011920953, 303.81833452542867]	2021_Feb_01_1439	59.88278444759494	1	1
18	51	FALSE	VV	v	['Y', 'B', 'A', 'C', 'surprise', 'J', 'M', 'X', 'G', 'Z', 'E', 'R', 'V', 'U', 'T', 'N']	[2670, 760, 697, 829, 'stimAuditory/all_stimAuditory/205.wav', 1029, 1224, 4000, 944, 2911, 904, 1587, 2245, 2059, 1888, 1335]	8	Present	NA	stimVisual/all_stimVisual/203.jpg	PRESENT	0.11891698837280272	305.8126788139343	307.8138258457184	308.3972909450531	308.7472858428955	311.92221212387085	4.108386278152466	[305.8239450454712, 305.94054102897644, 306.9249520301819, 307.0917341709137, 307.8423361778259, 307.9593482017517, 308.0761740207672, 308.19290709495544, 308.309641122818, 308.42637300491333, 308.543160200119, 308.6600182056427, 308.77687406539917, 308.8934772014618, 309.0102791786194, 309.1271891593933, 309.24405121803284, 309.3607511520386, 309.47770619392395, 309.5943920612335, 309.69436717033386, 309.92220401763916]	[305.81833452542867, 305.93500119209534, 306.91800119209535, 307.08470119209534, 307.83470119209534, 307.951367858762, 308.0680345254287, 308.18470119209536, 308.30136785876203, 308.4180345254287, 308.5347011920954, 308.65136785876206, 308.76803452542873, 308.8847011920954, 309.0013678587621, 309.11803452542875, 309.23470119209543, 309.3513678587621, 309.4680345254288, 309.58470119209545, 309.7013678587621, 309.9347011920955]	2021_Feb_01_1439	59.88278444759494	1	1
18	52	FALSE	NV	v	['W', 'B', 'G', 'C', 'M', 'A', 'J', 'S', 'E', 'T', 'X', 'Z', 'H', 'R', 'Y', 'V']	[2448, 760, 944, 829, 1224, 697, 1029, 1731, 904, 1888, 4000, 2911, 986, 1587, 2670, 2245]	11	Present	NA	NA	PRESENT	0.1553668975830078	311.91903281211853	313.9299159049988	314.86356496810913	315.21357893943787	318.03857016563416	4.108654260635376	[311.93029713630676, 312.0470230579376, 313.03139305114746, 313.1981110572815, 313.96568512916565, 314.06579518318176, 314.1827700138092, 314.29932713508606, 314.4161071777344, 314.5330262184143, 314.64971804618835, 314.76665711402893, 314.88329005241394, 315.00048899650574, 315.1170120239258, 315.23383021354675, 315.3505001068115, 315.46736216545105, 315.58401799201965, 315.70097613334656, 315.81782722473145, 316.03856921195984]	[311.9347011920955, 312.05136785876215, 313.03436785876215, 313.20106785876214, 313.95106785876214, 314.0677345254288, 314.1844011920955, 314.30106785876217, 314.41773452542884, 314.5344011920955, 314.6510678587622, 314.76773452542886, 314.88440119209554, 315.0010678587622, 315.1177345254289, 315.23440119209556, 315.35106785876224, 315.4677345254289, 315.5844011920956, 315.70106785876226, 315.81773452542893, 316.0510678587623]	2021_Feb_01_1439	59.88278444759494	1	1
18	53	FALSE	NN	v	['V', 'K', 'N', 'M', 'E', 'A', 'U', 'C', 'P', 'T', 'H', 'Y', 'Z', 'J', 'R', 'W']	[2245, 1122, 1335, 1224, 904, 697, 2059, 829, 1456, 1888, 986, 2670, 2911, 1029, 1587, 2448]	8	Absent	NA	NA	ABSENT	0.1679282188415527	318.04231882095337	320.0462079048157	320.63016390800476	320.98024702072144	324.1549370288849	4.108729124069214	[318.0535831451416, 318.170205116272, 319.15465903282166, 319.3215661048889, 320.0722551345825, 320.18914008140564, 320.30600118637085, 320.42277812957764, 320.5393981933594, 320.6563022136688, 320.77315402030945, 320.88996505737305, 321.00665402412415, 321.12359404563904, 321.2401661872864, 321.3569390773773, 321.47376108169556, 321.590772151947, 321.70740604400635, 321.8241481781006, 321.94105219841003, 322.1549370288849]	[318.0510678587623, 318.16773452542895, 319.15073452542896, 319.31743452542895, 320.06743452542895, 320.1841011920956, 320.3007678587623, 320.417434525429, 320.53410119209565, 320.6507678587623, 320.767434525429, 320.88410119209567, 321.00076785876234, 321.117434525429, 321.2341011920957, 321.35076785876237, 321.46743452542904, 321.5841011920957, 321.7007678587624, 321.81743452542906, 321.93410119209574, 322.1674345254291]	2021_Feb_01_1439	59.88278444759494	1	1
18	54	FALSE	VN	v	['G', 'C', 'P', 'Y', 'R', 'Z', 'T', 'B', 'surprise', 'K', 'A', 'E', 'M', 'W', 'N', 'H']	[944, 829, 1456, 2670, 1587, 2911, 1888, 760, 'stimAuditory/all_stimAuditory/222.wav', 1122, 697, 904, 1224, 2448, 1335, 986]	12	Absent	NA	stimVisual/all_stimVisual/218.jpg	ABSENT	0.13324213027954102	324.16542291641235	326.162663936615	327.213161945343	327.56328892707825	330.2713041305542	4.108640193939209	[324.17670822143555, 324.27665400505066, 325.2614891529083, 325.4280982017517, 326.1956100463867, 326.29556798934937, 326.4123811721802, 326.5291111469269, 326.6459770202637, 326.762727022171, 326.87952518463135, 326.9963300228119, 327.12996220588684, 327.2298221588135, 327.34666109085083, 327.4634311199188, 327.5803151130676, 327.6971080303192, 327.81406712532043, 327.9308350086212, 328.04766511917114, 328.2713031768799]	[324.1674345254291, 324.28410119209576, 325.26710119209577, 325.43380119209576, 326.18380119209576, 326.30046785876243, 326.4171345254291, 326.5338011920958, 326.65046785876245, 326.7671345254291, 326.8838011920958, 327.0004678587625, 327.11713452542915, 327.2338011920958, 327.3504678587625, 327.4671345254292, 327.58380119209585, 327.7004678587625, 327.8171345254292, 327.93380119209587, 328.05046785876254, 328.2838011920959]	2021_Feb_01_1439	59.88278444759494	1	1
18	55	FALSE	NA	v	['G', 'P', 'C', 'R', 'J', 'Y', 'H', 'X', 'Z', 'M', 'E', 'S', 'W', 'T', 'U', 'N']	[944, 1456, 829, 1587, 1029, 2670, 986, 4000, 2911, 1224, 904, 1731, 2448, 1888, 2059, 1335]	8	Present	NA	NA	PRESENT	0.09783601760864258	330.2721610069275	332.2789058685303	332.8626320362091	333.2127618789673	336.3876700401306	4.108764171600342	[330.2834241390228, 330.3999910354614, 331.38451504707336, 331.5514590740204, 332.30212807655334, 332.4189291000366, 332.5356590747833, 332.65270709991455, 332.7694661617279, 332.8862600326538, 333.0028622150421, 333.1198651790619, 333.2364230155945, 333.35338521003723, 333.4702000617981, 333.5871500968933, 333.7035801410675, 333.82061314582825, 333.9372720718384, 334.0538852214813, 334.1708941459656, 334.3876690864563]	[330.2838011920959, 330.40046785876257, 331.3834678587626, 331.55016785876256, 332.30016785876256, 332.41683452542924, 332.5335011920959, 332.6501678587626, 332.76683452542926, 332.88350119209593, 333.0001678587626, 333.1168345254293, 333.23350119209596, 333.35016785876263, 333.4668345254293, 333.583501192096, 333.70016785876265, 333.81683452542933, 333.933501192096, 334.0501678587627, 334.16683452542935, 334.4001678587627]	2021_Feb_01_1439	59.88278444759494	1	1
18	56	FALSE	NN	v	['Z', 'H', 'A', 'P', 'N', 'K', 'Y', 'T', 'U', 'B', 'S', 'M', 'C', 'R', 'J', 'E']	[2911, 986, 697, 1456, 1335, 1122, 2670, 1888, 2059, 760, 1731, 1224, 829, 1587, 1029, 904]	10	Absent	NA	NA	ABSENT	0.14301300048828125	336.3957200050354	338.3956689834595	339.21248602867126	339.5626928806305	342.5040371417999	4.108368158340454	[336.40698504447937, 336.5234100818634, 337.5078110694885, 337.6746470928192, 338.4253261089325, 338.54221510887146, 338.6591191291809, 338.77586913108826, 338.892539024353, 339.0092852115631, 339.12626814842224, 339.243057012558, 339.35993814468384, 339.4765992164612, 339.5932641029358, 339.71025013923645, 339.82698607444763, 339.94356417655945, 340.06054615974426, 340.1771960258484, 340.2772891521454, 340.5040371417999]	[336.4001678587627, 336.5168345254294, 337.4998345254294, 337.66653452542937, 338.41653452542937, 338.53320119209604, 338.6498678587627, 338.7665345254294, 338.88320119209607, 338.99986785876274, 339.1165345254294, 339.2332011920961, 339.34986785876276, 339.46653452542944, 339.5832011920961, 339.6998678587628, 339.81653452542946, 339.93320119209613, 340.0498678587628, 340.1665345254295, 340.28320119209616, 340.5165345254295]	2021_Feb_01_1439	59.88278444759494	1	1
18	57	FALSE	NN	v	['A', 'C', 'B', 'K', 'G', 'E', 'Y', 'W', 'J', 'R', 'Z', 'S', 'T', 'P', 'N', 'M']	[697, 829, 760, 1122, 944, 904, 2670, 2448, 1029, 1587, 2911, 1731, 1888, 1456, 1335, 1224]	12	Absent	NA	NA	ABSENT	0.0835731029510498	342.5018718242645	344.5119078159332	345.5623140335083	345.9120788574219	348.62040400505066	4.108496189117432	[342.5131371021271, 342.6299149990082, 343.61425399780273, 343.7811441421509, 344.5318350791931, 344.6487832069397, 344.7655041217804, 344.88240003585815, 344.9992220401764, 345.11597418785095, 345.2328281402588, 345.349573135376, 345.46624517440796, 345.58312821388245, 345.699942111969, 345.81681513786316, 345.93347001075745, 346.05065512657166, 346.1670892238617, 346.2837851047516, 346.4007430076599, 346.62040400505066]	[342.5165345254295, 342.6332011920962, 343.6162011920962, 343.7829011920962, 344.5329011920962, 344.64956785876285, 344.7662345254295, 344.8829011920962, 344.9995678587629, 345.11623452542955, 345.2329011920962, 345.3495678587629, 345.46623452542957, 345.58290119209624, 345.6995678587629, 345.8162345254296, 345.93290119209627, 346.04956785876294, 346.1662345254296, 346.2829011920963, 346.39956785876296, 346.6329011920963]	2021_Feb_01_1439	59.88278444759494	1	1
18	58	FALSE	NA	v	['G', 'K', 'V', 'C', 'J', 'M', 'A', 'X', 'B', 'Z', 'N', 'T', 'E', 'H', 'Y', 'W']	[944, 1122, 2245, 829, 1029, 1224, 697, 4000, 760, 2911, 1335, 1888, 904, 986, 2670, 2448]	8	Present	NA	NA	PRESENT	0.21613407135009768	348.6253068447113	350.62801790237427	351.2120478153229	351.5620858669281	354.73677015304565	4.108752250671387	[348.63657116889954, 348.7530560493469, 349.73760199546814, 349.9045660495758, 350.6552531719208, 350.77217507362366, 350.888738155365, 351.0056691169739, 351.12242007255554, 351.2391450405121, 351.35614013671875, 351.47281312942505, 351.5895850658417, 351.70647406578064, 351.8231921195984, 351.93986320495605, 352.05660009384155, 352.17351603507996, 352.2904851436615, 352.40696907043457, 352.5239791870117, 352.73677110671997]	[348.6329011920963, 348.749567858763, 349.732567858763, 349.899267858763, 350.649267858763, 350.76593452542966, 350.88260119209633, 350.999267858763, 351.1159345254297, 351.23260119209635, 351.349267858763, 351.4659345254297, 351.5826011920964, 351.69926785876305, 351.8159345254297, 351.9326011920964, 352.0492678587631, 352.16593452542975, 352.2826011920964, 352.3992678587631, 352.51593452542977, 352.7492678587631]	2021_Feb_01_1439	59.88278444759494	1	1
18	59	FALSE	NA	v	['G', 'U', 'Y', 'T', 'K', 'C', 'W', 'X', 'N', 'V', 'A', 'J', 'S', 'B', 'Z', 'P']	[944, 2059, 2670, 1888, 1122, 829, 2448, 4000, 1335, 2245, 697, 1029, 1731, 760, 2911, 1456]	8	Present	NA	NA	PRESENT	0.02947592735290527	354.73152589797974	356.7445788383484	357.3283109664917	357.67845392227173	360.85313606262207	4.108557224273682	[354.74279022216797, 354.8596701622009, 355.84410214424133, 356.0113401412964, 356.77850008010864, 356.8784770965576, 356.9952549934387, 357.11206817626953, 357.2291331291199, 357.3456611633301, 357.46254110336304, 357.5793001651764, 357.696081161499, 357.81308102607727, 357.9295721054077, 358.04661417007446, 358.1632010936737, 358.2801752090454, 358.3967959880829, 358.5136630535126, 358.6303791999817, 358.8531370162964]	[354.7492678587631, 354.8659345254298, 355.8489345254298, 356.0156345254298, 356.7656345254298, 356.88230119209646, 356.99896785876314, 357.1156345254298, 357.2323011920965, 357.34896785876316, 357.46563452542983, 357.5823011920965, 357.6989678587632, 357.81563452542986, 357.93230119209653, 358.0489678587632, 358.1656345254299, 358.28230119209655, 358.3989678587632, 358.5156345254299, 358.6323011920966, 358.8656345254299]	2021_Feb_01_1439	59.88278444759494	1	1
18	60	FALSE	NV	v	['Y', 'E', 'P', 'M', 'J', 'C', 'U', 'G', 'K', 'X', 'W', 'B', 'N', 'R', 'S', 'Z']	[2670, 904, 1456, 1224, 1029, 829, 2059, 944, 1122, 4000, 2448, 760, 1335, 1587, 1731, 2911]	10	Present	NA	NA	PRESENT	0.01786017417907715	360.8549678325653	362.86074590682983	363.67797589302063	364.02802991867065	366.9695041179657	4.108758211135864	[360.86623215675354, 360.9829971790314, 361.967502117157, 362.13433599472046, 362.8850271701813, 363.0019950866699, 363.11862301826477, 363.2356162071228, 363.35217213630676, 363.46907901763916, 363.5857710838318, 363.7026491165161, 363.81945300102234, 363.9362690448761, 364.0530321598053, 364.16981410980225, 364.2864761352539, 364.40323400497437, 364.52026200294495, 364.63687014579773, 364.75383710861206, 364.9695041179657]	[360.8656345254299, 360.9823011920966, 361.9653011920966, 362.1320011920966, 362.8820011920966, 362.99866785876327, 363.11533452542994, 363.2320011920966, 363.3486678587633, 363.46533452542997, 363.58200119209664, 363.6986678587633, 363.81533452543, 363.93200119209666, 364.04866785876334, 364.16533452543, 364.2820011920967, 364.39866785876336, 364.51533452543003, 364.6320011920967, 364.7486678587634, 364.98200119209673]	2021_Feb_01_1439	59.88278444759494	1	1
18	61	FALSE	NV	v	['G', 'N', 'B', 'M', 'K', 'A', 'T', 'V', 'X', 'S', 'W', 'Y', 'E', 'J', 'R', 'P']	[944, 1335, 760, 1224, 1122, 697, 1888, 2245, 4000, 1731, 2448, 2670, 904, 1029, 1587, 1456]	9	Present	NA	NA	PRESENT	0.10334491729736328	366.9784688949585	368.9773259162903	369.6776330471039	370.02767395973206	373.0858700275421	4.108544111251831	[366.98973321914673, 367.1064441204071, 368.07392501831055, 368.24066400527954, 369.00826811790466, 369.12532806396484, 369.24210715293884, 369.3587040901184, 369.4756841659546, 369.59214210510254, 369.7091472148895, 369.8260681629181, 369.94263100624084, 370.0596570968628, 370.1763801574707, 370.2929961681366, 370.409921169281, 370.52675199508667, 370.64326906204224, 370.7433331012726, 370.860347032547, 371.085871219635]	[366.98200119209673, 367.0986678587634, 368.0816678587634, 368.2483678587634, 368.9983678587634, 369.1150345254301, 369.23170119209675, 369.3483678587634, 369.4650345254301, 369.5817011920968, 369.69836785876345, 369.8150345254301, 369.9317011920968, 370.04836785876347, 370.16503452543014, 370.2817011920968, 370.3983678587635, 370.51503452543017, 370.63170119209684, 370.7483678587635, 370.8650345254302, 371.09836785876354]	2021_Feb_01_1439	59.88278444759494	1	1
18	62	FALSE	VV	v	['J', 'U', 'S', 'W', 'M', 'V', 'C', 'Z', 'H', 'K', 'surprise', 'R', 'G', 'X', 'A', 'N']	[1029, 2059, 1731, 2448, 1224, 2245, 829, 2911, 986, 1122, 'stimAuditory/all_stimAuditory/108.wav', 1587, 944, 4000, 697, 1335]	14	Present	NA	stimVisual/all_stimVisual/107.jpg	PRESENT	0.1637368202209473	373.08482789993286	375.09394884109497	376.37731885910034	376.7273049354553	379.2022361755371	4.108287334442139	[373.0960931777954, 373.21290016174316, 374.19736099243164, 374.3640730381012, 375.11488008499146, 375.2318592071533, 375.3483819961548, 375.46548199653625, 375.5822241306305, 375.6989221572876, 375.8155879974365, 375.9324040412903, 376.04932498931885, 376.1659150123596, 376.28276801109314, 376.39967608451843, 376.51635122299194, 376.6331419944763, 376.7500720024109, 376.8668460845947, 376.9838581085205, 377.2022361755371]	[373.09836785876354, 373.2150345254302, 374.1980345254302, 374.3647345254302, 375.1147345254302, 375.2314011920969, 375.34806785876356, 375.46473452543023, 375.5814011920969, 375.6980678587636, 375.81473452543025, 375.9314011920969, 376.0480678587636, 376.1647345254303, 376.28140119209695, 376.3980678587636, 376.5147345254303, 376.631401192097, 376.74806785876365, 376.8647345254303, 376.981401192097, 377.21473452543034]	2021_Feb_01_1439	59.88278444759494	1	1
18	63	FALSE	NA	v	['M', 'P', 'W', 'N', 'A', 'Y', 'U', 'K', 'S', 'Z', 'H', 'G', 'C', 'X', 'J', 'V']	[1224, 1456, 2448, 1335, 697, 2670, 2059, 1122, 1731, 2911, 986, 944, 829, 4000, 1029, 2245]	14	Present	NA	NA	PRESENT	0.16131186485290527	379.20802092552185	381.2099609375	382.4936299324035	382.8437588214874	385.31860399246216	4.108643054962158	[379.2192850112915, 379.33629608154297, 380.3205831050873, 380.48737502098083, 381.23815512657166, 381.35486602783203, 381.47169518470764, 381.5885531902313, 381.70532417297363, 381.82204008102417, 381.9389691352844, 382.05584812164307, 382.17264103889465, 382.2893500328064, 382.40616512298584, 382.5227601528168, 382.6394410133362, 382.7563581466675, 382.8733010292053, 382.98994612693787, 383.0900812149048, 383.31860303878784]	[379.21473452543034, 379.331401192097, 380.314401192097, 380.481101192097, 381.231101192097, 381.3477678587637, 381.46443452543036, 381.58110119209704, 381.6977678587637, 381.8144345254304, 381.93110119209706, 382.04776785876373, 382.1644345254304, 382.2811011920971, 382.39776785876376, 382.51443452543043, 382.6311011920971, 382.7477678587638, 382.86443452543045, 382.9811011920971, 383.0977678587638, 383.33110119209715]	2021_Feb_01_1439	59.88278444759494	1	1
18	64	FALSE	NA	v	['E', 'J', 'S', 'T', 'N', 'M', 'H', 'R', 'K', 'U', 'A', 'X', 'W', 'Y', 'C', 'G']	[904, 1029, 1731, 1888, 1335, 1224, 986, 1587, 1122, 2059, 697, 4000, 2448, 2670, 829, 944]	12	Present	NA	NA	PRESENT	0.1816270351409912	385.31466484069824	387.3262870311737	388.37691497802734	388.726676940918	391.4349701404571	4.108683109283447	[385.3259291648865, 385.44264221191406, 386.4271330833435, 386.5937910079956, 387.36180305480957, 387.4614841938019, 387.57839608192444, 387.69513511657715, 387.8118100166321, 387.9287450313568, 388.0454161167145, 388.1623840332031, 388.2790491580963, 388.3959882259369, 388.51272201538086, 388.62960505485535, 388.74615716934204, 388.8630380630493, 388.9798891544342, 389.09666204452515, 389.21331214904785, 389.43497014045715]	[385.33110119209715, 385.4477678587638, 386.43076785876383, 386.5974678587638, 387.3474678587638, 387.4641345254305, 387.58080119209717, 387.69746785876384, 387.8141345254305, 387.9308011920972, 388.04746785876387, 388.16413452543054, 388.2808011920972, 388.3974678587639, 388.51413452543056, 388.63080119209724, 388.7474678587639, 388.8641345254306, 388.98080119209726, 389.09746785876393, 389.2141345254306, 389.44746785876396]	2021_Feb_01_1439	59.88278444759494	1	1
18	65	FALSE	VN	v	['W', 'V', 'S', 'H', 'surprise', 'Z', 'M', 'G', 'N', 'J', 'U', 'C', 'P', 'A', 'Y', 'T']	[2448, 2245, 1731, 986, 'stimAuditory/all_stimAuditory/112.wav', 2911, 1224, 944, 1335, 1029, 2059, 829, 1456, 697, 2670, 1888]	8	Absent	NA	stimVisual/all_stimVisual/210.jpg	ABSENT	0.05818986892700195	391.43797397613525	393.4429678916931	394.0265648365021	394.3766460418701	397.5513370037079	4.1083691120147705	[391.4492380619049, 391.5659132003784, 392.5504710674286, 392.71732211112976, 393.46794509887695, 393.5848560333252, 393.7015039920807, 393.8184051513672, 393.93505120277405, 394.05205821990967, 394.16879320144653, 394.285453081131, 394.40239810943604, 394.5190100669861, 394.63602209091187, 394.75284814834595, 394.8693850040436, 394.9862401485443, 395.10313415527344, 395.2198700904846, 395.3367781639099, 395.5513370037079]	[391.44746785876396, 391.56413452543063, 392.54713452543064, 392.7138345254306, 393.4638345254306, 393.5805011920973, 393.697167858764, 393.81383452543065, 393.9305011920973, 394.047167858764, 394.1638345254307, 394.28050119209735, 394.397167858764, 394.5138345254307, 394.63050119209737, 394.74716785876404, 394.8638345254307, 394.9805011920974, 395.09716785876407, 395.21383452543074, 395.3305011920974, 395.56383452543076]	2021_Feb_01_1439	59.88278444759494	1	1
18	66	FALSE	NV	v	['A', 'E', 'H', 'S', 'N', 'B', 'M', 'T', 'K', 'P', 'V', 'W', 'X', 'Y', 'J', 'G']	[697, 904, 986, 1731, 1335, 760, 1224, 1888, 1122, 1456, 2245, 2448, 4000, 2670, 1029, 944]	13	Present	NA	NA	PRESENT	0.0795888900756836	397.5615630149842	399.5589859485626	400.72633385658264	401.0766508579254	403.6677041053772	4.108718156814575	[397.5728280544281, 397.6893560886383, 398.6568851470947, 398.8238730430603, 399.5912342071533, 399.707937002182, 399.8250620365143, 399.94155621528625, 400.0586349964142, 400.17536520957947, 400.275151014328, 400.3920512199402, 400.5087790489197, 400.62557101249695, 400.7424011230469, 400.85919213294983, 400.9759840965271, 401.0927212238312, 401.20952820777893, 401.32633209228516, 401.4432210922241, 401.6677031517029]	[397.56383452543076, 397.68050119209744, 398.66350119209744, 398.83020119209743, 399.58020119209743, 399.6968678587641, 399.8135345254308, 399.93020119209746, 400.04686785876413, 400.1635345254308, 400.2802011920975, 400.39686785876415, 400.5135345254308, 400.6302011920975, 400.7468678587642, 400.86353452543085, 400.9802011920975, 401.0968678587642, 401.2135345254309, 401.33020119209755, 401.4468678587642, 401.68020119209757]	2021_Feb_01_1439	59.88278444759494	1	1
18	67	FALSE	NV	v	['V', 'C', 'J', 'P', 'W', 'E', 'Y', 'Z', 'R', 'H', 'K', 'X', 'T', 'A', 'G', 'S']	[2245, 829, 1029, 1456, 2448, 904, 2670, 2911, 1587, 986, 1122, 4000, 1888, 697, 944, 1731]	12	Present	NA	NA	PRESENT	0.13193893432617188	403.66775488853455	405.67544293403625	406.7259848117829	407.0761208534241	409.7840700149536	4.108627080917358	[403.6790201663971, 403.7957670688629, 404.7802610397339, 404.9470691680908, 405.69772815704346, 405.81471014022827, 405.93135714530945, 406.0482749938965, 406.1650080680847, 406.2819330692291, 406.39852499961853, 406.5155620574951, 406.632098197937, 406.7490031719208, 406.86581921577454, 406.9827070236206, 407.09923219680786, 407.2159562110901, 407.3329861164093, 407.4498200416565, 407.5665981769562, 407.7840690612793]	[403.68020119209757, 403.79686785876424, 404.77986785876425, 404.94656785876424, 405.69656785876424, 405.8132345254309, 405.9299011920976, 406.04656785876426, 406.16323452543094, 406.2799011920976, 406.3965678587643, 406.51323452543096, 406.62990119209763, 406.7465678587643, 406.863234525431, 406.97990119209766, 407.09656785876433, 407.213234525431, 407.3299011920977, 407.44656785876435, 407.563234525431, 407.7965678587644]	2021_Feb_01_1439	59.88278444759494	1	1
18	68	FALSE	NV	v	['C', 'H', 'J', 'U', 'A', 'R', 'Z', 'X', 'W', 'M', 'B', 'G', 'Y', 'P', 'T', 'K']	[829, 986, 1029, 2059, 697, 1587, 2911, 4000, 2448, 1224, 760, 944, 2670, 1456, 1888, 1122]	8	Present	NA	NA	PRESENT	0.08937501907348633	409.7909598350525	411.7919688224793	412.37552094459534	412.7258968353271	415.9004371166229	4.108468294143677	[409.8022232055664, 409.9190011024475, 410.903617143631, 411.0704951286316, 411.8210861682892, 411.9380121231079, 412.0547912120819, 412.17139506340027, 412.2883241176605, 412.40512919425964, 412.52186918258667, 412.6384391784668, 412.7556300163269, 412.8721480369568, 412.9889922142029, 413.10589504241943, 413.22270607948303, 413.3393712043762, 413.45627903938293, 413.5730080604553, 413.6730010509491, 413.9004361629486]	[409.7965678587644, 409.91323452543105, 410.89623452543105, 411.06293452543105, 411.81293452543105, 411.9296011920977, 412.0462678587644, 412.16293452543107, 412.27960119209774, 412.3962678587644, 412.5129345254311, 412.62960119209777, 412.74626785876444, 412.8629345254311, 412.9796011920978, 413.09626785876446, 413.21293452543114, 413.3296011920978, 413.4462678587645, 413.56293452543116, 413.67960119209783, 413.9129345254312]	2021_Feb_01_1439	59.88278444759494	1	1
18	69	FALSE	NV	v	['W', 'H', 'V', 'C', 'G', 'E', 'Y', 'U', 'P', 'X', 'B', 'Z', 'N', 'S', 'K', 'T']	[2448, 986, 2245, 829, 944, 904, 2670, 2059, 1456, 4000, 760, 2911, 1335, 1731, 1122, 1888]	10	Present	NA	NA	PRESENT	0.23778510093688965	415.8974130153656	417.9082748889923	418.7251749038696	419.075660943985	422.01680421829224	4.108529329299927	[415.90867710113525, 416.0256299972534, 417.01045513153076, 417.17679619789124, 417.9275782108307, 418.0445921421051, 418.16135001182556, 418.2781820297241, 418.3947911262512, 418.5117840766907, 418.6283299922943, 418.7451741695404, 418.8620641231537, 418.97892904281616, 419.09556221961975, 419.21229910850525, 419.3292682170868, 419.4459421634674, 419.5632231235504, 419.6795971393585, 419.79640913009644, 420.01680421829224]	[415.9129345254312, 416.02960119209786, 417.01260119209786, 417.17930119209785, 417.92930119209785, 418.0459678587645, 418.1626345254312, 418.2793011920979, 418.39596785876455, 418.5126345254312, 418.6293011920979, 418.7459678587646, 418.86263452543125, 418.9793011920979, 419.0959678587646, 419.21263452543127, 419.32930119209794, 419.4459678587646, 419.5626345254313, 419.67930119209797, 419.79596785876464, 420.029301192098]	2021_Feb_01_1439	59.88278444759494	1	1
18	70	FALSE	NV	v	['Y', 'H', 'K', 'T', 'J', 'P', 'Z', 'X', 'R', 'S', 'C', 'N', 'V', 'U', 'A', 'M']	[2670, 986, 1122, 1888, 1029, 1456, 2911, 4000, 1587, 1731, 829, 1335, 2245, 2059, 697, 1224]	8	Present	NA	NA	PRESENT	0.09060001373291016	422.0208299160004	424.02448081970215	424.60851097106934	424.9582839012146	428.13317012786865	4.108689308166504	[422.0320951938629, 422.14898014068604, 423.1334240436554, 423.30009603500366, 424.05081009864807, 424.16761016845703, 424.2844281196594, 424.40115904808044, 424.5181381702423, 424.63505721092224, 424.7517681121826, 424.8684391975403, 424.98543906211853, 425.10195302963257, 425.21903705596924, 425.3358700275421, 425.4525480270386, 425.5693871974945, 425.68606901168823, 425.8028531074524, 425.91949105262756, 426.13317108154297]	[422.029301192098, 422.14596785876466, 423.12896785876467, 423.29566785876466, 424.04566785876466, 424.16233452543133, 424.279001192098, 424.3956678587647, 424.51233452543136, 424.62900119209803, 424.7456678587647, 424.8623345254314, 424.97900119209805, 425.0956678587647, 425.2123345254314, 425.3290011920981, 425.44566785876475, 425.5623345254314, 425.6790011920981, 425.7956678587648, 425.91233452543145, 426.1456678587648]	2021_Feb_01_1439	59.88278444759494	1	1
18	71	FALSE	NN	v	['V', 'K', 'C', 'J', 'U', 'N', 'T', 'H', 'A', 'G', 'W', 'S', 'Z', 'Y', 'B', 'E']	[2245, 1122, 829, 1029, 2059, 1335, 1888, 986, 697, 944, 2448, 1731, 2911, 2670, 760, 904]	8	Absent	NA	NA	ABSENT	0.32784605026245117	428.12751603126526	430.1409609317779	430.7251179218292	431.0748870372772	434.2495369911194	4.108576059341431	[428.1387801170349, 428.2552890777588, 429.2398111820221, 429.4065811634064, 430.17425322532654, 430.2741560935974, 430.390967130661, 430.5077600479126, 430.62461400032043, 430.7413351535797, 430.8581871986389, 430.97525215148926, 431.0917761325836, 431.2088191509247, 431.32544207572937, 431.44217920303345, 431.55902910232544, 431.67571115493774, 431.79253602027893, 431.9092872142792, 432.0261261463165, 432.24953603744507]	[428.1456678587648, 428.26233452543147, 429.2453345254315, 429.41203452543147, 430.16203452543147, 430.27870119209814, 430.3953678587648, 430.5120345254315, 430.62870119209816, 430.74536785876484, 430.8620345254315, 430.9787011920982, 431.09536785876486, 431.21203452543153, 431.3287011920982, 431.4453678587649, 431.56203452543156, 431.67870119209823, 431.7953678587649, 431.9120345254316, 432.02870119209825, 432.2620345254316]	2021_Feb_01_1439	59.88278444759494	1	1
18	72	FALSE	NN	v	['W', 'V', 'C', 'M', 'N', 'T', 'J', 'E', 'A', 'H', 'P', 'Z', 'G', 'U', 'Y', 'S']	[2448, 2245, 829, 1224, 1335, 1888, 1029, 904, 697, 986, 1456, 2911, 944, 2059, 2670, 1731]	12	Absent	NA	NA	ABSENT	0.2443981170654297	434.25073504447937	436.2575628757477	437.30763387680054	437.6578469276428	440.3659040927887	4.108341217041016	[434.261999130249, 434.3788070678711, 435.363224029541, 435.5299232006073, 436.280730009079, 436.3975901603699, 436.51439809799194, 436.63124418258667, 436.74793100357056, 436.8646001815796, 436.98162817955017, 437.09816002845764, 437.2150821685791, 437.33195519447327, 437.44872307777405, 437.56591510772705, 437.6822030544281, 437.79900217056274, 437.91582918167114, 438.0330641269684, 438.14958000183105, 438.3659040927887]	[434.2620345254316, 434.3787011920983, 435.3617011920983, 435.5284011920983, 436.2784011920983, 436.39506785876495, 436.5117345254316, 436.6284011920983, 436.74506785876497, 436.86173452543164, 436.9784011920983, 437.095067858765, 437.21173452543167, 437.32840119209834, 437.445067858765, 437.5617345254317, 437.67840119209836, 437.79506785876504, 437.9117345254317, 438.0284011920984, 438.14506785876506, 438.3784011920984]	2021_Feb_01_1439	59.88278444759494	1	1
18	73	FALSE	NN	v	['H', 'M', 'K', 'T', 'V', 'Z', 'J', 'S', 'W', 'C', 'N', 'P', 'A', 'Y', 'B', 'E']	[986, 1224, 1122, 1888, 2245, 2911, 1029, 1731, 2448, 829, 1335, 1456, 697, 2670, 760, 904]	13	Absent	NA	NA	ABSENT	0.12963199615478516	440.3739240169525	442.37375688552856	443.540727853775	443.8907468318939	446.4822700023651	4.108513116836548	[440.38518810272217, 440.50199007987976, 441.48629117012024, 441.6532621383667, 442.4041311740875, 442.52101016044617, 442.63739109039307, 442.7543511390686, 442.8711881637573, 442.9880700111389, 443.1048321723938, 443.221666097641, 443.338445186615, 443.4552991390228, 443.5720520019531, 443.6887171268463, 443.80562019348145, 443.9224181175232, 444.03919506073, 444.1559510231018, 444.25588512420654, 444.4822690486908]	[440.3784011920984, 440.4950678587651, 441.4780678587651, 441.6447678587651, 442.3947678587651, 442.51143452543175, 442.6281011920984, 442.7447678587651, 442.8614345254318, 442.97810119209845, 443.0947678587651, 443.2114345254318, 443.3281011920985, 443.44476785876515, 443.5614345254318, 443.6781011920985, 443.79476785876517, 443.91143452543184, 444.0281011920985, 444.1447678587652, 444.26143452543187, 444.4947678587652]	2021_Feb_01_1439	59.88278444759494	1	1
18	74	FALSE	NV	v	['E', 'G', 'S', 'C', 'A', 'P', 'R', 'U', 'X', 'M', 'W', 'J', 'Y', 'V', 'T', 'B']	[904, 944, 1731, 829, 697, 1456, 1587, 2059, 4000, 1224, 2448, 1029, 2670, 2245, 1888, 760]	9	Present	NA	NA	PRESENT	0.0380549430847168	446.48031282424927	448.4902889728546	449.19032096862793	449.5404448509216	452.5986371040344	4.10834813117981	[446.4915781021118, 446.6085731983185, 447.5930190086365, 447.75968408584595, 448.5108060836792, 448.627454996109, 448.74412202835083, 448.8610050678253, 448.97788405418396, 449.09455704689026, 449.2112979888916, 449.328006029129, 449.4450042247772, 449.5616490840912, 449.6785430908203, 449.7954981327057, 449.912260055542, 450.02903008461, 450.14587903022766, 450.2623760700226, 450.3793110847473, 450.5986361503601]	[446.4947678587652, 446.6114345254319, 447.5944345254319, 447.7611345254319, 448.5111345254319, 448.62780119209856, 448.74446785876523, 448.8611345254319, 448.9778011920986, 449.09446785876526, 449.21113452543193, 449.3278011920986, 449.4444678587653, 449.56113452543195, 449.6778011920986, 449.7944678587653, 449.911134525432, 450.02780119209865, 450.1444678587653, 450.261134525432, 450.3778011920987, 450.611134525432]	2021_Feb_01_1439	59.88278444759494	1	1
18	75	FALSE	AA	v	['S', 'N', 'B', 'H', 'Z', 'Y', 'P', 'surprise', 'T', 'W', 'X', 'J', 'A', 'G', 'K', 'C']	[1731, 1335, 760, 986, 2911, 2670, 1456, 'stimAuditory/all_stimAuditory/109.wav', 1888, 2448, 4000, 1029, 697, 944, 1122, 829]	11	Present	stimAuditory/all_stimAuditory/215.wav	stimVisual/all_stimVisual/115.jpg	PRESENT	0.11464500427246094	452.6037108898163	454.60665702819824	455.54014801979065	455.8901438713074	458.71500420570374	4.108347177505493	[452.6149752140045, 452.73195004463196, 453.71623516082764, 453.88314604759216, 454.63384199142456, 454.7506000995636, 454.86744117736816, 454.98417615890503, 455.1012690067291, 455.21781301498413, 455.33477807044983, 455.45141220092773, 455.5683341026306, 455.68503999710083, 455.80189204216003, 455.9185881614685, 456.035218000412, 456.15230917930603, 456.26905608177185, 456.3857340812683, 456.5024390220642, 456.71500420570374]	[452.611134525432, 452.7278011920987, 453.7108011920987, 453.8775011920987, 454.6275011920987, 454.74416785876537, 454.86083452543204, 454.9775011920987, 455.0941678587654, 455.21083452543206, 455.32750119209874, 455.4441678587654, 455.5608345254321, 455.67750119209876, 455.79416785876543, 455.9108345254321, 456.0275011920988, 456.14416785876546, 456.26083452543213, 456.3775011920988, 456.4941678587655, 456.7275011920988]	2021_Feb_01_1439	59.88278444759494	1	1
18	76	FALSE	NA	v	['V', 'K', 'T', 'H', 'G', 'W', 'S', 'Y', 'X', 'R', 'P', 'C', 'Z', 'M', 'E', 'J']	[2245, 1122, 1888, 986, 944, 2448, 1731, 2670, 4000, 1587, 1456, 829, 2911, 1224, 904, 1029]	9	Present	NA	NA	PRESENT	0.05582499504089355	458.71054887771606	460.72281289100647	461.42331099510193	461.7730588912964	464.83137011528015	4.108557224273682	[458.7218141555786, 458.8384380340576, 459.82297801971436, 459.98953914642334, 460.7570312023163, 460.8572690486908, 460.97387313842773, 461.0908091068268, 461.20754408836365, 461.32443404197693, 461.4411361217499, 461.55790400505066, 461.6746652126312, 461.79172706604004, 461.90837717056274, 462.0252010822296, 462.14196014404297, 462.2587912082672, 462.3755741119385, 462.4924521446228, 462.60925006866455, 462.83136916160583]	[458.7275011920988, 458.8441678587655, 459.8271678587655, 459.9938678587655, 460.7438678587655, 460.8605345254322, 460.97720119209885, 461.0938678587655, 461.2105345254322, 461.32720119209887, 461.44386785876554, 461.5605345254322, 461.6772011920989, 461.79386785876557, 461.91053452543224, 462.0272011920989, 462.1438678587656, 462.26053452543226, 462.37720119209894, 462.4938678587656, 462.6105345254323, 462.84386785876563]	2021_Feb_01_1439	59.88278444759494	1	1
18	77	FALSE	NA	v	['K', 'E', 'B', 'H', 'W', 'J', 'U', 'X', 'P', 'C', 'M', 'Y', 'R', 'G', 'V', 'Z']	[1122, 904, 760, 986, 2448, 1029, 2059, 4000, 1456, 829, 1224, 2670, 1587, 944, 2245, 2911]	8	Present	NA	NA	PRESENT	0.12449884414672852	464.8335659503937	466.83913588523865	467.4228539466858	467.77306389808655	470.94773721694946	4.108601331710815	[464.84483098983765, 464.9616370201111, 465.9459500312805, 466.1128280162811, 466.8636841773987, 466.9804232120514, 467.09731101989746, 467.2142770290375, 467.33094120025635, 467.44752311706543, 467.564905166626, 467.6813850402832, 467.7981050014496, 467.9149332046509, 468.03208804130554, 468.14857006073, 468.2653172016144, 468.38190507888794, 468.4989290237427, 468.6156961917877, 468.7322931289673, 468.94773602485657]	[464.84386785876563, 464.9605345254323, 465.9435345254323, 466.1102345254323, 466.8602345254323, 466.976901192099, 467.09356785876565, 467.2102345254323, 467.326901192099, 467.4435678587657, 467.56023452543235, 467.676901192099, 467.7935678587657, 467.9102345254324, 468.02690119209905, 468.1435678587657, 468.2602345254324, 468.37690119209907, 468.49356785876574, 468.6102345254324, 468.7269011920991, 468.96023452543244]	2021_Feb_01_1439	59.88278444759494	1	1
18	78	FALSE	NA	v	['J', 'W', 'G', 'H', 'U', 'B', 'V', 'M', 'P', 'X', 'E', 'Y', 'A', 'N', 'T', 'C']	[1029, 2448, 944, 986, 2059, 760, 2245, 1224, 1456, 4000, 904, 2670, 697, 1335, 1888, 829]	10	Present	NA	NA	PRESENT	0.05791401863098144	470.9570178985596	472.9556519985199	473.7725729942322	474.1227748394013	477.0641031265259	4.1084511280059814	[470.9682822227478, 471.084801197052, 472.0524871349335, 472.2193560600281, 472.9869530200958, 473.10381722450256, 473.22071599960327, 473.3373210430145, 473.4543070793152, 473.57087206840515, 473.6878170967102, 473.80450916290283, 473.92147421836853, 474.0380871295929, 474.1547701358795, 474.27176117897034, 474.3716251850128, 474.48847222328186, 474.60527300834656, 474.72210717201233, 474.8389310836792, 475.0641031265259]	[470.96023452543244, 471.0769011920991, 472.0599011920991, 472.2266011920991, 472.9766011920991, 473.0932678587658, 473.20993452543246, 473.32660119209913, 473.4432678587658, 473.5599345254325, 473.67660119209916, 473.79326785876583, 473.9099345254325, 474.0266011920992, 474.14326785876585, 474.2599345254325, 474.3766011920992, 474.4932678587659, 474.60993452543255, 474.7266011920992, 474.8432678587659, 475.07660119209925]	2021_Feb_01_1439	59.88278444759494	1	1
18	79	FALSE	NV	v	['B', 'P', 'K', 'C', 'V', 'N', 'H', 'A', 'J', 'M', 'T', 'X', 'Y', 'U', 'G', 'R']	[760, 1456, 1122, 829, 2245, 1335, 986, 697, 1029, 1224, 1888, 4000, 2670, 2059, 944, 1587]	12	Present	NA	NA	PRESENT	0.07850909233093262	477.06330490112305	479.0718660354614	480.122503042221	480.4723989963531	483.1804699897766	4.1086039543151855	[477.0745701789856, 477.19153809547424, 478.176274061203, 478.34271216392517, 479.0933470726013, 479.21031498908997, 479.3272361755371, 479.44397807121277, 479.56075620651245, 479.67761421203613, 479.79417300224304, 479.91102600097656, 480.0279130935669, 480.14478516578674, 480.26157116889954, 480.37821412086487, 480.4950830936432, 480.6119601726532, 480.7288281917572, 480.84535121917725, 480.96229100227356, 481.1804699897766]	[477.07660119209925, 477.1932678587659, 478.1762678587659, 478.3429678587659, 479.0929678587659, 479.2096345254326, 479.32630119209927, 479.44296785876594, 479.5596345254326, 479.6763011920993, 479.79296785876596, 479.90963452543264, 480.0263011920993, 480.142967858766, 480.25963452543266, 480.37630119209933, 480.492967858766, 480.6096345254327, 480.72630119209936, 480.84296785876603, 480.9596345254327, 481.19296785876605]	2021_Feb_01_1439	59.88278444759494	1	1
