participant	trial_num	practice	task	condition	RSVP	RAP	probePos	probe_presence	surprise_sound	surprise_img	probe_response	probe_resp_time	first_fixation_time	trial_start_time	surprise_start_time	probe_start_time	trial_end_time	trial_duration	actualEventTimes	plannedEventTimes	date	framerate	marker_vol	RAP_vol
16	1	FALSE	NA	a	['G', 'E', 'H', 'M', 'K', 'N', 'B', 'X', 'V', 'C', 'S', 'A', 'Z', 'P', 'R', 'T']	[944, 904, 986, 1224, 1122, 1335, 760, 4000, 2245, 829, 1731, 697, 2911, 1456, 1587, 1888]	8	Present	NA	NA	ABSENT	0.936913013458252	2.1457672119140625e-6	1.986812114715576	2.5701554615958986	2.920158322598848	6.103869915008545	4.117057800292969	[0.0228269100189209, 0.12229394912719727, 1.0871930122375488, 1.273310899734497, 2.0241119861602783, 2.1409859657287598, 2.2576348781585693, 2.3744828701019287, 2.4914510250091553, 2.6081249713897705, 2.7248499393463135, 2.8419229984283447, 2.958570957183838, 3.075183868408203, 3.1752099990844727, 3.2919859886169434, 3.4088668823242188, 3.5256240367889404, 3.6424620151519775, 3.75917387008667, 3.8927478790283203, 4.103869915008545]	[9.5367431640625e-07, 0.11666762033431641, 1.0996676203343163, 1.2663676203343164, 2.016367620334316, 2.133034286994316, 2.249700953654316, 2.3663676203143162, 2.4830342869743163, 2.5997009536343163, 2.7163676202943163, 2.8330342869543164, 2.9497009536143164, 3.0663676202743164, 3.1830342869343164, 3.2997009535943165, 3.4163676202543165, 3.5330342869143165, 3.6497009535743166, 3.7663676202343166, 3.8830342868943166, 4.11636762022765]	2021_Jan_29_1404	59.930100905030386	1	0.375
16	2	FALSE	NV	a	['M', 'K', 'U', 'S', 'Z', 'W', 'P', 'G', 'C', 'A', 'X', 'B', 'V', 'H', 'R', 'E']	[1224, 1122, 2059, 1731, 2911, 2448, 1456, 944, 829, 697, 4000, 760, 2245, 986, 1587, 904]	11	Present	NA	NA	ABSENT	1.4374208450317385	6.088951110839844	8.100019216537476	9.033360417630586	9.38336232495922	12.22023606300354	4.1202168464660645	[6.111775875091553, 6.228575944900513, 7.203561067581177, 7.379718065261841, 8.130478858947754, 8.247133016586304, 8.363874912261963, 8.480686902999878, 8.597463846206665, 8.714407920837402, 8.831209897994995, 8.9479398727417, 9.064714908599854, 9.181550025939941, 9.298511981964111, 9.415134906768799, 9.532779932022095, 9.64907693862915, 9.765501022338867, 9.882288932800293, 9.998975038528442, 10.220237016677856]	[6.11636762022765, 6.23303428688765, 7.216034286887649, 7.382734286887649, 8.132734286887649, 8.24940095354765, 8.36606762020765, 8.48273428686765, 8.59940095352765, 8.716067620187651, 8.832734286847652, 8.949400953507652, 9.066067620167653, 9.182734286827653, 9.299400953487654, 9.416067620147654, 9.532734286807655, 9.649400953467655, 9.766067620127656, 9.882734286787656, 9.999400953447656, 10.232734286780989]	2021_Jan_29_1404	59.930100905030386	1	0.375
16	3	FALSE	NA	a	['A', 'Z', 'G', 'U', 'W', 'Y', 'E', 'T', 'H', 'X', 'S', 'B', 'V', 'P', 'M', 'K']	[697, 2911, 944, 2059, 2448, 2670, 904, 1888, 986, 4000, 1731, 760, 2245, 1456, 1224, 1122]	10	Present	NA	NA	PRESENT	0.6978678703308105	12.211918115615845	14.216785192489624	15.033459726922734	15.38346068057705	18.336601972579956	4.119816780090332	[12.234742879867554, 12.351438045501709, 13.319926023483276, 13.502655029296875, 14.253253936767578, 14.370375871658325, 14.48706603050232, 14.603946924209595, 14.720427989959717, 14.837425947189331, 14.95411992073059, 15.070962905883789, 15.187798023223877, 15.304689884185791, 15.421356916427612, 15.538207054138184, 15.654767990112305, 15.771451950073242, 15.888290882110596, 16.00508999824524, 16.122046947479248, 16.336601972579956]	[12.232734286780989, 12.34940095344099, 13.33240095344099, 13.49910095344099, 14.24910095344099, 14.365767620100991, 14.482434286760991, 14.599100953420992, 14.715767620080992, 14.832434286740993, 14.949100953400993, 15.065767620060994, 15.182434286720994, 15.299100953380995, 15.415767620040995, 15.532434286700996, 15.649100953360996, 15.765767620020997, 15.882434286680997, 15.999100953340998, 16.115767620000998, 16.349100953334332]	2021_Jan_29_1404	59.930100905030386	1	0.375
16	4	FALSE	NN	a	['S', 'H', 'T', 'W', 'M', 'Z', 'E', 'J', 'Y', 'B', 'V', 'P', 'N', 'R', 'K', 'G']	[1731, 986, 1888, 2448, 1224, 2911, 904, 1029, 2670, 760, 2245, 1456, 1335, 1587, 1122, 944]	14	Absent	NA	NA	ABSENT	0.07142519950866699	18.334803104400635	20.332690000534058	21.616031440025747	21.96603334735438	24.452970027923584	4.120280027389526	[18.357627868652344, 18.47450590133667, 19.436339855194092, 19.608819007873535, 20.376535892486572, 20.476304054260254, 20.5933039188385, 20.71000099182129, 20.826905012130737, 20.94356393814087, 21.060396909713745, 21.177228927612305, 21.29406189918518, 21.41075301170349, 21.527376890182495, 21.644388914108276, 21.761026859283447, 21.877930879592896, 21.994596004486084, 22.11142587661743, 22.228124856948853, 22.452970027923584]	[18.349100953334332, 18.46576761999433, 19.44876761999433, 19.61546761999433, 20.36546761999433, 20.48213428665433, 20.598800953314328, 20.715467619974326, 20.832134286634325, 20.948800953294324, 21.065467619954322, 21.18213428661432, 21.29880095327432, 21.41546761993432, 21.532134286594317, 21.648800953254316, 21.765467619914315, 21.882134286574313, 21.998800953234312, 22.11546761989431, 22.23213428655431, 22.465467619887644]	2021_Jan_29_1404	59.930100905030386	1	0.375
16	5	FALSE	NV	a	['B', 'E', 'Z', 'H', 'T', 'V', 'M', 'P', 'G', 'U', 'W', 'R', 'S', 'X', 'N', 'C']	[760, 904, 2911, 986, 1888, 2245, 1224, 1456, 944, 2059, 2448, 1587, 1731, 4000, 1335, 829]	14	Present	NA	NA	PRESENT	0.14792490005493164	24.44109320640564	26.449366092681885	27.73270848584789	28.082710393176523	30.569336891174316	4.119970798492432	[24.463918924331665, 24.580594062805176, 25.552660942077637, 25.73188090324402, 26.48255491256714, 26.599429845809937, 26.716112852096558, 26.832871913909912, 26.949769020080566, 27.066647052764893, 27.183407068252563, 27.30023193359375, 27.41690707206726, 27.53351593017578, 27.650436878204346, 27.767345905303955, 27.883944034576416, 28.000911951065063, 28.11766505241394, 28.234236001968384, 28.35130786895752, 28.5693359375]	[24.465467619887644, 24.582134286547642, 25.565134286547643, 25.73183428654764, 26.48183428654764, 26.59850095320764, 26.71516761986764, 26.831834286527638, 26.948500953187636, 27.065167619847635, 27.181834286507634, 27.298500953167633, 27.41516761982763, 27.53183428648763, 27.64850095314763, 27.765167619807627, 27.881834286467626, 27.998500953127625, 28.115167619787623, 28.231834286447622, 28.34850095310762, 28.581834286440955]	2021_Jan_29_1404	59.930100905030386	1	0.375
16	6	FALSE	NA	a	['W', 'M', 'G', 'T', 'K', 'V', 'R', 'J', 'C', 'Z', 'X', 'Y', 'B', 'A', 'N', 'E']	[2448, 1224, 944, 1888, 1122, 2245, 1587, 1029, 829, 2911, 4000, 2670, 760, 697, 1335, 904]	11	Present	NA	NA	ABSENT	0.23310303688049316	30.56424307823181	32.56565618515015	33.49899643256894	33.84899833989758	36.68570303916931	4.120046854019165	[30.587069988250732, 30.703525066375732, 31.669028997421265, 31.854599952697754, 32.605538845062256, 32.722471952438354, 32.8390588760376, 32.955971002578735, 33.07275199890137, 33.18932294845581, 33.306354999542236, 33.42323184013367, 33.53992199897766, 33.65653586387634, 33.77365589141846, 33.890028953552246, 34.00754499435425, 34.1069860458374, 34.22376489639282, 34.340506076812744, 34.45734691619873, 34.685704946517944]	[30.581834286440955, 30.698500953100954, 31.681500953100954, 31.848200953100953, 32.59820095310096, 32.71486761976096, 32.83153428642096, 32.94820095308096, 33.064867619740966, 33.18153428640097, 33.29820095306097, 33.41486761972097, 33.531534286380975, 33.64820095304098, 33.76486761970098, 33.88153428636098, 33.998200953020984, 34.114867619680986, 34.23153428634099, 34.34820095300099, 34.46486761966099, 34.69820095299433]	2021_Jan_29_1404	59.930100905030386	1	0.375
16	7	FALSE	NV	a	['S', 'U', 'Z', 'V', 'J', 'W', 'M', 'T', 'C', 'Y', 'A', 'K', 'E', 'X', 'H', 'B']	[1731, 2059, 2911, 2245, 1029, 2448, 1224, 1888, 829, 2670, 697, 1122, 904, 4000, 986, 760]	14	Present	NA	NA	PRESENT	0.16567587852478027	36.67010807991028	38.68182110786438	39.96516254735607	40.315164454684705	42.80206990242005	4.120248794555664	[36.69293284416199, 36.809743881225586, 37.78539204597473, 37.960954904556274, 38.71165084838867, 38.828431844711304, 38.94535684585571, 39.06209087371826, 39.17914795875549, 39.29572796821594, 39.412418842315674, 39.52933096885681, 39.646525859832764, 39.763001918792725, 39.8796010017395, 39.996304988861084, 40.11341190338135, 40.229856967926025, 40.34678792953491, 40.463480949401855, 40.58030700683594, 40.80206894874573]	[36.69820095299433, 36.81486761965433, 37.797867619654326, 37.964567619654325, 38.714567619654325, 38.83123428631433, 38.94790095297433, 39.06456761963433, 39.181234286294334, 39.297900952954336, 39.41456761961434, 39.53123428627434, 39.64790095293434, 39.764567619594345, 39.88123428625435, 39.99790095291435, 40.11456761957435, 40.231234286234354, 40.347900952894356, 40.46456761955436, 40.58123428621436, 40.814567619547695]	2021_Jan_29_1404	59.930100905030386	1	0.375
16	8	FALSE	NV	a	['C', 'W', 'B', 'U', 'Y', 'G', 'Z', 'T', 'P', 'N', 'E', 'A', 'V', 'X', 'R', 'J']	[829, 2448, 760, 2059, 2670, 944, 2911, 1888, 1456, 1335, 904, 697, 2245, 4000, 1587, 1029]	14	Present	NA	NA	PRESENT	0.1623539924621582	42.79322910308838	44.798007011413574	46.08134749723095	46.43134940455958	48.918437004089355	4.120429992675781	[42.81605386734009, 42.93264889717102, 43.90175986289978, 44.08394384384155, 44.83491587638855, 44.951541900634766, 45.068426847457886, 45.18518590927124, 45.30215001106262, 45.41852402687073, 45.535521030426025, 45.65231800079346, 45.768985986709595, 45.88567590713501, 46.00262904167175, 46.11954593658447, 46.236163854599, 46.35291385650635, 46.46973705291748, 46.58653903007507, 46.70338988304138, 46.91843605041504]	[42.814567619547695, 42.9312342862077, 43.914234286207694, 44.08093428620769, 44.83093428620769, 44.947600952867695, 45.0642676195277, 45.1809342861877, 45.2976009528477, 45.414267619507704, 45.53093428616771, 45.64760095282771, 45.76426761948771, 45.88093428614771, 45.997600952807716, 46.11426761946772, 46.23093428612772, 46.34760095278772, 46.464267619447725, 46.58093428610773, 46.69760095276773, 46.93093428610106]	2021_Jan_29_1404	59.930100905030386	1	0.375
16	9	FALSE	NN	a	['Z', 'C', 'A', 'S', 'R', 'M', 'J', 'Y', 'U', 'W', 'H', 'G', 'E', 'T', 'P', 'V']	[2911, 829, 697, 1731, 1587, 1224, 1029, 2670, 2059, 2448, 986, 944, 904, 1888, 1456, 2245]	9	Absent	NA	NA	ABSENT	0.4876208305358886	48.91599011421203	50.91443419456482	51.61444206233793	51.964443015992245	55.03480291366577	4.120368719100952	[48.93881607055664, 49.05577492713928, 50.01812791824341, 50.19039702415466, 50.95766091346741, 51.05764198303223, 51.17471885681152, 51.29133987426758, 51.408282995224, 51.52498507499695, 51.64157295227051, 51.758399963378906, 51.87518095970154, 51.99208092689514, 52.10897397994995, 52.22569704055786, 52.34255599975586, 52.459282875061035, 52.57599592208862, 52.69291305541992, 52.80964684486389, 53.03480291366577]	[48.93093428610106, 49.047600952761066, 50.03060095276106, 50.19730095276106, 50.94730095276106, 51.063967619421064, 51.180634286081066, 51.29730095274107, 51.41396761940107, 51.53063428606107, 51.647300952721075, 51.76396761938108, 51.88063428604108, 51.99730095270108, 52.113967619361084, 52.230634286021086, 52.34730095268109, 52.46396761934109, 52.58063428600109, 52.697300952661095, 52.8139676193211, 53.04730095265443]	2021_Jan_29_1404	59.930100905030386	1	0.375
16	10	FALSE	NV	a	['Z', 'M', 'E', 'J', 'T', 'B', 'V', 'R', 'X', 'C', 'K', 'S', 'N', 'A', 'H', 'Y']	[2911, 1224, 904, 1029, 1888, 760, 2245, 1587, 4000, 829, 1122, 1731, 1335, 697, 986, 2670]	9	Present	NA	NA	PRESENT	0.09212708473205566	55.0225510597229	57.0308940410614	57.730901193578774	58.080903100907406	61.15116906166077	4.120275020599365	[55.04538702964783, 55.1619770526886, 56.1344940662384, 56.313262939453125, 57.06399202346802, 57.18089485168457, 57.297688007354736, 57.41431188583374, 57.53100800514221, 57.64799690246582, 57.76484394073486, 57.88155794143677, 57.998223066329956, 58.11518907546997, 58.231844902038574, 58.348816871643066, 58.46537685394287, 58.5822958946228, 58.69899606704712, 58.815738916397095, 58.932677030563354, 59.15116906166077]	[55.04730095265443, 55.163967619314434, 56.14696761931443, 56.31366761931443, 57.06366761931443, 57.18033428597443, 57.297000952634434, 57.413667619294436, 57.53033428595444, 57.64700095261444, 57.76366761927444, 57.880334285934445, 57.99700095259445, 58.11366761925445, 58.23033428591445, 58.347000952574454, 58.46366761923446, 58.58033428589446, 58.69700095255446, 58.81366761921446, 58.930334285874466, 59.1636676192078]	2021_Jan_29_1404	59.930100905030386	1	0.375
16	11	FALSE	NN	a	['A', 'P', 'V', 'H', 'E', 'K', 'N', 'U', 'Y', 'Z', 'J', 'S', 'W', 'R', 'T', 'M']	[697, 1456, 2245, 986, 904, 1122, 1335, 2059, 2670, 2911, 1029, 1731, 2448, 1587, 1888, 1224]	8	Absent	NA	NA	ABSENT	0.44969987869262695	61.14578819274902	63.14747905731201	63.73081954316938	64.08082145049802	67.2675359249115	4.120056867599487	[61.16861295700073, 61.28513789176941, 62.25086188316345, 62.43638491630554, 63.18698000907898, 63.30362105369568, 63.420613050460815, 63.537179946899414, 63.654178857803345, 63.770740032196045, 63.887649059295654, 64.00459504127502, 64.12137794494629, 64.23807501792908, 64.3548789024353, 64.47145295143127, 64.58855104446411, 64.70503091812134, 64.82203197479248, 64.92178201675415, 65.03858089447021, 65.2675359249115]	[61.1636676192078, 61.2803342858678, 62.2633342858678, 62.4300342858678, 63.1800342858678, 63.2967009525278, 63.4133676191878, 63.530034285847805, 63.64670095250781, 63.76336761916781, 63.88003428582781, 63.996700952487814, 64.11336761914781, 64.2300342858078, 64.3467009524678, 64.4633676191278, 64.58003428578779, 64.69670095244778, 64.81336761910778, 64.93003428576777, 65.04670095242777, 65.2800342857611]	2021_Jan_29_1404	59.930100905030386	1	0.375
16	12	FALSE	NA	a	['R', 'S', 'Z', 'U', 'W', 'P', 'E', 'H', 'T', 'Y', 'B', 'K', 'X', 'V', 'M', 'C']	[1587, 1731, 2911, 2059, 2448, 1456, 904, 986, 1888, 2670, 760, 1122, 4000, 2245, 1224, 829]	13	Present	NA	NA	PRESENT	0.00603795051574707	67.2514181137085	69.26369500160217	70.43036977443386	70.78037168176249	73.38390398025513	4.120208978652954	[67.2742428779602, 67.39118695259094, 68.36722707748413, 68.54258584976196, 69.2930760383606, 69.40997505187988, 69.52658104896545, 69.64366602897644, 69.7602949142456, 69.87728190422058, 69.99380397796631, 70.11082887649536, 70.22734189033508, 70.34428191184998, 70.46096587181091, 70.57787489891052, 70.69490599632263, 70.81150007247925, 70.92814493179321, 71.04506087303162, 71.16187000274658, 71.38390302658081]	[67.2800342857611, 67.3967009524211, 68.3797009524211, 68.54640095242111, 69.29640095242111, 69.4130676190811, 69.5297342857411, 69.6464009524011, 69.76306761906109, 69.87973428572109, 69.99640095238108, 70.11306761904108, 70.22973428570107, 70.34640095236107, 70.46306761902106, 70.57973428568106, 70.69640095234105, 70.81306761900105, 70.92973428566104, 71.04640095232104, 71.16306761898103, 71.39640095231437]	2021_Jan_29_1404	59.930100905030386	1	0.375
16	13	FALSE	NN	a	['C', 'H', 'T', 'J', 'P', 'Z', 'U', 'E', 'S', 'V', 'N', 'R', 'Y', 'G', 'B', 'K']	[829, 986, 1888, 1029, 1456, 2911, 2059, 904, 1731, 2245, 1335, 1587, 2670, 944, 760, 1122]	11	Absent	NA	NA	ABSENT	0.3705430030822754	73.37452602386475	75.3799250125885	76.3132664521002	76.66326835942883	79.50026893615723	4.120343923568726	[73.39735102653503, 73.51414489746094, 74.48359203338623, 74.66521787643433, 75.41608905792236, 75.53301095962524, 75.6495668888092, 75.76655197143555, 75.88331890106201, 76.00000190734863, 76.11694002151489, 76.23354887962341, 76.35057187080383, 76.46722602844238, 76.58411693572998, 76.70088195800781, 76.81744885444641, 76.934494972229, 77.05114793777466, 77.16797184944153, 77.28479886054993, 77.50026893615723]	[73.39640095231437, 73.51306761897436, 74.49606761897437, 74.66276761897437, 75.41276761897437, 75.52943428563437, 75.64610095229436, 75.76276761895436, 75.87943428561435, 75.99610095227435, 76.11276761893434, 76.22943428559434, 76.34610095225433, 76.46276761891433, 76.57943428557432, 76.69610095223432, 76.81276761889431, 76.92943428555431, 77.0461009522143, 77.1627676188743, 77.2794342855343, 77.51276761886763]	2021_Jan_29_1404	59.930100905030386	1	0.375
16	14	FALSE	NN	a	['Y', 'S', 'E', 'W', 'T', 'P', 'C', 'A', 'J', 'K', 'N', 'B', 'M', 'V', 'U', 'Z']	[2670, 1731, 904, 2448, 1888, 1456, 829, 697, 1029, 1122, 1335, 760, 1224, 2245, 2059, 2911]	9	Absent	NA	NA	ABSENT	0.2718820571899414	79.49762010574341	81.49638104438782	82.1963891505795	82.54639105790814	85.61663603782654	4.120254993438721	[79.52044486999512, 79.63727402687073, 80.59996104240417, 80.77176189422607, 81.53927493095398, 81.6390700340271, 81.75584888458252, 81.87267398834229, 81.98934698104858, 82.10628890991211, 82.22295999526978, 82.33995604515076, 82.45662093162537, 82.5736038684845, 82.69014286994934, 82.8072030544281, 82.92392706871033, 83.04067087173462, 83.15755486488342, 83.27400994300842, 83.39119601249695, 83.61663603782654]	[79.51276761886763, 79.62943428552762, 80.61243428552763, 80.77913428552763, 81.52913428552763, 81.64580095218763, 81.76246761884762, 81.87913428550762, 81.99580095216761, 82.11246761882761, 82.2291342854876, 82.3458009521476, 82.4624676188076, 82.57913428546759, 82.69580095212758, 82.81246761878758, 82.92913428544757, 83.04580095210757, 83.16246761876756, 83.27913428542756, 83.39580095208755, 83.62913428542089]	2021_Jan_29_1404	59.930100905030386	1	0.375
16	15	FALSE	NV	a	['G', 'Z', 'K', 'B', 'C', 'T', 'J', 'R', 'N', 'X', 'Y', 'S', 'E', 'A', 'U', 'H']	[944, 2911, 1122, 760, 829, 1888, 1029, 1587, 1335, 4000, 2670, 1731, 904, 697, 2059, 986]	10	Present	NA	NA	PRESENT	1.308283805847168	85.6037130355835	87.61257815361023	88.42925268804333	88.77925483379055	91.73300290107728	4.120424747467041	[85.62654995918274, 85.74341607093811, 86.71632695198059, 86.89453601837158, 87.64524698257446, 87.76220297813416, 87.87885093688965, 87.99559903144836, 88.11267304420471, 88.22925901412964, 88.34600591659546, 88.4629819393158, 88.57959604263306, 88.69651007652283, 88.81326389312744, 88.93002104759216, 89.04694604873657, 89.16370987892151, 89.28038787841797, 89.39700198173523, 89.51394295692444, 89.73300194740295]	[85.62913428542089, 85.74580095208088, 86.72880095208089, 86.8955009520809, 87.6455009520809, 87.76216761874089, 87.87883428540088, 87.99550095206088, 88.11216761872087, 88.22883428538087, 88.34550095204087, 88.46216761870086, 88.57883428536086, 88.69550095202085, 88.81216761868085, 88.92883428534084, 89.04550095200084, 89.16216761866083, 89.27883428532083, 89.39550095198082, 89.51216761864082, 89.74550095197415]	2021_Jan_29_1404	59.930100905030386	1	0.375
16	16	FALSE	NA	a	['J', 'K', 'T', 'E', 'P', 'N', 'S', 'V', 'X', 'M', 'Y', 'G', 'B', 'H', 'U', 'R']	[1029, 1122, 1888, 904, 1456, 1335, 1731, 2245, 4000, 1224, 2670, 944, 760, 986, 2059, 1587]	9	Present	NA	NA	ABSENT	0.37693190574646	91.72676610946657	93.729123115539565	94.42913098331266	94.77913312905989	97.84936904907228	4.120245933532715	[91.74959206581116, 91.8663718700409, 92.83269095420837, 93.01747298240662, 93.76822686195374, 93.88506197929382, 94.00188302993774, 94.1186158657074, 94.2356128692627, 94.35213088989258, 94.46887493133545, 94.58576393127441, 94.70263600349426, 94.81934404373169, 94.9363009929657, 95.05285692214966, 95.16983294487, 95.28654789924622, 95.40336894989014, 95.52035093307495, 95.63685488700867, 95.84936904907227]	[91.74550095197415, 91.86216761863415, 92.84516761863415, 93.01186761863416, 93.76186761863416, 93.87853428529415, 93.99520095195415, 94.11186761861414, 94.22853428527414, 94.34520095193413, 94.46186761859413, 94.57853428525412, 94.69520095191412, 94.81186761857411, 94.92853428523411, 95.0452009518941, 95.1618676185541, 95.27853428521409, 95.39520095187409, 95.51186761853408, 95.62853428519408, 95.86186761852741]	2021_Jan_29_1404	59.930100905030386	1	0.375
16	17	FALSE	NA	a	['A', 'R', 'V', 'M', 'G', 'Z', 'S', 'X', 'H', 'J', 'U', 'T', 'K', 'P', 'N', 'E']	[697, 1587, 2245, 1224, 944, 2911, 1731, 4000, 986, 1029, 2059, 1888, 1122, 1456, 1335, 904]	8	Present	NA	NA	ABSENT	1.9579730033874512	97.83298301696776	99.84541821479796	100.4287603695854	100.77876251533262	103.965735912323	4.120317697525024	[97.85580801963806, 97.97266602516174, 98.94905996322632, 99.12365889549255, 99.87453603744507, 99.991455078125, 100.10796904563904, 100.2249538898468, 100.34170198440552, 100.45842695236206, 100.57534790039062, 100.69225406646729, 100.80897688865662, 100.9257299900055, 101.0425488948822, 101.15934586524963, 101.27593398094177, 101.39283299446106, 101.50956988334656, 101.62649202346802, 101.74331188201904, 101.96573686599731]	[97.86186761852741, 97.97853428518741, 98.96153428518741, 99.12823428518742, 99.87823428518742, 99.99490095184741, 100.11156761850741, 100.2282342851674, 100.3449009518274, 100.4615676184874, 100.57823428514739, 100.69490095180738, 100.81156761846738, 100.92823428512737, 101.04490095178737, 101.16156761844736, 101.27823428510736, 101.39490095176735, 101.51156761842735, 101.62823428508734, 101.74490095174734, 101.97823428508067]	2021_Jan_29_1404	59.930100905030386	1	0.375
16	18	FALSE	NA	a	['Z', 'H', 'E', 'M', 'U', 'S', 'N', 'X', 'R', 'W', 'P', 'V', 'C', 'J', 'Y', 'B']	[2911, 986, 904, 1224, 2059, 1731, 1335, 4000, 1587, 2448, 1456, 2245, 829, 1029, 2670, 760]	8	Present	NA	NA	PRESENT	0.11496996879577635	103.95582699775696	105.96197199821472	106.54531439142072	106.89531653716794	110.08210396766664	4.120131969451904	[103.97865295410156, 104.09557604789734, 105.06542706489563, 105.24665784835815, 105.99754285812378, 106.11417007446289, 106.23111605644226, 106.3479368686676, 106.46472692489624, 106.58134698867798, 106.6982970237732, 106.81511998176575, 106.93187403678894, 107.04878306388855, 107.1655158996582, 107.28212785720825, 107.3989930152893, 107.51568293571472, 107.63233399391174, 107.74936103820801, 107.86617088317871, 108.08210396766663]	[103.97823428508067, 104.09490095174067, 105.07790095174067, 105.24460095174068, 105.99460095174068, 106.11126761840067, 106.22793428506067, 106.34460095172066, 106.46126761838066, 106.57793428504066, 106.69460095170065, 106.81126761836065, 106.92793428502064, 107.04460095168064, 107.16126761834063, 107.27793428500063, 107.39460095166062, 107.51126761832062, 107.62793428498061, 107.7446009516406, 107.8612676183006, 108.09460095163394]	2021_Jan_29_1404	59.930100905030386	1	0.375
16	19	FALSE	NA	a	['N', 'E', 'T', 'J', 'G', 'K', 'U', 'W', 'P', 'Y', 'X', 'B', 'A', 'Z', 'S', 'V']	[1335, 904, 1888, 1029, 944, 1122, 2059, 2448, 1456, 2670, 4000, 760, 697, 2911, 1731, 2245]	11	Present	NA	NA	ABSENT	0.280102014541626	110.07894015312196	112.07819819450378	113.0115393955969	113.36154154134412	116.19846987724304	4.120271682739258	[110.10176491737366, 110.21835398674011, 111.18179392814636, 111.36998105049133, 112.12053084373474, 112.22041392326355, 112.33718490600586, 112.45402097702026, 112.5708680152893, 112.68759894371033, 112.80440306663513, 112.92130589485168, 113.03794193267822, 113.15490484237671, 113.27154493331909, 113.38845086097717, 113.5051498413086, 113.62189793586731, 113.73864603042603, 113.8555109500885, 113.97230792045593, 114.19846892356873]	[110.09460095163394, 110.21126761829393, 111.19426761829394, 111.36096761829394, 112.11096761829394, 112.22763428495394, 112.34430095161393, 112.46096761827393, 112.57763428493392, 112.69430095159392, 112.81096761825391, 112.9276342849139, 113.0443009515739, 113.1609676182339, 113.27763428489389, 113.39430095155389, 113.51096761821388, 113.62763428487388, 113.74430095153387, 113.86096761819387, 113.97763428485386, 114.2109676181872]	2021_Jan_29_1404	59.930100905030386	1	0.375
16	20	FALSE	NV	a	['A', 'M', 'U', 'J', 'C', 'Y', 'N', 'Z', 'H', 'B', 'X', 'T', 'E', 'S', 'V', 'K']	[697, 1224, 2059, 1029, 829, 2670, 1335, 2911, 986, 760, 4000, 1888, 904, 1731, 2245, 1122]	11	Present	NA	NA	PRESENT	0.04468607902526855	116.18507599830627	118.19452214241028	119.1278633435034	119.4778654892506	122.31483602523804	4.120313882827759	[116.20790195465088, 116.32485604286194, 117.29816102981567, 117.4758460521698, 118.22666907310486, 118.34358286857605, 118.4603488445282, 118.57720184326172, 118.69393396377563, 118.81076788902283, 118.92750191688538, 119.0440628528595, 119.16118597984314, 119.27778100967407, 119.39458703994751, 119.51136684417725, 119.62817406654358, 119.74488186836243, 119.86183500289917, 119.97838091850281, 120.09547805786133, 120.31483697891235]	[116.2109676181872, 116.32763428484719, 117.3106342848472, 117.4773342848472, 118.2273342848472, 118.3440009515072, 118.4606676181672, 118.57733428482719, 118.69400095148718, 118.81066761814718, 118.92733428480717, 119.04400095146717, 119.16066761812716, 119.27733428478716, 119.39400095144715, 119.51066761810715, 119.62733428476714, 119.74400095142714, 119.86066761808713, 119.97733428474713, 120.09400095140712, 120.32733428474046]	2021_Jan_29_1404	59.930100905030386	1	0.375
16	21	FALSE	NV	a	['Z', 'S', 'W', 'J', 'U', 'N', 'V', 'E', 'R', 'A', 'G', 'K', 'P', 'X', 'Y', 'T']	[2911, 1731, 2448, 1029, 2059, 1335, 2245, 904, 1587, 697, 944, 1122, 1456, 4000, 2670, 1888]	14	Present	NA	NA	PRESENT	0.13748598098754883	122.308580160141	124.3109061717987	125.59424737287182	125.94424951861905	128.43120193481445	4.120295763015747	[122.3314049243927, 122.44779086112976, 123.41452598571777, 123.59895491600037, 124.34963798522949, 124.4663450717926, 124.5832748413086, 124.70008301734924, 124.81694197654724, 124.93357396125793, 125.05048203468323, 125.16710996627808, 125.28383803367615, 125.40087103843689, 125.51771998405457, 125.63433790206909, 125.75089001655579, 125.86799097061157, 125.98470997810364, 126.10147094726562, 126.21816992759705, 126.43120193481445]	[122.32733428474046, 122.44400095140045, 123.42700095140046, 123.59370095140046, 124.34370095140046, 124.46036761806046, 124.57703428472045, 124.69370095138045, 124.81036761804044, 124.92703428470044, 125.04370095136044, 125.16036761802043, 125.27703428468043, 125.39370095134042, 125.51036761800042, 125.62703428466041, 125.7437009513204, 125.8603676179804, 125.9770342846404, 126.09370095130039, 126.21036761796039, 126.44370095129372]	2021_Jan_29_1404	59.930100905030386	1	0.375
16	22	FALSE	NV	a	['E', 'N', 'B', 'A', 'Y', 'P', 'M', 'S', 'G', 'T', 'U', 'W', 'R', 'X', 'K', 'H']	[904, 1335, 760, 697, 2670, 1456, 1224, 1731, 944, 1888, 2059, 2448, 1587, 4000, 1122, 986]	14	Present	NA	NA	ABSENT	0.5344400405883789	128.41432118415833	130.42713904380798	131.71047952962536	132.06048143695398	134.54756903648376	4.120429992675781	[128.43714594841003, 128.55385899543762, 129.53089499473572, 129.70504593849182, 130.45574498176575, 130.5727880001068, 130.6896870136261, 130.80632901191711, 130.9230089187622, 131.03989505767822, 131.15674686431885, 131.27355790138245, 131.39030504226685, 131.50696396827698, 131.624116897583, 131.74053192138672, 131.85755491256714, 131.97405195236206, 132.0910768508911, 132.20760202407837, 132.32447600364685, 132.5475709438324]	[128.44370095129372, 128.56036761795372, 129.54336761795372, 129.7100676179537, 130.4600676179537, 130.5767342846137, 130.6934009512737, 130.8100676179337, 130.9267342845937, 131.0434009512537, 131.16006761791368, 131.27673428457368, 131.39340095123367, 131.51006761789367, 131.62673428455366, 131.74340095121366, 131.86006761787365, 131.97673428453365, 132.09340095119364, 132.21006761785364, 132.32673428451363, 132.56006761784695]	2021_Jan_29_1404	59.930100905030386	1	0.375
16	23	FALSE	NA	a	['P', 'C', 'T', 'H', 'Z', 'V', 'B', 'J', 'M', 'X', 'Y', 'W', 'U', 'R', 'E', 'A']	[1456, 829, 1888, 986, 2911, 2245, 760, 1029, 1224, 4000, 2670, 2448, 2059, 1587, 904, 697]	10	Present	NA	NA	PRESENT	0.2512319087982178	134.53717398643494	136.5435471534729	137.3602207342317	137.71022383365323	140.6639368534088	4.120389699935913	[134.55999898910522, 134.67681288719177, 135.64725995063782, 135.82806491851807, 136.57890796661377, 136.69561386108398, 136.81251096725464, 136.92938995361328, 137.04616785049438, 137.16278886795044, 137.27975487709045, 137.39625692367554, 137.51321005821228, 137.6301019191742, 137.74679899215698, 137.86360597610474, 137.98043489456177, 138.0971019268036, 138.21390891075134, 138.33066487312317, 138.44736695289612, 138.6639358997345]	[134.56006761784695, 134.67673428450695, 135.65973428450695, 135.82643428450695, 136.57643428450695, 136.69310095116694, 136.80976761782694, 136.92643428448693, 137.04310095114693, 137.15976761780692, 137.27643428446692, 137.3931009511269, 137.5097676177869, 137.6264342844469, 137.7431009511069, 137.8597676177669, 137.9764342844269, 138.09310095108688, 138.20976761774688, 138.32643428440687, 138.44310095106687, 138.6764342844002]	2021_Jan_29_1404	59.930100905030386	1	0.375
16	24	FALSE	NN	a	['Y', 'T', 'J', 'N', 'A', 'S', 'R', 'G', 'W', 'Z', 'P', 'V', 'K', 'E', 'U', 'H']	[2670, 1888, 1029, 1335, 697, 1731, 1587, 944, 2448, 2911, 1456, 2245, 1122, 904, 2059, 986]	8	Absent	NA	NA	ABSENT	0.18419194221496585	140.66012811660767	142.66003799438477	143.24337943391646	143.59338134124508	146.78030395507812	4.120265960693359	[140.68295407295227, 140.79991507530212, 141.76362586021423, 141.95137286186218, 142.7018370628357, 142.80179595947266, 142.9186098575592, 143.0353479385376, 143.1521599292755, 143.26902389526367, 143.38579297065735, 143.50256299972534, 143.61934304237366, 143.73613905906677, 143.85285091400146, 143.96966195106506, 144.08649492263794, 144.20324206352234, 144.32021188735962, 144.43684697151184, 144.55391693115234, 144.7803030014038]	[140.6764342844002, 140.79310095106018, 141.7761009510602, 141.94280095106018, 142.69280095106018, 142.80946761772017, 142.92613428438017, 143.04280095104016, 143.15946761770016, 143.27613428436015, 143.39280095102015, 143.50946761768014, 143.62613428434014, 143.74280095100013, 143.85946761766013, 143.97613428432012, 144.09280095098012, 144.20946761764012, 144.3261342843001, 144.4428009509601, 144.5594676176201, 144.79280095095342]	2021_Jan_29_1404	59.930100905030386	1	0.375
16	25	FALSE	AA	a	['Y', 'H', 'K', 'J', 'A', 'surprise', 'G', 'P', 'X', 'B', 'U', 'M', 'E', 'N', 'V', 'T']	[2670, 986, 1122, 1029, 697, 'stimAuditory/all_stimAuditory/110.wav', 944, 1456, 4000, 760, 2059, 1224, 904, 1335, 2245, 1888]	9	Present	stimAuditory/all_stimAuditory/110.wav	NA	ABSENT	0.5408990383148193	146.76648211479187	148.77654218673706	149.47654910083585	149.8265510081645	152.89666891098022	4.120126724243164	[146.78930687904358, 146.90626001358032, 147.87999486923218, 148.05722188949585, 148.8081338405609, 148.92480897903442, 149.04176998138428, 149.1583960056305, 149.27522087097168, 149.3920328617096, 149.50893998146057, 149.62545800209045, 149.74246907234192, 149.8593728542328, 149.97602486610413, 150.0927379131317, 150.20964694023132, 150.32633686065674, 150.44297289848328, 150.55978798866272, 150.67678594589233, 150.89666891098022]	[146.79280095095342, 146.90946761761342, 147.89246761761342, 148.0591676176134, 148.8091676176134, 148.9258342842734, 149.0425009509334, 149.1591676175934, 149.2758342842534, 149.3925009509134, 149.50916761757338, 149.62583428423338, 149.74250095089337, 149.85916761755337, 149.97583428421336, 150.09250095087336, 150.20916761753335, 150.32583428419335, 150.44250095085334, 150.55916761751334, 150.67583428417333, 150.90916761750665]	2021_Jan_29_1404	59.930100905030386	1	0.375
16	26	FALSE	NV	a	['J', 'W', 'H', 'K', 'B', 'R', 'Z', 'N', 'G', 'P', 'S', 'X', 'M', 'V', 'C', 'Y']	[1029, 2448, 986, 1122, 760, 1587, 2911, 1335, 944, 1456, 1731, 4000, 1224, 2245, 829, 2670]	12	Present	NA	NA	ABSENT	0.5536160469055176	152.88985419273376	154.89305901527405	155.94306712144575	156.29306902877437	159.01303601264954	4.119976997375488	[152.91267895698547, 153.02919387817383, 153.9963629245758, 154.1804699897766, 154.9310028553009, 155.04778599739075, 155.16454195976257, 155.2814118862152, 155.398197889328, 155.51492285728455, 155.63174605369568, 155.7484700679779, 155.8654420375824, 155.98213005065918, 156.09875392913818, 156.21582889556885, 156.33229088783264, 156.44914197921753, 156.56624484062195, 156.68296003341675, 156.799654006958, 157.01303791999817]	[152.90916761750665, 153.02583428416665, 154.00883428416665, 154.17553428416664, 154.92553428416664, 155.04220095082664, 155.15886761748664, 155.27553428414663, 155.39220095080663, 155.50886761746662, 155.62553428412662, 155.7422009507866, 155.8588676174466, 155.9755342841066, 156.0922009507666, 156.2088676174266, 156.3255342840866, 156.44220095074658, 156.55886761740658, 156.67553428406657, 156.79220095072657, 157.0255342840599]	2021_Jan_29_1404	59.930100905030386	1	0.375
16	27	FALSE	NV	a	['C', 'W', 'B', 'T', 'M', 'J', 'Z', 'A', 'U', 'V', 'K', 'H', 'X', 'P', 'S', 'E']	[829, 2448, 760, 1888, 1224, 1029, 2911, 697, 2059, 2245, 1122, 986, 4000, 1456, 1731, 904]	13	Present	NA	NA	ABSENT	0.1746962070465088	158.99560809135437	161.00919914245603	162.17587367686917	162.52587582261637	165.12940287590027	4.120203733444214	[159.01843190193176, 159.13518691062927, 160.1127278804779, 160.2864420413971, 161.0371379852295, 161.15416288375854, 161.27078890800476, 161.3875539302826, 161.5045509338379, 161.62139797210693, 161.73808693885803, 161.85493993759155, 161.97170686721802, 162.08830904960632, 162.20527291297913, 162.32192587852478, 162.43875885009766, 162.55545091629028, 162.67247986793518, 162.78902196884155, 162.90587186813354, 163.12940406799316]	[159.0255342840599, 159.14220095071988, 160.1252009507199, 160.29190095071988, 161.04190095071988, 161.15856761737987, 161.27523428403987, 161.39190095069986, 161.50856761735986, 161.62523428401985, 161.74190095067985, 161.85856761733984, 161.97523428399984, 162.09190095065983, 162.20856761731983, 162.32523428397982, 162.44190095063982, 162.55856761729981, 162.6752342839598, 162.7919009506198, 162.9085676172798, 163.14190095061312]	2021_Jan_29_1404	59.930100905030386	1	0.375
16	28	FALSE	NN	a	['E', 'R', 'Z', 'H', 'N', 'J', 'Y', 'V', 'B', 'T', 'M', 'A', 'U', 'C', 'G', 'P']	[904, 1587, 2911, 986, 1335, 1029, 2670, 2245, 760, 1888, 1224, 697, 2059, 829, 944, 1456]	11	Absent	NA	NA	ABSENT	0.4194040298461914	165.11866116523743	167.1254940032959	168.05883544280758	168.40883735013622	171.24576997756958	4.120275974273682	[165.14148592948914, 165.25834798812866, 166.2290940284729, 166.40945506095886, 167.16032099723816, 167.2771348953247, 167.39389896392822, 167.51071906089783, 167.62746286392212, 167.74417901039124, 167.86105394363403, 167.97770285606384, 168.0946328639984, 168.21123695373535, 168.32795405387878, 168.4449200630188, 168.56176686286926, 168.6784269809723, 168.79529786109924, 168.91211199760437, 169.02874994277954, 169.24576902389526]	[165.14190095061312, 165.25856761727312, 166.24156761727312, 166.4082676172731, 167.1582676172731, 167.2749342839331, 167.3916009505931, 167.5082676172531, 167.6249342839131, 167.7416009505731, 167.85826761723308, 167.97493428389308, 168.09160095055307, 168.20826761721307, 168.32493428387306, 168.44160095053306, 168.55826761719305, 168.67493428385305, 168.79160095051304, 168.90826761717304, 169.02493428383303, 169.25826761716635]	2021_Jan_29_1404	59.930100905030386	1	0.375
16	29	FALSE	VV	a	['U', 'A', 'Z', 'V', 'B', 'J', 'surprise', 'W', 'E', 'X', 'G', 'R', 'K', 'P', 'H', 'S']	[2059, 697, 2911, 2245, 760, 1029, 'stimAuditory/all_stimAuditory/214.wav', 2448, 904, 4000, 944, 1587, 1122, 1456, 986, 1731]	10	Present	NA	NA	ABSENT	0.4325270652770996	171.24157810211182	173.24172806739807	174.05840284024976	174.4084047475784	177.362135887146	4.120407819747925	[171.26440286636353, 171.38118505477905, 172.34546089172363, 172.5325469970703, 173.2835500240326, 173.40008401870728, 173.5168240070343, 173.6167950630188, 173.7335228919983, 173.8502938747406, 173.96711087226868, 174.083890914917, 174.20065784454346, 174.31748294830322, 174.43425297737122, 174.5511350631714, 174.66783499717712, 174.7845640182495, 174.90160298347473, 175.01817989349365, 175.13508892059326, 175.362135887146]	[171.25826761716635, 171.37493428382635, 172.35793428382635, 172.52463428382634, 173.27463428382634, 173.39130095048634, 173.50796761714633, 173.62463428380633, 173.74130095046633, 173.85796761712632, 173.97463428378632, 174.0913009504463, 174.2079676171063, 174.3246342837663, 174.4413009504263, 174.5579676170863, 174.6746342837463, 174.79130095040628, 174.90796761706628, 175.02463428372627, 175.14130095038627, 175.3746342837196]	2021_Jan_29_1404	59.930100905030386	1	0.375
16	30	FALSE	NA	a	['S', 'M', 'H', 'U', 'C', 'N', 'R', 'K', 'B', 'W', 'P', 'Y', 'G', 'X', 'E', 'T']	[1731, 1224, 986, 2059, 829, 1335, 1587, 1122, 760, 2448, 1456, 2670, 944, 4000, 904, 1888]	14	Present	NA	NA	ABSENT	0.23710203170776367	177.3480350971222	179.35818719863892	180.64152839971203	180.99153054545923	183.4785029888153	4.120315790176392	[177.3708598613739, 177.48760104179382, 178.46182584762573, 178.63870286941528, 179.38940501213074, 179.50625705718994, 179.62315487861633, 179.73990607261658, 179.85674500465393, 179.97338604927063, 180.09027886390686, 180.20703792572021, 180.32375597953796, 180.44051694869995, 180.55748105049133, 180.67414689064026, 180.79085087776184, 180.90771293640137, 181.02436804771423, 181.14122104644775, 181.2579219341278, 181.4785029888153]	[177.3746342837196, 177.49130095037958, 178.4743009503796, 178.64100095037958, 179.39100095037958, 179.50766761703957, 179.62433428369957, 179.74100095035956, 179.85766761701956, 179.97433428367955, 180.09100095033955, 180.20766761699954, 180.32433428365954, 180.44100095031953, 180.55766761697953, 180.67433428363952, 180.79100095029952, 180.90766761695951, 181.0243342836195, 181.1410009502795, 181.2576676169395, 181.49100095027282]	2021_Jan_29_1404	59.930100905030386	1	0.375
16	31	FALSE	NN	a	['S', 'W', 'R', 'A', 'G', 'Y', 'J', 'P', 'V', 'H', 'B', 'C', 'K', 'M', 'U', 'T']	[1731, 2448, 1587, 697, 944, 2670, 1029, 1456, 2245, 986, 760, 829, 1122, 1224, 2059, 1888]	11	Absent	NA	NA	ABSENT	0.4255990982055664	183.4715931415558	185.4748420715332	186.408182318952	186.7581844646992	189.59486889839172	4.1200268268585205	[183.4944188594818, 183.61041903495789, 184.57819390296936, 184.7617108821869, 185.51234102249146, 185.62938404083252, 185.74600386619568, 185.86271500587463, 185.97943496704102, 186.09650206565857, 186.21302795410156, 186.32995891571045, 186.4466199874878, 186.5633029937744, 186.68027687072754, 186.79716086387634, 186.91374588012695, 187.03066992759705, 187.14760398864746, 187.2643518447876, 187.3811628818512, 187.59487104415894]	[183.49100095027282, 183.60766761693282, 184.59066761693282, 184.7573676169328, 185.5073676169328, 185.6240342835928, 185.7407009502528, 185.8573676169128, 185.9740342835728, 186.0907009502328, 186.20736761689278, 186.32403428355278, 186.44070095021277, 186.55736761687277, 186.67403428353276, 186.79070095019276, 186.90736761685275, 187.02403428351275, 187.14070095017274, 187.25736761683274, 187.37403428349273, 187.60736761682605]	2021_Jan_29_1404	59.930100905030386	1	0.375
16	32	FALSE	NA	a	['K', 'A', 'P', 'W', 'Y', 'S', 'J', 'V', 'Z', 'X', 'M', 'G', 'E', 'B', 'T', 'N']	[1122, 697, 1456, 2448, 2670, 1731, 1029, 2245, 2911, 4000, 1224, 944, 904, 760, 1888, 1335]	10	Present	NA	NA	ABSENT	0.35895514488220215	189.5939462184906	191.59105014801025	192.40772468244336	192.75772682819056	195.71123695373535	4.120186805725098	[189.61677193641663, 189.71663403511047, 190.69455885887146, 190.86785793304443, 191.6185929775238, 191.73535203933716, 191.85224890708923, 191.9688708782196, 192.0859169960022, 192.20243787765503, 192.31937193870544, 192.43607807159424, 192.55278396606445, 192.6702060699463, 192.78663992881775, 192.90336799621582, 193.0201699733734, 193.13680601119995, 193.25385284423828, 193.37049984931946, 193.48738193511963, 193.71123695373535]	[189.60736761682605, 189.72403428348605, 190.70703428348605, 190.87373428348604, 191.62373428348604, 191.74040095014604, 191.85706761680603, 191.97373428346603, 192.09040095012602, 192.20706761678602, 192.32373428344602, 192.440400950106, 192.557067616766, 192.673734283426, 192.790400950086, 192.907067616746, 193.023734283406, 193.14040095006598, 193.25706761672598, 193.37373428338597, 193.49040095004597, 193.7237342833793]	2021_Jan_29_1404	59.930100905030386	1	0.375
16	33	FALSE	VA	a	['M', 'B', 'Z', 'U', 'A', 'C', 'J', 'surprise', 'S', 'T', 'X', 'R', 'N', 'Y', 'V', 'G']	[1224, 760, 2911, 2059, 697, 829, 1029, 'stimAuditory/all_stimAuditory/122.wav', 1731, 1888, 4000, 1587, 1335, 2670, 2245, 944]	11	Present	NA	NA	ABSENT	0.9076328277587892	195.700168132782	197.7073621749878	198.6407033760809	198.99070552182812	201.82760286331177	4.120240688323975	[195.7229928970337, 195.83958792686462, 196.81092405319214, 196.99096989631653, 197.7415509223938, 197.85831499099731, 197.97513794898987, 198.09209299087524, 198.20867204666138, 198.32547998428345, 198.44232988357544, 198.55928707122803, 198.67584800720215, 198.79269003868103, 198.9095540046692, 199.02633690834045, 199.14300394058228, 199.25987100601196, 199.37667798995972, 199.493469953537, 199.6103160381317, 199.82760190963745]	[195.7237342833793, 195.84040095003928, 196.8234009500393, 196.99010095003928, 197.74010095003928, 197.85676761669927, 197.97343428335927, 198.09010095001926, 198.20676761667926, 198.32343428333925, 198.44010094999925, 198.55676761665924, 198.67343428331924, 198.79010094997923, 198.90676761663923, 199.02343428329922, 199.14010094995922, 199.25676761661921, 199.3734342832792, 199.4901009499392, 199.6067676165992, 199.84010094993252]	2021_Jan_29_1404	59.930100905030386	1	0.375
16	34	FALSE	NV	a	['A', 'N', 'P', 'M', 'V', 'H', 'G', 'C', 'S', 'E', 'Z', 'Y', 'X', 'R', 'W', 'T']	[697, 1335, 1456, 1224, 2245, 986, 944, 829, 1731, 904, 2911, 2670, 4000, 1587, 2448, 1888]	13	Present	NA	NA	ABSENT	0.4971079826354981	201.82297015190125	203.8236620426178	204.9903368154495	205.3403387227781	207.94396901130676	4.120306968688965	[201.84579586982727, 201.96257901191711, 202.92729091644287, 203.11398601531982, 203.86462998390198, 203.98127603530884, 204.09826803207397, 204.2150158882141, 204.33192801475525, 204.4485728740692, 204.54847598075867, 204.66527700424194, 204.78209805488586, 204.89881205558777, 205.01561403274536, 205.13249588012695, 205.24923491477966, 205.36607789993286, 205.4828748703003, 205.5996069908142, 205.71655797958374, 205.94396996498108]	[201.84010094993252, 201.95676761659251, 202.93976761659252, 203.1064676165925, 203.8564676165925, 203.9731342832525, 204.0898009499125, 204.2064676165725, 204.3231342832325, 204.4398009498925, 204.55646761655248, 204.67313428321248, 204.78980094987247, 204.90646761653247, 205.02313428319246, 205.13980094985246, 205.25646761651245, 205.37313428317245, 205.48980094983244, 205.60646761649244, 205.72313428315243, 205.95646761648575]	2021_Jan_29_1404	59.930100905030386	1	0.375
16	35	FALSE	NA	a	['E', 'K', 'H', 'V', 'Y', 'P', 'B', 'M', 'U', 'R', 'Z', 'S', 'X', 'A', 'C', 'G']	[904, 1122, 986, 2245, 2670, 1456, 760, 1224, 2059, 1587, 2911, 1731, 4000, 697, 829, 944]	13	Present	NA	NA	ABSENT	0.6054019927978516	207.9293041229248	209.93990802764893	211.10658280048065	211.45658470780924	214.0603370666504	4.120429039001465	[207.9521288871765, 208.06876301765442, 209.04366087913513, 209.22008085250854, 209.9709279537201, 210.08768606185913, 210.20437097549438, 210.32131385803223, 210.43817901611328, 210.554682970047, 210.6717870235443, 210.78838086128235, 210.90528106689453, 211.0218858718872, 211.1387140750885, 211.25535106658936, 211.37238097190857, 211.48913192749023, 211.6057629585266, 211.72269201278687, 211.8393678665161, 212.0603370666504]	[207.95646761648575, 208.07313428314575, 209.05613428314575, 209.22283428314574, 209.97283428314574, 210.08950094980574, 210.20616761646573, 210.32283428312573, 210.43950094978572, 210.55616761644572, 210.67283428310571, 210.7895009497657, 210.9061676164257, 211.0228342830857, 211.1395009497457, 211.2561676164057, 211.37283428306569, 211.48950094972568, 211.60616761638568, 211.72283428304567, 211.83950094970567, 212.072834283039]	2021_Jan_29_1404	59.930100905030386	1	0.375
16	36	FALSE	NV	a	['A', 'U', 'S', 'R', 'B', 'V', 'M', 'J', 'X', 'E', 'N', 'T', 'W', 'Z', 'P', 'K']	[697, 2059, 1731, 1587, 760, 2245, 1224, 1029, 4000, 904, 1335, 1888, 2448, 2911, 1456, 1122]	9	Present	NA	NA	PRESENT	0.12204408645629884	214.0521080493927	216.05645203590393	216.7564601420956	217.10646109574995	220.1767029762268	4.120250940322876	[214.074933052063, 214.1919388771057, 215.16002702713013, 215.34286403656006, 216.0936529636383, 216.21063899993896, 216.32749390602112, 216.44429802894592, 216.5608470439911, 216.67779898643494, 216.79441690444946, 216.91121292114258, 217.0279998779297, 217.14497804641724, 217.2616560459137, 217.37862300872803, 217.49533796310425, 217.61190795898438, 217.72878503799438, 217.84570288658142, 217.96237087249756, 218.1767020225525]	[214.072834283039, 214.18950094969898, 215.17250094969899, 215.33920094969898, 216.08920094969898, 216.20586761635897, 216.32253428301897, 216.43920094967896, 216.55586761633896, 216.67253428299895, 216.78920094965895, 216.90586761631894, 217.02253428297894, 217.13920094963893, 217.25586761629893, 217.37253428295892, 217.48920094961892, 217.6058676162789, 217.7225342829389, 217.8392009495989, 217.9558676162589, 218.18920094959222]	2021_Jan_29_1404	59.930100905030386	1	0.375
16	37	FALSE	NN	a	['C', 'Z', 'Y', 'A', 'S', 'B', 'G', 'U', 'H', 'N', 'J', 'K', 'W', 'R', 'V', 'E']	[829, 2911, 2670, 697, 1731, 760, 944, 2059, 986, 1335, 1029, 1122, 2448, 1587, 2245, 904]	14	Absent	NA	NA	ABSENT	0.26337599754333496	220.17515015602112	222.1730341911316	223.4563753922047	223.8063775379519	226.2930688858032	4.120034694671631	[220.19797492027283, 220.29800391197205, 221.27639484405518, 221.44919395446777, 222.2166130542755, 222.31671595573425, 222.4334728717804, 222.55037307739258, 222.6675808429718, 222.78387689590454, 222.90078997612, 223.01738595962524, 223.13440489768982, 223.25104784965515, 223.3678240776062, 223.48459100723267, 223.6014358997345, 223.71824407577515, 223.83506393432617, 223.95195984840393, 224.06849789619446, 224.29307007789612]	[220.18920094959222, 220.30586761625221, 221.28886761625222, 221.4555676162522, 222.2055676162522, 222.3222342829122, 222.4389009495722, 222.5555676162322, 222.6722342828922, 222.7889009495522, 222.90556761621218, 223.02223428287218, 223.13890094953217, 223.25556761619217, 223.37223428285216, 223.48890094951216, 223.60556761617215, 223.72223428283215, 223.83890094949214, 223.95556761615214, 224.07223428281213, 224.30556761614545]	2021_Jan_29_1404	59.930100905030386	1	0.375
16	38	FALSE	AV	a	['E', 'C', 'K', 'Z', 'R', 'J', 'A', 'H', 'surprise', 'V', 'N', 'X', 'S', 'P', 'G', 'Y']	[904, 829, 1122, 2911, 1587, 1029, 697, 986, 'stimAuditory/all_stimAuditory/205.wav', 2245, 1335, 4000, 1731, 1456, 944, 2670]	12	Present	stimAuditory/all_stimAuditory/214.wav	NA	ABSENT	0.619873046875	226.28131699562073	228.2891330718994	229.33913998597825	229.68914213172545	232.40943694114685	4.1203038692474365	[226.30414199829102, 226.42118000984192, 227.39275884628296, 227.57231998443604, 228.32303285598755, 228.4399118423462, 228.55670499801636, 228.6734700202942, 228.79007291793823, 228.90699100494385, 229.0237419605255, 229.1406488418579, 229.25714206695557, 229.3741488456726, 229.4907419681549, 229.60773396492004, 229.72431898117065, 229.84133005142212, 229.95791888237, 230.07497191429138, 230.19162702560425, 230.40943694114685]	[226.30556761614545, 226.42223428280545, 227.40523428280545, 227.57193428280544, 228.32193428280544, 228.43860094946544, 228.55526761612543, 228.67193428278543, 228.78860094944542, 228.90526761610542, 229.02193428276541, 229.1386009494254, 229.2552676160854, 229.3719342827454, 229.4886009494054, 229.6052676160654, 229.72193428272539, 229.83860094938538, 229.95526761604538, 230.07193428270537, 230.18860094936537, 230.4219342826987]	2021_Jan_29_1404	59.930100905030386	1	0.375
16	39	FALSE	NN	a	['M', 'J', 'P', 'V', 'A', 'Z', 'T', 'B', 'G', 'H', 'W', 'S', 'R', 'E', 'U', 'N']	[1224, 1029, 1456, 2245, 697, 2911, 1888, 760, 944, 986, 2448, 1731, 1587, 904, 2059, 1335]	14	Absent	NA	NA	ABSENT	0.1532759666442871	232.40449810028076	234.40543508529663	235.68877652478832	236.03877843211697	238.52580404281616	4.120368957519531	[232.42732286453247, 232.54402089118958, 233.5091290473938, 233.695387840271, 234.44608187675476, 234.56260585784912, 234.6795780658722, 234.796324968338, 234.91326594352722, 235.02995491027832, 235.14663696289062, 235.26335787773132, 235.3804268836975, 235.4972288608551, 235.59699201583862, 235.7137908935547, 235.8306109905243, 235.94738388061523, 236.06409788131714, 236.180979013443, 236.2977418899536, 236.52580404281616]	[232.4219342826987, 232.53860094935868, 233.52160094935869, 233.68830094935868, 234.43830094935868, 234.55496761601867, 234.67163428267867, 234.78830094933866, 234.90496761599866, 235.02163428265865, 235.13830094931865, 235.25496761597864, 235.37163428263864, 235.48830094929863, 235.60496761595863, 235.72163428261862, 235.83830094927862, 235.9549676159386, 236.0716342825986, 236.1883009492586, 236.3049676159186, 236.53830094925192]	2021_Jan_29_1404	59.930100905030386	1	0.375
16	40	FALSE	NN	a	['C', 'G', 'N', 'K', 'S', 'A', 'Z', 'B', 'J', 'R', 'W', 'H', 'V', 'P', 'E', 'M']	[829, 944, 1335, 1122, 1731, 697, 2911, 760, 1029, 1587, 2448, 986, 2245, 1456, 904, 1224]	11	Absent	NA	NA	ABSENT	0.10179686546325684	238.51075506210327	240.52191519737244	241.4552563984655	241.80525854421276	244.64216899871823	4.120253801345825	[238.53358101844788, 238.6503210067749, 239.62549495697021, 239.80140686035156, 240.5522539615631, 240.6690468788147, 240.78600907325745, 240.90255689620972, 241.01941084861755, 241.13625192642212, 241.25294089317322, 241.36983394622803, 241.4865300655365, 241.603276014328, 241.72023105621338, 241.83681297302246, 241.95369386672974, 242.07049298286438, 242.18744707107544, 242.30415391921997, 242.42080307006836, 242.64216995239258]	[238.53830094925192, 238.65496761591191, 239.63796761591192, 239.8046676159119, 240.5546676159119, 240.6713342825719, 240.7880009492319, 240.9046676158919, 241.0213342825519, 241.1380009492119, 241.25466761587188, 241.37133428253188, 241.48800094919187, 241.60466761585187, 241.72133428251186, 241.83800094917186, 241.95466761583185, 242.07133428249185, 242.18800094915184, 242.30466761581184, 242.42133428247183, 242.65466761580515]	2021_Jan_29_1404	59.930100905030386	1	0.375
16	41	FALSE	NA	a	['P', 'R', 'J', 'Y', 'M', 'K', 'N', 'C', 'H', 'S', 'U', 'G', 'X', 'T', 'A', 'E']	[1456, 1587, 1029, 2670, 1224, 1122, 1335, 829, 986, 1731, 2059, 944, 4000, 1888, 697, 904]	13	Present	NA	NA	PRESENT	0.06658482551574707	244.63389921188352	246.63819313049316	247.80486671123197	248.15486885697916	250.758535861969	4.12034273147583	[244.65672397613525, 244.77330994606018, 245.74185991287231, 245.9243359565735, 246.6752290725708, 246.79205703735352, 246.9086639881134, 247.02569103240967, 247.14221596717834, 247.25906705856323, 247.37596797943115, 247.49272894859314, 247.60944199562073, 247.72636103630066, 247.84321689605713, 247.9601068496704, 248.0766248703003, 248.19343090057373, 248.31040596961975, 248.42680287361145, 248.54371094703674, 248.758535861969]	[244.65466761580515, 244.77133428246515, 245.75433428246515, 245.92103428246514, 246.67103428246514, 246.78770094912514, 246.90436761578513, 247.02103428244513, 247.13770094910512, 247.25436761576512, 247.37103428242511, 247.4877009490851, 247.6043676157451, 247.7210342824051, 247.8377009490651, 247.9543676157251, 248.07103428238509, 248.18770094904508, 248.30436761570508, 248.42103428236507, 248.53770094902507, 248.77103428235839]	2021_Jan_29_1404	59.930100905030386	1	0.375
16	42	FALSE	NN	a	['M', 'S', 'N', 'Z', 'P', 'R', 'H', 'K', 'B', 'G', 'A', 'C', 'J', 'T', 'Y', 'E']	[1224, 1731, 1335, 2911, 1456, 1587, 986, 1122, 760, 944, 697, 829, 1029, 1888, 2670, 904]	12	Absent	NA	NA	ABSENT	0.6075348854064941	250.756432056427	252.75464606285095	253.80465416902263	254.15465607635127	256.874902009964	4.120255947113037	[250.7792570590973, 250.89633989334106, 251.8582248687744, 252.03057193756104, 252.7981939315796, 252.89811205863953, 253.01494693756104, 253.13167905807495, 253.24867486953735, 253.36526894569397, 253.48230600357056, 253.59894704818726, 253.71568894386292, 253.83249592781067, 253.94943690299988, 254.06614685058594, 254.18295001983643, 254.29961490631104, 254.41637897491455, 254.53322005271912, 254.6503188610077, 254.874902009964]	[250.77103428235839, 250.88770094901838, 251.87070094901839, 252.03740094901838, 252.78740094901838, 252.90406761567837, 253.02073428233837, 253.13740094899836, 253.25406761565836, 253.37073428231835, 253.48740094897835, 253.60406761563834, 253.72073428229834, 253.83740094895833, 253.95406761561833, 254.07073428227832, 254.18740094893832, 254.3040676155983, 254.4207342822583, 254.5374009489183, 254.6540676155783, 254.88740094891162]	2021_Jan_29_1404	59.930100905030386	1	0.375
16	43	FALSE	NA	a	['Z', 'G', 'V', 'K', 'Y', 'P', 'M', 'U', 'R', 'J', 'T', 'X', 'E', 'C', 'A', 'B']	[2911, 944, 2245, 1122, 2670, 1456, 1224, 2059, 1587, 1029, 1888, 4000, 904, 829, 697, 760]	12	Present	NA	NA	PRESENT	0.17220306396484375	256.86291313171387	258.8708920478821	259.92090015405375	260.2709020613824	262.9912688732147	4.120376825332642	[256.8857388496399, 257.00235199928284, 257.9745919704437, 258.153461933136, 258.90436005592346, 259.02116990089417, 259.13782501220703, 259.2548270225525, 259.3714280128479, 259.4884388446808, 259.60499691963196, 259.721727848053, 259.8387360572815, 259.9555778503418, 260.07244992256165, 260.18907594680786, 260.30580592155457, 260.42243695259094, 260.5393738746643, 260.6563210487366, 260.7728888988495, 260.99127101898193]	[256.8874009489116, 257.0040676155716, 257.9870676155716, 258.1537676155716, 258.9037676155716, 259.02043428223163, 259.13710094889166, 259.2537676155517, 259.3704342822117, 259.4871009488717, 259.60376761553175, 259.7204342821918, 259.8371009488518, 259.9537676155118, 260.07043428217185, 260.18710094883187, 260.3037676154919, 260.4204342821519, 260.53710094881194, 260.65376761547196, 260.770434282132, 261.00376761546534]	2021_Jan_29_1404	59.930100905030386	1	0.375
16	44	FALSE	NN	a	['C', 'T', 'E', 'R', 'H', 'M', 'Z', 'N', 'W', 'B', 'P', 'K', 'G', 'V', 'A', 'U']	[829, 1888, 904, 1587, 986, 1224, 2911, 1335, 2448, 760, 1456, 1122, 944, 2245, 697, 2059]	10	Absent	NA	NA	ABSENT	0.31356191635131836	262.98564410209656	264.9874131679535	265.8040877023866	266.1540898481338	269.10763597488403	4.120222806930542	[263.00846886634827, 263.1253409385681, 264.09096097946167, 264.27655506134033, 265.02771186828613, 265.1440529823303, 265.26093101501465, 265.3778078556061, 265.49451088905334, 265.6114008426666, 265.7279109954834, 265.8446729183197, 265.96183586120605, 266.0783438682556, 266.19536805152893, 266.3119740486145, 266.4289360046387, 266.54541397094727, 266.64543890953064, 266.76230788230896, 266.87918186187744, 267.10763692855835]	[263.00376761546534, 263.12043428212536, 264.10343428212536, 264.27013428212535, 265.02013428212535, 265.1368009487854, 265.2534676154454, 265.3701342821054, 265.48680094876545, 265.6034676154255, 265.7201342820855, 265.8368009487455, 265.95346761540554, 266.07013428206557, 266.1868009487256, 266.3034676153856, 266.42013428204564, 266.53680094870566, 266.6534676153657, 266.7701342820257, 266.88680094868573, 267.1201342820191]	2021_Jan_29_1404	59.930100905030386	1	0.375
16	45	FALSE	NV	a	['J', 'W', 'Y', 'C', 'U', 'R', 'M', 'P', 'X', 'N', 'S', 'T', 'K', 'H', 'E', 'V']	[1029, 2448, 2670, 829, 2059, 1587, 1224, 1456, 4000, 1335, 1731, 1888, 1122, 986, 904, 2245]	9	Present	NA	NA	PRESENT	0.23805499076843264	269.09200501441956	271.10383200645447	271.8038401126462	272.15384106630046	275.22400403022766	4.120172023773193	[269.11483097076416, 269.2315888404846, 270.2073278427124, 270.38287591934204, 271.1336739063263, 271.25083589553833, 271.36726689338684, 271.4839608669281, 271.60068106651306, 271.7174220085144, 271.8342959880829, 271.95093393325806, 272.0680408477783, 272.18473386764526, 272.30137300491333, 272.41838788986206, 272.5349440574646, 272.6516959667206, 272.76854491233826, 272.8855800628662, 273.0021028518677, 273.22400403022766]	[269.1201342820191, 269.2368009486791, 270.2198009486791, 270.3865009486791, 271.1365009486791, 271.2531676153391, 271.36983428199915, 271.48650094865917, 271.6031676153192, 271.7198342819792, 271.83650094863924, 271.95316761529926, 272.0698342819593, 272.1865009486193, 272.30316761527934, 272.41983428193936, 272.5365009485994, 272.6531676152594, 272.76983428191943, 272.88650094857945, 273.0031676152395, 273.2365009485728]	2021_Jan_29_1404	59.930100905030386	1	0.375
16	46	FALSE	NV	a	['E', 'S', 'J', 'T', 'P', 'A', 'V', 'Z', 'R', 'X', 'M', 'K', 'C', 'N', 'G', 'H']	[904, 1731, 1029, 1888, 1456, 697, 2245, 2911, 1587, 4000, 1224, 1122, 829, 1335, 944, 986]	10	Present	NA	NA	ABSENT	0.31448984146118164	275.2152330875397	277.2199192047119	278.0365927854707	278.38659469279935	281.3403699398041	4.120450735092163	[275.2380590438843, 275.3544008731842, 276.3236930370331, 276.5058710575104, 277.2564420700073, 277.3731689453125, 277.49033284187317, 277.60707998275757, 277.7236409187317, 277.8403260707855, 277.9574558734894, 278.074059009552, 278.19094586372375, 278.3076000213623, 278.4244258403778, 278.5411138534546, 278.65798902511597, 278.77470803260803, 278.8916139602661, 279.0082850456238, 279.1250309944153, 279.3403699398041]	[275.2365009485728, 275.35316761523285, 276.33616761523285, 276.50286761523284, 277.25286761523284, 277.36953428189287, 277.4862009485529, 277.6028676152129, 277.71953428187294, 277.83620094853296, 277.952867615193, 278.069534281853, 278.18620094851303, 278.30286761517306, 278.4195342818331, 278.5362009484931, 278.6528676151531, 278.76953428181315, 278.8862009484732, 279.0028676151332, 279.1195342817932, 279.35286761512657]	2021_Jan_29_1404	59.930100905030386	1	0.375
16	47	FALSE	NN	a	['W', 'N', 'T', 'B', 'V', 'Y', 'R', 'H', 'A', 'G', 'M', 'E', 'U', 'J', 'S', 'C']	[2448, 1335, 1888, 760, 2245, 2670, 1587, 986, 697, 944, 1224, 904, 2059, 1029, 1731, 829]	8	Absent	NA	NA	ABSENT	0.05574393272399902	281.3379340171814	283.33649802207947	283.91983946161116	284.2698413689398	287.4567358493805	4.120237827301025	[281.360759973526, 281.47771286964417, 282.4400808811188, 282.6118779182434, 283.3794710636139, 283.47950887680054, 283.59653091430664, 283.7131190299988, 283.83000588417053, 283.94680094718933, 284.0636839866638, 284.1801788806915, 284.2969799041748, 284.4137749671936, 284.5309109687805, 284.64778089523315, 284.76432394981384, 284.8809280395508, 284.99777603149414, 285.11480498313904, 285.231369972229, 285.4567358493805]	[281.35286761512657, 281.4695342817866, 282.4525342817866, 282.6192342817866, 283.3692342817866, 283.4859009484466, 283.60256761510664, 283.71923428176666, 283.8359009484267, 283.9525676150867, 284.06923428174673, 284.18590094840675, 284.3025676150668, 284.4192342817268, 284.5359009483868, 284.65256761504685, 284.7692342817069, 284.8859009483669, 285.0025676150269, 285.11923428168694, 285.23590094834697, 285.4692342816803]	2021_Jan_29_1404	59.930100905030386	1	0.375
16	48	FALSE	NA	a	['A', 'Z', 'W', 'U', 'Y', 'R', 'C', 'X', 'J', 'K', 'V', 'S', 'N', 'T', 'B', 'G']	[697, 2911, 2448, 2059, 2670, 1587, 829, 4000, 1029, 1122, 2245, 1731, 1335, 1888, 760, 944]	8	Present	NA	NA	ABSENT	0.04417800903320312	287.4443871974945	289.4528570175171	290.0361994107231	290.38620131805175	293.5731029510498	4.120245933532715	[287.46721291542053, 287.58378291130066, 288.5564260482788, 288.73510789871216, 289.4857749938965, 289.6025378704071, 289.71940994262695, 289.83639097213745, 289.95283102989197, 290.0697560310364, 290.1864800453186, 290.3031339645386, 290.4201760292053, 290.5368330478668, 290.65359807014465, 290.7705149650574, 290.88723587989807, 291.00414395332336, 291.1208539009094, 291.2376809120178, 291.3542699813843, 291.5731019973755]	[287.4692342816803, 287.58590094834034, 288.56890094834034, 288.73560094834033, 289.48560094834033, 289.60226761500036, 289.7189342816604, 289.8356009483204, 289.9522676149804, 290.06893428164045, 290.1856009483005, 290.3022676149605, 290.4189342816205, 290.53560094828055, 290.65226761494057, 290.7689342816006, 290.8856009482606, 291.00226761492064, 291.11893428158066, 291.2356009482407, 291.3522676149007, 291.58560094823406]	2021_Jan_29_1404	59.930100905030386	1	0.375
16	49	FALSE	AV	a	['Y', 'E', 'N', 'A', 'R', 'K', 'M', 'B', 'surprise', 'V', 'G', 'X', 'U', 'Z', 'S', 'W']	[2670, 904, 1335, 697, 1587, 1122, 1224, 760, 'stimAuditory/all_stimAuditory/221.wav', 2245, 944, 4000, 2059, 2911, 1731, 2448]	12	Present	stimAuditory/all_stimAuditory/122.wav	NA	ABSENT	0.30582308769226074	293.5672330856323	295.5692720413208	296.6192801474925	296.9692820548211	299.6894700527191	4.120198011398315	[293.59005784988403, 293.70686507225037, 294.67279386520386, 294.8581929206848, 295.60863184928894, 295.7254059314728, 295.8424599170685, 295.95922803878784, 296.07598185539246, 296.19263100624084, 296.3095679283142, 296.42615604400635, 296.54312205314636, 296.6597480773926, 296.7766900062561, 296.89333391189575, 297.0101978778839, 297.1269290447235, 297.2438509464264, 297.36062598228455, 297.46051597595215, 297.6894700527191]	[293.58560094823406, 293.7022676148941, 294.6852676148941, 294.8519676148941, 295.6019676148941, 295.7186342815541, 295.8353009482141, 295.95196761487415, 296.0686342815342, 296.1853009481942, 296.3019676148542, 296.41863428151424, 296.53530094817427, 296.6519676148343, 296.7686342814943, 296.88530094815434, 297.00196761481436, 297.1186342814744, 297.2353009481344, 297.35196761479443, 297.46863428145446, 297.7019676147878]	2021_Jan_29_1404	59.930100905030386	1	0.375
16	50	FALSE	NN	a	['A', 'Z', 'M', 'E', 'P', 'K', 'G', 'U', 'V', 'T', 'B', 'W', 'S', 'N', 'Y', 'J']	[697, 2911, 1224, 904, 1456, 1122, 944, 2059, 2245, 1888, 760, 2448, 1731, 1335, 2670, 1029]	13	Absent	NA	NA	ABSENT	0.1181330680847168	299.67328119277954	301.6854510307312	302.8521258035629	303.20212771089155	305.80583596229553	4.120384931564331	[299.69610691070557, 299.8129210472107, 300.78916001319885, 300.9640779495239, 301.7148220539093, 301.83174204826355, 301.9485309123993, 302.06556487083435, 302.1822700500488, 302.2989978790283, 302.4155740737915, 302.53256392478943, 302.6491639614105, 302.76604294776917, 302.8826470375061, 302.9994640350342, 303.11639189720154, 303.23324489593506, 303.34987688064575, 303.46672201156616, 303.5836589336395, 303.80583691596985]	[299.7019676147878, 299.8186342814478, 300.80163428144783, 300.9683342814478, 301.7183342814478, 301.83500094810785, 301.95166761476787, 302.0683342814279, 302.1850009480879, 302.30166761474794, 302.41833428140797, 302.535000948068, 302.651667614728, 302.76833428138804, 302.88500094804806, 303.0016676147081, 303.1183342813681, 303.23500094802813, 303.35166761468815, 303.4683342813482, 303.5850009480082, 303.81833428134155]	2021_Jan_29_1404	59.930100905030386	1	0.375
16	51	FALSE	NV	a	['Z', 'R', 'S', 'V', 'B', 'T', 'H', 'E', 'P', 'N', 'A', 'X', 'J', 'C', 'W', 'U']	[2911, 1587, 1731, 2245, 760, 1888, 986, 904, 1456, 1335, 697, 4000, 1029, 829, 2448, 2059]	12	Present	NA	NA	PRESENT	0.0669240951538086	305.79667711257935	307.80193519592285	308.85194401735026	309.2019461630975	311.92220401763916	4.120268821716309	[305.81950306892395, 305.93595004081726, 306.90552496910095, 307.08731293678284, 307.83787202835083, 307.95495891571045, 308.0715880393982, 308.18814396858215, 308.3049509525299, 308.4217939376831, 308.5386369228363, 308.6553490161896, 308.7723698616028, 308.8889100551605, 309.00608801841736, 309.12251806259155, 309.23949694633484, 309.3561170101166, 309.4729959964752, 309.58973693847656, 309.7064599990845, 309.92220306396484]	[305.81833428134155, 305.9350009480016, 306.9180009480016, 307.08470094800157, 307.83470094800157, 307.9513676146616, 308.0680342813216, 308.18470094798164, 308.30136761464166, 308.4180342813017, 308.5347009479617, 308.65136761462173, 308.76803428128176, 308.8847009479418, 309.0013676146018, 309.1180342812618, 309.23470094792185, 309.3513676145819, 309.4680342812419, 309.5847009479019, 309.70136761456195, 309.9347009478953]	2021_Jan_29_1404	59.930100905030386	1	0.375
16	52	FALSE	AA	a	['Y', 'B', 'T', 'V', 'U', 'J', 'surprise', 'Z', 'N', 'X', 'C', 'G', 'H', 'P', 'W', 'E']	[2670, 760, 1888, 2245, 2059, 1029, 'stimAuditory/all_stimAuditory/103.wav', 2911, 1335, 4000, 829, 944, 986, 1456, 2448, 904]	10	Present	stimAuditory/all_stimAuditory/205.wav	NA	ABSENT	0.1919870376586914	311.919310092926	313.91838908195496	314.73506480848096	315.0850667158096	318.0385699272156	4.12018084526062	[311.94213700294495, 312.0591678619385, 313.0218949317932, 313.1934030056, 313.96082186698914, 314.06095695495605, 314.17760705947876, 314.29448986053467, 314.4115149974823, 314.5280559062958, 314.6448109149933, 314.7617440223694, 314.8783679008484, 314.99541687965393, 315.11196184158325, 315.2286949157715, 315.34556794166565, 315.4625039100647, 315.5793960094452, 315.6961898803711, 315.812686920166, 316.0385708808899]	[311.9347009478953, 312.0513676145553, 313.0343676145553, 313.2010676145553, 313.9510676145553, 314.06773428121534, 314.18440094787536, 314.3010676145354, 314.4177342811954, 314.53440094785543, 314.65106761451545, 314.7677342811755, 314.8844009478355, 315.0010676144955, 315.11773428115555, 315.2344009478156, 315.3510676144756, 315.4677342811356, 315.58440094779564, 315.70106761445567, 315.8177342811157, 316.05106761444904]	2021_Jan_29_1404	59.930100905030386	1	0.375
16	53	FALSE	NN	a	['E', 'C', 'K', 'V', 'G', 'U', 'R', 'Z', 'Y', 'H', 'S', 'P', 'B', 'W', 'J', 'A']	[904, 829, 1122, 2245, 944, 2059, 1587, 2911, 2670, 986, 1731, 1456, 760, 2448, 1029, 697]	11	Absent	NA	NA	ABSENT	0.5486268997192383	318.02546215057373	320.03451013565063	320.96785133674376	321.31785348249093	324.1549370288849	4.120426893234253	[318.04828691482544, 318.1652660369873, 319.13826084136963, 319.3165249824524, 320.06704902648926, 320.1840019226074, 320.30085492134094, 320.4175479412079, 320.53443598747253, 320.65102100372314, 320.7679090499878, 320.88488698005676, 321.00167202949524, 321.1181330680847, 321.2350718975067, 321.351774930954, 321.4687259197235, 321.585373878479, 321.70236587524414, 321.81895685195923, 321.9358558654785, 322.1549370288849]	[318.05106761444904, 318.16773428110906, 319.15073428110907, 319.31743428110906, 320.06743428110906, 320.1841009477691, 320.3007676144291, 320.41743428108913, 320.53410094774915, 320.6507676144092, 320.7674342810692, 320.8841009477292, 321.00076761438925, 321.11743428104927, 321.2341009477093, 321.3507676143693, 321.46743428102934, 321.58410094768936, 321.7007676143494, 321.8174342810094, 321.93410094766944, 322.1674342810028]	2021_Jan_29_1404	59.930100905030386	1	0.375
16	54	FALSE	NA	a	['B', 'C', 'E', 'U', 'N', 'W', 'Z', 'Y', 'S', 'V', 'R', 'X', 'T', 'K', 'J', 'H']	[760, 829, 904, 2059, 1335, 2448, 2911, 2670, 1731, 2245, 1587, 4000, 1888, 1122, 1029, 986]	12	Present	NA	NA	ABSENT	1.297102928161621	324.1484889984131	326.1514060497284	327.20141415590007	327.5514160632287	330.271301984787	4.119895935058594	[324.1713140010834, 324.2882890701294, 325.25463604927063, 325.439416885376, 326.19056391716003, 326.30681586265564, 326.4237480163574, 326.5406119823456, 326.6572279930115, 326.77399587631226, 326.8909409046173, 327.0078589916229, 327.12458395957947, 327.2411689758301, 327.3579659461975, 327.47464895248413, 327.5916018486023, 327.7083249092102, 327.825199842453, 327.94182205200195, 328.0586988925934, 328.271301984787]	[324.1674342810028, 324.2841009476628, 325.2671009476628, 325.4338009476628, 326.1838009476628, 326.3004676143228, 326.41713428098285, 326.5338009476429, 326.6504676143029, 326.7671342809629, 326.88380094762294, 327.00046761428297, 327.117134280943, 327.233800947603, 327.35046761426304, 327.46713428092306, 327.5838009475831, 327.7004676142431, 327.81713428090313, 327.93380094756316, 328.0504676142232, 328.28380094755653]	2021_Jan_29_1404	59.930100905030386	1	0.375
16	55	FALSE	NA	a	['W', 'J', 'H', 'P', 'G', 'K', 'Y', 'N', 'A', 'B', 'X', 'Z', 'U', 'R', 'E', 'S']	[2448, 1029, 986, 1456, 944, 1122, 2670, 1335, 697, 760, 4000, 2911, 2059, 1587, 904, 1731]	11	Present	NA	NA	ABSENT	0.4143009185791016	330.2547972202301	332.26747608184814	333.20081752135985	333.55081942868844	336.3876688480377	4.120192766189575	[330.2776219844818, 330.39453506469727, 331.3709909915924, 331.5455288887024, 332.29629588127136, 332.4133388996124, 332.52992606163025, 332.6467468738556, 332.76349902153015, 332.88039684295654, 332.9971809387207, 333.1140398979187, 333.23086404800415, 333.34750485420227, 333.4642479419708, 333.58099484443665, 333.697881937027, 333.8146388530731, 333.9313979148865, 334.04799699783325, 334.1650879383087, 334.3876688480377]	[330.28380094755653, 330.40046761421655, 331.38346761421656, 331.55016761421655, 332.30016761421655, 332.41683428087657, 332.5335009475366, 332.6501676141966, 332.76683428085664, 332.88350094751667, 333.0001676141767, 333.1168342808367, 333.23350094749674, 333.35016761415676, 333.4668342808168, 333.5835009474768, 333.70016761413683, 333.81683428079685, 333.9335009474569, 334.0501676141169, 334.1668342807769, 334.4001676141103]	2021_Jan_29_1404	59.930100905030386	1	0.375
16	56	FALSE	NA	a	['T', 'S', 'C', 'Z', 'Y', 'A', 'R', 'G', 'V', 'B', 'U', 'P', 'X', 'K', 'M', 'E']	[1888, 1731, 829, 2911, 2670, 697, 1587, 944, 2245, 760, 2059, 1456, 4000, 1122, 1224, 904]	13	Present	NA	NA	PRESENT	0.5390520095825195	336.3781580924988	338.38361120224	339.5502847829788	339.90028669030744	342.50403594970703	4.120424747467041	[336.4009840488434, 336.5174489021301, 337.4873628616333, 337.66844391822815, 338.4194509983063, 338.53625893592834, 338.65303087234497, 338.7697629928589, 338.8865349292755, 339.0036199092865, 339.1200728416443, 339.2367720603943, 339.35369300842285, 339.4702570438385, 339.5872690677643, 339.70381903648376, 339.82088804244995, 339.9374279975891, 340.05452394485474, 340.17104387283325, 340.2880189418793, 340.50404691696167]	[336.4001676141103, 336.5168342807703, 337.4998342807703, 337.6665342807703, 338.4165342807703, 338.5332009474303, 338.64986761409034, 338.76653428075036, 338.8832009474104, 338.9998676140704, 339.11653428073043, 339.23320094739046, 339.3498676140505, 339.4665342807105, 339.5832009473705, 339.69986761403055, 339.8165342806906, 339.9332009473506, 340.0498676140106, 340.16653428067065, 340.28320094733067, 340.516534280664]	2021_Jan_29_1404	59.930100905030386	1	0.375
16	57	FALSE	NA	a	['R', 'M', 'Z', 'E', 'V', 'A', 'G', 'S', 'J', 'P', 'C', 'K', 'B', 'X', 'W', 'U']	[1587, 1224, 2911, 904, 2245, 697, 944, 1731, 1029, 1456, 829, 1122, 760, 4000, 2448, 2059]	14	Present	NA	NA	PRESENT	0.06430792808532715	342.50080609321594	344.50037598609924	345.7837164719166	346.13371837924524	348.62040305137634	4.1200270652771	[342.52363204956055, 342.64020586013794, 343.60372591018677, 343.7916078567505, 344.54228806495667, 344.64228200912476, 344.75907802581787, 344.8757929801941, 344.9926760196686, 345.10943603515625, 345.2261710166931, 345.3432340621948, 345.45973896980286, 345.57659697532654, 345.6937129497528, 345.81009793281555, 345.9270429611206, 346.0438358783722, 346.1606240272522, 346.2774829864502, 346.39418506622314, 346.62040400505066]	[342.516534280664, 342.63320094732404, 343.61620094732405, 343.78290094732404, 344.53290094732404, 344.64956761398406, 344.7662342806441, 344.8829009473041, 344.99956761396413, 345.11623428062416, 345.2329009472842, 345.3495676139442, 345.4662342806042, 345.58290094726425, 345.6995676139243, 345.8162342805843, 345.9329009472443, 346.04956761390434, 346.16623428056437, 346.2829009472244, 346.3995676138844, 346.63290094721776]	2021_Jan_29_1404	59.930100905030386	1	0.375
16	58	FALSE	NV	a	['T', 'U', 'J', 'H', 'K', 'E', 'Y', 'P', 'R', 'G', 'W', 'N', 'S', 'X', 'V', 'Z']	[1888, 2059, 1029, 986, 1122, 904, 2670, 1456, 1587, 944, 2448, 1335, 1731, 4000, 2245, 2911]	14	Present	NA	NA	PRESENT	0.08479881286621094	348.6069130897522	350.61645102500916	351.8997915108265	352.24979437182947	354.73676896095276	4.1203179359436035	[348.6297390460968, 348.74639105796814, 349.7200949192047, 349.8978199958801, 350.64851784706116, 350.76541686058044, 350.88192987442017, 350.9991340637207, 351.11565804481506, 351.23233103752136, 351.3493390083313, 351.46619391441345, 351.5829908847809, 351.69949197769165, 351.81652307510376, 351.93310499191284, 352.05001997947693, 352.1666729450226, 352.2835898399353, 352.4002380371094, 352.517117023468, 352.73676896095276]	[348.63290094721776, 348.7495676138778, 349.7325676138778, 349.8992676138778, 350.6492676138778, 350.7659342805378, 350.88260094719783, 350.99926761385785, 351.1159342805179, 351.2326009471779, 351.3492676138379, 351.46593428049795, 351.58260094715797, 351.699267613818, 351.815934280478, 351.93260094713804, 352.04926761379807, 352.1659342804581, 352.2826009471181, 352.39926761377814, 352.51593428043816, 352.7492676137715]	2021_Jan_29_1404	59.930100905030386	1	0.375
16	59	FALSE	NN	a	['G', 'H', 'U', 'N', 'V', 'J', 'Z', 'P', 'M', 'E', 'C', 'W', 'R', 'T', 'S', 'K']	[944, 986, 2059, 1335, 2245, 1029, 2911, 1456, 1224, 904, 829, 2448, 1587, 1888, 1731, 1122]	13	Absent	NA	NA	ABSENT	0.17765116691589355	354.72981810569763	356.7328472137451	357.89952174815824	358.2495236554869	360.8531370162964	4.1202898025512695	[354.75264286994934, 354.86943197250366, 355.8364579677582, 356.0208959579468, 356.7714579105377, 356.88851594924927, 357.00516390800476, 357.12175488471985, 357.2388150691986, 357.35529088974, 357.4721009731293, 357.5890200138092, 357.70568895339966, 357.8226480484009, 357.93951201438904, 358.0562288761139, 358.17297196388245, 358.2896029949188, 358.4064140319824, 358.52334094047546, 358.64018297195435, 358.8531370162964]	[354.7492676137715, 354.86593428043153, 355.84893428043154, 356.0156342804315, 356.7656342804315, 356.88230094709155, 356.9989676137516, 357.1156342804116, 357.2323009470716, 357.34896761373165, 357.46563428039167, 357.5823009470517, 357.6989676137117, 357.81563428037174, 357.93230094703176, 358.0489676136918, 358.1656342803518, 358.28230094701183, 358.39896761367186, 358.5156342803319, 358.6323009469919, 358.86563428032525]	2021_Jan_29_1404	59.930100905030386	1	0.375
16	60	FALSE	NV	a	['B', 'H', 'J', 'Z', 'N', 'W', 'U', 'P', 'R', 'X', 'Y', 'E', 'G', 'M', 'K', 'C']	[760, 986, 1029, 2911, 1335, 2448, 2059, 1456, 1587, 4000, 2670, 904, 944, 1224, 1122, 829]	10	Present	NA	NA	ABSENT	0.7026338577270508	360.83607602119446	362.8490970134735	363.6657717863252	364.01577369365384	366.9695029258728	4.120405912399292	[360.85890102386475, 360.97570300102234, 361.9528269767761, 362.1268570423126, 362.877681016922, 362.9946210384369, 363.1115520000458, 363.2281949520111, 363.3450689315796, 363.46177792549133, 363.57848596572876, 363.6953070163727, 363.81203603744507, 363.92892503738403, 364.04572796821594, 364.16229701042175, 364.27928495407104, 364.39612889289856, 364.51293206214905, 364.6295108795166, 364.7463638782501, 364.9695019721985]	[360.86563428032525, 360.9823009469853, 361.9653009469853, 362.1320009469853, 362.8820009469853, 362.9986676136453, 363.1153342803053, 363.23200094696534, 363.34866761362537, 363.4653342802854, 363.5820009469454, 363.69866761360544, 363.81533428026546, 363.9320009469255, 364.0486676135855, 364.16533428024553, 364.28200094690555, 364.3986676135656, 364.5153342802256, 364.6320009468856, 364.74866761354565, 364.982000946879]	2021_Jan_29_1404	59.930100905030386	1	0.375
16	61	FALSE	VV	a	['W', 'A', 'S', 'B', 'C', 'P', 'M', 'N', 'J', 'U', 'surprise', 'H', 'K', 'X', 'V', 'G']	[2448, 697, 1731, 760, 829, 1456, 1224, 1335, 1029, 2059, 'stimAuditory/all_stimAuditory/124.wav', 986, 1122, 4000, 2245, 944]	14	Present	NA	NA	ABSENT	0.5621120929718018	366.9590880870819	368.9656271934509	370.248968394524	370.5989705402712	373.0858700275421	4.1202428340911865	[366.9819128513336, 367.09878301620483, 368.06919503211975, 368.25010800361633, 369.0009779930115, 369.11735486984253, 369.23434495925903, 369.3511960506439, 369.4678568840027, 369.5848078727722, 369.70159697532654, 369.8182020187378, 369.9352219104767, 370.051885843277, 370.1686818599701, 370.2854700088501, 370.4022870063782, 370.5189599990845, 370.63576102256775, 370.7526080608368, 370.86942505836487, 371.0858690738678]	[366.982000946879, 367.098667613539, 368.081667613539, 368.248367613539, 368.998367613539, 369.11503428019904, 369.23170094685906, 369.3483676135191, 369.4650342801791, 369.58170094683913, 369.69836761349916, 369.8150342801592, 369.9317009468192, 370.04836761347923, 370.16503428013925, 370.2817009467993, 370.3983676134593, 370.5150342801193, 370.63170094677935, 370.74836761343937, 370.8650342800994, 371.09836761343274]	2021_Jan_29_1404	59.930100905030386	1	0.375
16	62	FALSE	NN	a	['A', 'Y', 'V', 'C', 'P', 'J', 'H', 'R', 'K', 'U', 'M', 'E', 'S', 'B', 'T', 'W']	[697, 2670, 2245, 829, 1456, 1029, 986, 1587, 1122, 2059, 1224, 904, 1731, 760, 1888, 2448]	9	Absent	NA	NA	ABSENT	0.2963719367980957	373.08223700523376	375.0820209980011	375.7820291041928	376.1320310115214	379.2022368907929	4.120215892791748	[373.1050748825073, 373.2218680381775, 374.18555998802185, 374.3729360103607, 375.12372398376465, 375.2236440181732, 375.34040904045105, 375.45726799964905, 375.5739760398865, 375.69113302230835, 375.8076548576355, 375.9243588447571, 376.041198015213, 376.15797686576843, 376.2747859954834, 376.3916139602661, 376.50832891464233, 376.62532806396484, 376.7420370578766, 376.85878896713257, 376.9756519794464, 377.20223593711853]	[373.09836761343274, 373.21503428009277, 374.19803428009277, 374.36473428009276, 375.11473428009276, 375.2314009467528, 375.3480676134128, 375.46473428007283, 375.58140094673286, 375.6980676133929, 375.8147342800529, 375.9314009467129, 376.04806761337295, 376.164734280033, 376.281400946693, 376.398067613353, 376.51473428001304, 376.63140094667307, 376.7480676133331, 376.8647342799931, 376.98140094665314, 377.2147342799865]	2021_Jan_29_1404	59.930100905030386	1	0.375
16	63	FALSE	NV	a	['S', 'R', 'J', 'Y', 'K', 'C', 'W', 'X', 'M', 'G', 'P', 'A', 'T', 'U', 'N', 'Z']	[1731, 1587, 1029, 2670, 1122, 829, 2448, 4000, 1224, 944, 1456, 697, 1888, 2059, 1335, 2911]	8	Present	NA	NA	ABSENT	0.04511904716491699	379.1883141994476	381.19815611839294	381.78149636583174	382.13149851157897	385.31860303878784	4.1204469203948975	[379.21113896369934, 379.3281879425049, 380.30192589759827, 380.4792778491974, 381.2299358844757, 381.34682297706604, 381.46364188194275, 381.58029198646545, 381.69729495048523, 381.8137729167938, 381.93070006370544, 382.0474998950958, 382.16424894332886, 382.280935049057, 382.3978569507599, 382.5147399902344, 382.631520986557, 382.7481849193573, 382.8651020526886, 382.98178696632385, 383.0985288619995, 383.31860303878784]	[379.2147342799865, 379.3314009466465, 380.3144009466465, 380.4811009466465, 381.2311009466465, 381.34776761330653, 381.46443427996655, 381.5811009466266, 381.6977676132866, 381.8144342799466, 381.93110094660665, 382.04776761326667, 382.1644342799267, 382.2811009465867, 382.39776761324674, 382.51443427990677, 382.6311009465668, 382.7477676132268, 382.86443427988684, 382.98110094654686, 383.0977676132069, 383.33110094654023]	2021_Jan_29_1404	59.930100905030386	1	0.375
16	64	FALSE	NN	a	['R', 'C', 'V', 'Y', 'E', 'B', 'M', 'H', 'N', 'A', 'P', 'Z', 'G', 'W', 'J', 'T']	[1587, 829, 2245, 2670, 904, 760, 1224, 986, 1335, 697, 1456, 2911, 944, 2448, 1029, 1888]	13	Absent	NA	NA	ABSENT	1.2016899585723877	385.3114821910858	387.31460905075073	388.4812838235824	388.8312857309111	391.43496894836426	4.120359897613525	[385.3343069553375, 385.4509930610657, 386.41829085350037, 386.6022980213165, 387.3529939651489, 387.4696800708771, 387.58672189712524, 387.7033748626709, 387.82019901275635, 387.93703603744507, 388.0536620616913, 388.17032289505005, 388.2871289253235, 388.40397000312805, 388.5209128856659, 388.63751888275146, 388.75442600250244, 388.8712089061737, 388.98800706863403, 389.10485100746155, 389.221431016922, 389.43496894836426]	[385.33110094654023, 385.44776761320026, 386.43076761320026, 386.59746761320025, 387.34746761320025, 387.4641342798603, 387.5808009465203, 387.6974676131803, 387.81413427984035, 387.93080094650037, 388.0474676131604, 388.1641342798204, 388.28080094648044, 388.39746761314046, 388.5141342798005, 388.6308009464605, 388.74746761312053, 388.86413427978056, 388.9808009464406, 389.0974676131006, 389.21413427976063, 389.447467613094]	2021_Jan_29_1404	59.930100905030386	1	0.375
16	65	FALSE	NV	a	['Z', 'T', 'V', 'N', 'J', 'Y', 'H', 'B', 'P', 'X', 'R', 'M', 'C', 'G', 'A', 'E']	[2911, 1888, 2245, 1335, 1029, 2670, 986, 760, 1456, 4000, 1587, 1224, 829, 944, 697, 904]	10	Present	NA	NA	PRESENT	0.4147529602050781	391.4174461364746	393.43115305900574	394.2478278318574	394.59782973918607	397.5513370037079	4.120183944702148	[391.4402709007263, 391.55707693099976, 392.5346620082855, 392.7082529067993, 393.4591188430786, 393.5757908821106, 393.6927649974823, 393.82620787620544, 393.9264130592346, 394.0432460308075, 394.1599688529968, 394.27682185173035, 394.39364290237427, 394.51029801368713, 394.6271879673004, 394.7437560558319, 394.8607029914856, 394.9772689342499, 395.0943269729614, 395.21114897727966, 395.3279559612274, 395.55133605003357]	[391.447467613094, 391.564134279754, 392.547134279754, 392.713834279754, 393.463834279754, 393.580500946414, 393.69716761307404, 393.81383427973407, 393.9305009463941, 394.0471676130541, 394.16383427971414, 394.28050094637416, 394.3971676130342, 394.5138342796942, 394.63050094635423, 394.74716761301426, 394.8638342796743, 394.9805009463343, 395.0971676129943, 395.21383427965435, 395.3305009463144, 395.5638342796477]	2021_Jan_29_1404	59.930100905030386	1	0.375
16	66	FALSE	NN	a	['W', 'A', 'Z', 'G', 'C', 'H', 'T', 'S', 'J', 'B', 'U', 'R', 'Y', 'P', 'V', 'K']	[2448, 697, 2911, 944, 829, 986, 1888, 1731, 1029, 760, 2059, 1587, 2670, 1456, 2245, 1122]	13	Absent	NA	NA	ABSENT	0.21961307525634768	397.54065704345703	399.54746198654175	400.71413675937345	401.0641386667021	403.66770195961	4.120239973068237	[397.5634820461273, 397.6803810596466, 398.651025056839, 398.83143186569214, 399.5821759700775, 399.6988060474396, 399.81587505340576, 399.93252396583557, 400.04934096336365, 400.1660108566284, 400.2829899787903, 400.399582862854, 400.51658606529236, 400.6333088874817, 400.7502188682556, 400.8667709827423, 400.98364186286926, 401.10041904449463, 401.21719789505005, 401.33383297920227, 401.4506239891052, 401.6677029132843]	[397.5638342796477, 397.68050094630775, 398.66350094630775, 398.83020094630774, 399.58020094630774, 399.69686761296776, 399.8135342796278, 399.9302009462878, 400.04686761294784, 400.16353427960786, 400.2802009462679, 400.3968676129279, 400.51353427958793, 400.63020094624795, 400.746867612908, 400.863534279568, 400.980200946228, 401.09686761288805, 401.21353427954807, 401.3302009462081, 401.4468676128681, 401.68020094620147]	2021_Jan_29_1404	59.930100905030386	1	0.375
16	67	FALSE	AN	a	['Z', 'R', 'B', 'H', 'surprise', 'W', 'P', 'Y', 'E', 'M', 'V', 'T', 'S', 'C', 'K', 'U']	[2911, 1587, 760, 986, 'stimAuditory/all_stimAuditory/116.wav', 2448, 1456, 2670, 904, 1224, 2245, 1888, 1731, 829, 1122, 2059]	8	Absent	stimAuditory/all_stimAuditory/221.wav	NA	ABSENT	0.3130919933319092	403.66351103782654	405.6636869907379	406.2470293839439	406.5970315296911	409.7840778827667	4.120390892028809	[403.68633699417114, 403.80319905281067, 404.76739406585693, 404.9542188644409, 405.705472946167, 405.82180285453796, 405.93857884407043, 406.0555820465088, 406.15552496910095, 406.27231192588806, 406.3890390396118, 406.5057818889618, 406.62255001068115, 406.739382982254, 406.8561580181122, 406.9728889465332, 407.08970403671265, 407.2065210342407, 407.3232979774475, 407.44004106521606, 407.5569179058075, 407.7840690612793]	[403.68020094620147, 403.7968676128615, 404.7798676128615, 404.9465676128615, 405.6965676128615, 405.8132342795215, 405.92990094618153, 406.04656761284156, 406.1632342795016, 406.2799009461616, 406.3965676128216, 406.51323427948165, 406.6299009461417, 406.7465676128017, 406.8632342794617, 406.97990094612175, 407.09656761278177, 407.2132342794418, 407.3299009461018, 407.44656761276184, 407.56323427942186, 407.7965676127552]	2021_Jan_29_1404	59.930100905030386	1	0.375
16	68	FALSE	NV	a	['U', 'T', 'W', 'C', 'H', 'V', 'B', 'R', 'Z', 'E', 'M', 'X', 'P', 'N', 'S', 'Y']	[2059, 1888, 2448, 829, 986, 2245, 760, 1587, 2911, 904, 1224, 4000, 1456, 1335, 1731, 2670]	12	Present	NA	NA	ABSENT	0.4214589595794678	409.76971912384033	411.7802081108093	412.830216216981	413.1802181243097	415.90043592453	4.120227813720703	[409.79254388809204, 409.909451007843, 410.8837630748749, 411.0605049133301, 411.8112919330597, 411.9280390739441, 412.0448980331421, 412.1616039276123, 412.2785270214081, 412.3952078819275, 412.5121879577637, 412.62897300720215, 412.74572587013245, 412.8624289035797, 412.9792580604553, 413.09600496292114, 413.21289706230164, 413.3297288417816, 413.4463880062103, 413.5632178783417, 413.67986607551575, 413.90043687820435]	[409.7965676127552, 409.91323427941524, 410.89623427941524, 411.06293427941523, 411.81293427941523, 411.92960094607525, 412.0462676127353, 412.1629342793953, 412.2796009460553, 412.39626761271535, 412.5129342793754, 412.6296009460354, 412.7462676126954, 412.86293427935544, 412.97960094601547, 413.0962676126755, 413.2129342793355, 413.32960094599554, 413.44626761265556, 413.5629342793156, 413.6796009459756, 413.91293427930896]	2021_Jan_29_1404	59.930100905030386	1	0.375
16	69	FALSE	NV	a	['K', 'E', 'V', 'H', 'T', 'W', 'Z', 'U', 'X', 'G', 'A', 'N', 'M', 'P', 'S', 'R']	[1122, 904, 2245, 986, 1888, 2448, 2911, 2059, 4000, 944, 697, 1335, 1224, 1456, 1731, 1587]	9	Present	NA	NA	ABSENT	0.7940819263458252	415.89299416542053	417.8966941833496	418.59670205112275	418.9467041968699	422.01680302619934	4.1201088428497314	[415.91581892967224, 416.03250885009766, 417.0001299381256, 417.1835129261017, 417.9342448711395, 418.0511908531189, 418.1678969860077, 418.28462386131287, 418.4015028476715, 418.5182960033417, 418.6349630355835, 418.7517900466919, 418.8687629699707, 418.985524892807, 419.1022469997406, 419.2190110683441, 419.3355770111084, 419.4525718688965, 419.5693700313568, 419.68612790107727, 419.80283188819885, 420.01680397987366]	[415.91293427930896, 416.029600945969, 417.012600945969, 417.179300945969, 417.929300945969, 418.045967612629, 418.162634279289, 418.27930094594905, 418.39596761260907, 418.5126342792691, 418.6293009459291, 418.74596761258914, 418.86263427924916, 418.9793009459092, 419.0959676125692, 419.21263427922923, 419.32930094588926, 419.4459676125493, 419.5626342792093, 419.67930094586933, 419.79596761252935, 420.0293009458627]	2021_Jan_29_1404	59.930100905030386	1	0.375
16	70	FALSE	NV	a	['J', 'P', 'M', 'U', 'A', 'K', 'E', 'G', 'X', 'S', 'Z', 'R', 'C', 'N', 'H', 'W']	[1029, 1456, 1224, 2059, 697, 1122, 904, 944, 4000, 1731, 2911, 1587, 829, 1335, 986, 2448]	9	Present	NA	NA	ABSENT	0.23952198028564453	422.0156509876251	424.0127251148224	424.7127341746884	425.0627351283427	428.1331698894501	4.1204447746276855	[422.0384900569916, 422.1385660171509, 423.1164929866791, 423.2898349761963, 424.04046988487244, 424.15743589401245, 424.27428102493286, 424.39099192619324, 424.507483959198, 424.62455892562866, 424.7413749694824, 424.8581838607788, 424.9751720428467, 425.0915758609772, 425.20851492881775, 425.3251988887787, 425.44211602211, 425.55868005752563, 425.67593598365784, 425.7922739982605, 425.90929889678955, 426.1331698894501]	[422.0293009458627, 422.1459676125227, 423.12896761252273, 423.2956676125227, 424.0456676125227, 424.16233427918274, 424.27900094584277, 424.3956676125028, 424.5123342791628, 424.62900094582284, 424.74566761248286, 424.8623342791429, 424.9790009458029, 425.09566761246293, 425.21233427912296, 425.329000945783, 425.445667612443, 425.562334279103, 425.67900094576305, 425.7956676124231, 425.9123342790831, 426.14566761241645]	2021_Jan_29_1404	59.930100905030386	1	0.375
16	71	FALSE	NA	a	['P', 'E', 'W', 'B', 'U', 'A', 'R', 'C', 'S', 'M', 'H', 'X', 'T', 'N', 'Z', 'K']	[1456, 904, 2448, 760, 2059, 697, 1587, 829, 1731, 1224, 986, 4000, 1888, 1335, 2911, 1122]	12	Present	NA	NA	PRESENT	0.3237271308898926	428.1219351291657	430.1294620037079	431.1794701098795	431.5294720172082	434.24953603744507	4.120074033737183	[428.14475989341736, 428.26150393486023, 429.2328588962555, 429.41284584999084, 430.16356801986694, 430.28023195266724, 430.3972518444061, 430.51395893096924, 430.63053703308105, 430.7475039958954, 430.8642408847809, 430.98113203048706, 431.09787702560425, 431.21449184417725, 431.33152890205383, 431.44816303253174, 431.5652029514313, 431.68190002441406, 431.79864287376404, 431.91542887687683, 432.03203797340393, 432.24953603744507]	[428.14566761241645, 428.26233427907647, 429.2453342790765, 429.41203427907647, 430.16203427907647, 430.2787009457365, 430.3953676123965, 430.51203427905654, 430.62870094571656, 430.7453676123766, 430.8620342790366, 430.97870094569663, 431.09536761235665, 431.2120342790167, 431.3287009456767, 431.4453676123367, 431.56203427899675, 431.6787009456568, 431.7953676123168, 431.9120342789768, 432.02870094563684, 432.2620342789702]	2021_Jan_29_1404	59.930100905030386	1	0.375
16	72	FALSE	NV	a	['M', 'B', 'R', 'Z', 'V', 'T', 'P', 'G', 'E', 'W', 'H', 'X', 'U', 'A', 'C', 'Y']	[1224, 760, 1587, 2911, 2245, 1888, 1456, 944, 904, 2448, 986, 4000, 2059, 697, 829, 2670]	12	Present	NA	NA	ABSENT	0.7612910270690918	434.24494314193726	436.2455921173096	437.29559998506267	437.6456011771356	440.3659029006958	4.1203107833862305	[434.2677688598633, 434.38457107543945, 435.3492259979248, 435.53549790382385, 436.2869288921356, 436.4034090042114, 436.519966840744, 436.63675904273987, 436.75369000434875, 436.87056398391724, 436.9704339504242, 437.0871238708496, 437.2040560245514, 437.32064485549927, 437.4374918937683, 437.5543780326843, 437.6711058616638, 437.7879168987274, 437.90475392341614, 438.02153301239014, 438.1383578777313, 438.3659019470215]	[434.2620342789702, 434.3787009456302, 435.3617009456302, 435.5284009456302, 436.2784009456302, 436.39506761229023, 436.51173427895026, 436.6284009456103, 436.7450676122703, 436.8617342789303, 436.97840094559035, 437.0950676122504, 437.2117342789104, 437.3284009455704, 437.44506761223045, 437.56173427889047, 437.6784009455505, 437.7950676122105, 437.91173427887054, 438.02840094553056, 438.1450676121906, 438.37840094552394]	2021_Jan_29_1404	59.930100905030386	1	0.375
16	73	FALSE	VN	a	['N', 'M', 'R', 'K', 'E', 'surprise', 'P', 'B', 'A', 'H', 'W', 'C', 'J', 'G', 'S', 'Z']	[1335, 1224, 1587, 1122, 904, 'stimAuditory/all_stimAuditory/209.wav', 1456, 760, 697, 986, 2448, 829, 1029, 944, 1731, 2911]	9	Absent	NA	NA	ABSENT	0.4933850765228271	440.3510789871216	442.3620150089264	443.0620231151181	443.4120250224467	446.4822690486908	4.120254039764404	[440.37390398979187, 440.4909338951111, 441.4655909538269, 441.6420810222626, 442.3927810192108, 442.5094618797302, 442.62642884254456, 442.7429950237274, 442.86000084877014, 442.97664284706116, 443.09365797042847, 443.2101650238037, 443.326966047287, 443.4438679218292, 443.560781955719, 443.67738699913025, 443.79408288002014, 443.9109299182892, 444.0276200771332, 444.14448499679565, 444.2612268924713, 444.4822690486908]	[440.37840094552394, 440.49506761218396, 441.47806761218396, 441.64476761218395, 442.39476761218395, 442.511434278844, 442.628100945504, 442.744767612164, 442.86143427882405, 442.9781009454841, 443.0947676121441, 443.2114342788041, 443.32810094546414, 443.44476761212417, 443.5614342787842, 443.6781009454442, 443.79476761210424, 443.91143427876426, 444.0281009454243, 444.1447676120843, 444.26143427874433, 444.4947676120777]	2021_Jan_29_1404	59.930100905030386	1	0.375
16	74	FALSE	NV	a	['T', 'H', 'K', 'U', 'S', 'W', 'Y', 'N', 'J', 'X', 'V', 'G', 'A', 'R', 'B', 'E']	[1888, 986, 1122, 2059, 1731, 2448, 2670, 1335, 1029, 4000, 2245, 944, 697, 1587, 760, 904]	10	Present	NA	NA	ABSENT	0.1621708869934082	446.4745140075683	448.4785730838776	449.2952478567293	449.6452497640579	452.59863591194153	4.120062828063965	[446.49733996391296, 446.61388206481934, 447.58196091651917, 447.7648808956146, 448.5157148838043, 448.63257694244385, 448.7494568824768, 448.8659589290619, 448.98314690589905, 449.09962701797485, 449.2165699005127, 449.3332178592682, 449.45005106925964, 449.56669187545776, 449.68366384506226, 449.80053305625916, 449.9169979095459, 450.03383898735046, 450.15070605278015, 450.26752400398254, 450.38427090644836, 450.59863805770874]	[446.4947676120777, 446.6114342787377, 447.5944342787377, 447.7611342787377, 448.5111342787377, 448.6278009453977, 448.74446761205775, 448.86113427871777, 448.9778009453778, 449.0944676120378, 449.21113427869784, 449.32780094535786, 449.4444676120179, 449.5611342786779, 449.67780094533794, 449.79446761199796, 449.911134278658, 450.027800945318, 450.14446761197803, 450.26113427863805, 450.3778009452981, 450.6111342786314]	2021_Jan_29_1404	59.930100905030386	1	0.375
16	75	FALSE	NV	a	['H', 'M', 'B', 'Y', 'C', 'R', 'K', 'W', 'X', 'Z', 'E', 'V', 'T', 'P', 'A', 'U']	[986, 1224, 760, 2670, 829, 1587, 1122, 2448, 4000, 2911, 904, 2245, 1888, 1456, 697, 2059]	9	Present	NA	NA	ABSENT	0.27165889739990234	452.5969409942627	454.5947279930115	455.2947360992032	455.6447380065318	458.7150039672851	4.120275974273682	[452.619765996933, 452.7198679447174, 453.69832491874695, 453.8711040019989, 454.6385769844055, 454.7387409210205, 454.85566902160645, 454.97222900390625, 455.08928298950195, 455.2058548927307, 455.322762966156, 455.4393470287323, 455.556293964386, 455.67327404022217, 455.7899520397186, 455.9067130088806, 456.02351999282837, 456.1401970386505, 456.25709891319275, 456.3737108707428, 456.4904658794403, 456.71500301361084]	[452.6111342786314, 452.72780094529145, 453.71080094529145, 453.87750094529144, 454.62750094529144, 454.74416761195147, 454.8608342786115, 454.9775009452715, 455.09416761193154, 455.21083427859156, 455.3275009452516, 455.4441676119116, 455.56083427857163, 455.67750094523166, 455.7941676118917, 455.9108342785517, 456.0275009452117, 456.14416761187175, 456.2608342785318, 456.3775009451918, 456.4941676118518, 456.72750094518517]	2021_Jan_29_1404	59.930100905030386	1	0.375
16	76	FALSE	NV	a	['H', 'A', 'E', 'Y', 'S', 'R', 'T', 'C', 'V', 'U', 'M', 'X', 'N', 'W', 'B', 'K']	[986, 697, 904, 2670, 1731, 1587, 1888, 829, 2245, 2059, 1224, 4000, 1335, 2448, 760, 1122]	12	Present	NA	NA	ABSENT	0.2203540802001953	458.7033741474152	460.71123218536377	461.76124005311686	462.1112421988641	464.8313698768616	4.120137691497803	[458.7262120246887, 458.84287786483765, 459.8146939277649, 459.9941599369049, 460.7449028491974, 460.8615710735321, 460.9784679412842, 461.09522700309753, 461.2120199203491, 461.3288140296936, 461.44569993019104, 461.56239104270935, 461.6793029308319, 461.7960479259491, 461.9127378463745, 462.02958488464355, 462.14633893966675, 462.26331090927124, 462.3798439502716, 462.4967908859253, 462.6136119365692, 462.8313698768616]	[458.72750094518517, 458.8441676118452, 459.8271676118452, 459.9938676118452, 460.7438676118452, 460.8605342785052, 460.97720094516524, 461.09386761182526, 461.2105342784853, 461.3272009451453, 461.44386761180533, 461.56053427846535, 461.6772009451254, 461.7938676117854, 461.9105342784454, 462.02720094510545, 462.1438676117655, 462.2605342784255, 462.3772009450855, 462.49386761174554, 462.61053427840557, 462.8438676117389]	2021_Jan_29_1404	59.930100905030386	1	0.375
16	77	FALSE	NV	a	['K', 'S', 'M', 'B', 'J', 'R', 'V', 'N', 'X', 'Z', 'E', 'H', 'W', 'Y', 'A', 'P']	[1122, 1731, 1224, 760, 1029, 1587, 2245, 1335, 4000, 2911, 904, 986, 2448, 2670, 697, 1456]	9	Present	NA	NA	ABSENT	0.02555108070373535	464.8265221118927	466.8273022174835	467.52731008525666	467.8773119925853	470.9477369785309	4.120434761047363	[464.8493468761444, 464.9658079147339, 465.931058883667, 466.1172709465027, 466.868008852005, 466.98472690582275, 467.1013889312744, 467.21805596351624, 467.3351819515228, 467.4518139362335, 467.5685770511627, 467.6853458881378, 467.802090883255, 467.91897106170654, 468.01893496513367, 468.1357159614563, 468.2524518966675, 468.36934304237366, 468.48609805107117, 468.60292291641235, 468.71979904174805, 468.9477369785309]	[464.8438676117389, 464.96053427839894, 465.94353427839894, 466.11023427839893, 466.86023427839893, 466.97690094505896, 467.093567611719, 467.210234278379, 467.32690094503903, 467.44356761169905, 467.5602342783591, 467.6769009450191, 467.7935676116791, 467.91023427833915, 468.02690094499917, 468.1435676116592, 468.2602342783192, 468.37690094497924, 468.49356761163926, 468.6102342782993, 468.7269009449593, 468.96023427829266]	2021_Jan_29_1404	59.930100905030386	1	0.375
16	78	FALSE	NA	a	['V', 'K', 'E', 'R', 'Z', 'M', 'Y', 'X', 'C', 'N', 'T', 'A', 'B', 'U', 'J', 'W']	[2245, 1122, 904, 1587, 2911, 1224, 2670, 4000, 829, 1335, 1888, 697, 760, 2059, 1029, 2448]	8	Present	NA	NA	ABSENT	0.35787487030029297	470.9324700832367	472.9437460899353	473.5270884831413	473.8770894367957	477.0641028881073	4.120356798171997	[470.9552948474884, 471.0723509788513, 472.047425031662, 472.22357201576233, 472.9740869998932, 473.09098196029663, 473.207692861557, 473.32455706596375, 473.441241979599, 473.5580430030823, 473.6747670173645, 473.791650056839, 473.9083888530731, 474.0252368450165, 474.14217805862427, 474.25880789756775, 474.37565088272095, 474.492399930954, 474.6091978549957, 474.72601103782654, 474.8427519798279, 475.0641028881073]	[470.96023427829266, 471.0769009449527, 472.0599009449527, 472.2266009449527, 472.9766009449527, 473.0932676116127, 473.2099342782727, 473.32660094493275, 473.4432676115928, 473.5599342782528, 473.6766009449128, 473.79326761157284, 473.90993427823287, 474.0266009448929, 474.1432676115529, 474.25993427821294, 474.37660094487296, 474.493267611533, 474.609934278193, 474.72660094485303, 474.84326761151306, 475.0766009448464]	2021_Jan_29_1404	59.930100905030386	1	0.375
16	79	FALSE	NV	a	['H', 'W', 'Y', 'C', 'R', 'A', 'G', 'V', 'B', 'X', 'M', 'P', 'S', 'T', 'E', 'N']	[986, 2448, 2670, 829, 1587, 697, 944, 2245, 760, 4000, 1224, 1456, 1731, 1888, 904, 1335]	10	Present	NA	NA	ABSENT	0.11475205421447754	477.0559751987457	479.06017208099365	479.87684685384534	480.22684780749967	483.1804690361023	4.120296955108643	[477.07880091667175, 477.1951148509979, 478.16379404067993, 478.34637904167175, 479.0971429347992, 479.2139620780945, 479.3305299282074, 479.4474718570709, 479.5641839504242, 479.6811649799347, 479.7976830005646, 479.91447496414185, 480.0314860343933, 480.14817094802856, 480.2649710178375, 480.3817460536957, 480.4986810684204, 480.6155228614807, 480.7320499420166, 480.84879899024963, 480.9657678604126, 481.1804690361023]	[477.0766009448464, 477.1932676115064, 478.17626761150643, 478.3429676115064, 479.0929676115064, 479.20963427816645, 479.32630094482647, 479.4429676114865, 479.5596342781465, 479.67630094480654, 479.79296761146657, 479.9096342781266, 480.0263009447866, 480.14296761144664, 480.25963427810666, 480.3763009447667, 480.4929676114267, 480.60963427808673, 480.72630094474675, 480.8429676114068, 480.9596342780668, 481.19296761140015]	2021_Jan_29_1404	59.930100905030386	1	0.375
