participant	trial_num	practice	task	condition	RSVP	RAP	probePos	probe_presence	surprise_sound	surprise_img	probe_response	probe_resp_time	first_fixation_time	trial_start_time	surprise_start_time	probe_start_time	trial_end_time	trial_duration	actualEventTimes	plannedEventTimes	date	framerate	marker_vol	RAP_vol
16	1	FALSE	NV	v	['B', 'Y', 'G', 'N', 'A', 'P', 'W', 'H', 'E', 'J', 'C', 'X', 'R', 'K', 'V', 'M']	[760, 2670, 944, 1335, 697, 1456, 2448, 986, 904, 1029, 829, 4000, 1587, 1122, 2245, 1224]	12	Present	NA	NA	ABSENT	1.6554510593414309	1.9073486328125e-6	2.0023488998413086	3.051072835922241	3.401460886001587	6.1038689613342285	4.10152006149292	[0.0069980621337890625, 0.12340092658996582, 1.1078789234161377, 1.2745909690856934, 2.025270938873291, 2.1420929431915283, 2.2587080001831055, 2.375516891479492, 2.4922919273376465, 2.609031915664673, 2.7258620262145996, 2.8428099155426025, 2.959540843963623, 3.076418876647949, 3.1930408477783203, 3.309938907623291, 3.4267609119415283, 3.5435900688171387, 3.6601240634918213, 3.777021884918213, 3.877058982849121, 4.1038689613342285]	[9.5367431640625e-07, 0.11666762034098306, 1.099667620340983, 1.266367620340983, 2.016367620340983, 2.1330342870076495, 2.249700953674316, 2.366367620340983, 2.4830342870076496, 2.5997009536743163, 2.716367620340983, 2.8330342870076497, 2.9497009536743164, 3.066367620340983, 3.18303428700765, 3.2997009536743165, 3.416367620340983, 3.53303428700765, 3.6497009536743166, 3.7663676203409833, 3.88303428700765, 4.116367620340983]	2021_Jan_29_1427	59.96171534688498	1	1
16	2	FALSE	NA	v	['P', 'Y', 'N', 'C', 'B', 'G', 'R', 'T', 'W', 'J', 'E', 'S', 'X', 'Z', 'U', 'A']	[1456, 2670, 1335, 829, 760, 944, 1587, 1888, 2448, 1029, 904, 1731, 4000, 2911, 2059, 697]	13	Present	NA	NA	PRESENT	0.23637104034423828	6.106210947036743	8.11583399772644	9.282912969589232	9.634166955947876	12.22023606300354	4.1044020652771	[6.113208055496216, 6.22959303855896, 7.21373987197876, 7.380831003189087, 8.131430864334106, 8.248110055923462, 8.365078926086426, 8.481868982315063, 8.59850788116455, 8.715144872665405, 8.832252025604248, 8.948861837387085, 9.06566596031189, 9.182514905929565, 9.299186944961548, 9.415998935699463, 9.532815933227539, 9.649647951126099, 9.76631784439087, 9.883579015731812, 9.999841928482056, 10.220237016677856]	[6.116367620340983, 6.23303428700765, 7.216034287007649, 7.382734287007649, 8.132734287007649, 8.249400953674316, 8.366067620340983, 8.48273428700765, 8.599400953674317, 8.716067620340985, 8.832734287007652, 8.949400953674319, 9.066067620340986, 9.182734287007653, 9.29940095367432, 9.416067620340987, 9.532734287007655, 9.649400953674322, 9.766067620340989, 9.882734287007656, 9.999400953674323, 10.232734287007656]	2021_Jan_29_1427	59.96171534688498	1	1
16	3	FALSE	NN	v	['K', 'G', 'P', 'V', 'S', 'Y', 'T', 'W', 'N', 'B', 'E', 'C', 'J', 'A', 'H', 'M']	[1122, 944, 1456, 2245, 1731, 2670, 1888, 2448, 1335, 760, 904, 829, 1029, 697, 986, 1224]	12	Absent	NA	NA	ABSENT	0.4650259017944336	12.228641033172607	14.23258900642395	15.282579898834229	15.63268494606018	18.336601972579956	4.104012966156006	[12.235636949539185, 12.352238893508911, 13.336580038070679, 13.503352880477905, 14.254302024841309, 14.371091842651367, 14.487962007522583, 14.604707956314087, 14.72138786315918, 14.838149070739746, 14.955137968063354, 15.071840047836304, 15.188596963882446, 15.305393934249878, 15.421989917755127, 15.53883695602417, 15.655820846557617, 15.772364854812622, 15.889246940612793, 16.005981922149658, 16.122829914093018, 16.336601972579956]	[12.232734287007656, 12.349400953674323, 13.332400953674323, 13.499100953674324, 14.249100953674324, 14.365767620340991, 14.482434287007658, 14.599100953674325, 14.715767620340992, 14.83243428700766, 14.949100953674327, 15.065767620340994, 15.182434287007661, 15.299100953674328, 15.415767620340995, 15.532434287007662, 15.64910095367433, 15.765767620340997, 15.882434287007664, 15.999100953674331, 16.115767620340996, 16.34910095367433]	2021_Jan_29_1427	59.96171534688498	1	1
16	4	FALSE	NN	v	['V', 'R', 'A', 'N', 'E', 'M', 'Y', 'P', 'S', 'Z', 'T', 'U', 'W', 'B', 'C', 'K']	[2245, 1587, 697, 1335, 904, 1224, 2670, 1456, 1731, 2911, 1888, 2059, 2448, 760, 829, 1122]	13	Absent	NA	NA	ABSENT	0.12618589401245117	18.35128092765808	20.348790884017944	21.515583992004395	21.86555504798889	24.452970027923584	4.10417914390564	[18.35827898979187, 18.45849895477295, 19.442718982696533, 19.60953187942505, 20.377502918243408, 20.477001905441284, 20.593919038772583, 20.710656881332397, 20.82740306854248, 20.944313049316406, 21.061014890670776, 21.177872896194458, 21.294694900512695, 21.411386966705322, 21.52814292907715, 21.644964933395386, 21.76176905632019, 21.878578901290894, 21.995306968688965, 22.11212396621704, 22.22906804084778, 22.45296883583069]	[18.34910095367433, 18.465767620340998, 19.448767620341, 19.615467620340997, 20.365467620340997, 20.482134287007664, 20.59880095367433, 20.715467620341, 20.832134287007666, 20.948800953674333, 21.065467620341, 21.182134287007667, 21.298800953674334, 21.415467620341, 21.53213428700767, 21.648800953674336, 21.765467620341003, 21.88213428700767, 21.998800953674337, 22.115467620341004, 22.23213428700767, 22.465467620341006]	2021_Jan_29_1427	59.96171534688498	1	1
16	5	FALSE	NN	v	['Y', 'G', 'A', 'R', 'M', 'N', 'K', 'W', 'S', 'P', 'U', 'J', 'B', 'V', 'T', 'C']	[2670, 944, 697, 1587, 1224, 1335, 1122, 2448, 1731, 1456, 2059, 1029, 760, 2245, 1888, 829]	12	Absent	NA	NA	ABSENT	0.2825767993927002	24.45761799812317	26.46476697921753	27.515199899673465	27.865262985229492	30.569336891174316	4.104569911956787	[24.464616060256958, 24.581421852111816, 25.565621852874756, 25.732555866241455, 26.483381986618042, 26.600154876708984, 26.716709852218628, 26.833606004714966, 26.950403928756714, 27.067174911499023, 27.18398404121399, 27.30069088935852, 27.41746497154236, 27.53434991836548, 27.65126895904541, 27.768065929412842, 27.88456106185913, 28.001582860946655, 28.11823797225952, 28.23516583442688, 28.351785898208618, 28.5693359375]	[24.465467620341006, 24.582134287007673, 25.565134287007673, 25.731834287007672, 26.481834287007672, 26.59850095367434, 26.715167620341006, 26.831834287007673, 26.94850095367434, 27.065167620341008, 27.181834287007675, 27.298500953674342, 27.41516762034101, 27.531834287007676, 27.648500953674343, 27.76516762034101, 27.881834287007678, 27.998500953674345, 28.115167620341012, 28.23183428700768, 28.348500953674346, 28.58183428700768]	2021_Jan_29_1427	59.96171534688498	1	1
16	6	FALSE	NV	v	['E', 'P', 'Z', 'K', 'H', 'W', 'V', 'B', 'S', 'C', 'A', 'U', 'X', 'N', 'Y', 'T']	[904, 1456, 2911, 1122, 986, 2448, 2245, 760, 1731, 829, 697, 2059, 4000, 1335, 2670, 1888]	13	Present	NA	NA	PRESENT	0.10402584075927734	30.58083701133728	32.5813729763031	33.7486310005188	34.09828305244446	36.68570399284363	4.104331016540527	[30.587832927703857, 30.70419692993164, 31.688583850860596, 31.855530977249146, 32.6060049533844, 32.72285294532776, 32.83974003791809, 32.95664191246033, 33.07325196266174, 33.19011092185974, 33.30691885948181, 33.42367506027222, 33.54036903381348, 33.65708303451538, 33.773937940597534, 33.89077591896057, 34.00770688056946, 34.12434983253479, 34.241276025772095, 34.357698917388916, 34.45788884162903, 34.68570399284363]	[30.58183428700768, 30.698500953674348, 31.681500953674348, 31.848200953674347, 32.59820095367435, 32.71486762034102, 32.831534287007685, 32.94820095367435, 33.06486762034102, 33.181534287007686, 33.29820095367435, 33.41486762034102, 33.53153428700769, 33.648200953674355, 33.76486762034102, 33.88153428700769, 33.998200953674356, 34.11486762034102, 34.23153428700769, 34.34820095367436, 34.464867620341025, 34.69820095367436]	2021_Jan_29_1427	59.96171534688498	1	1
16	7	FALSE	NN	v	['S', 'N', 'U', 'B', 'R', 'A', 'M', 'G', 'P', 'H', 'W', 'Z', 'J', 'C', 'Y', 'K']	[1731, 1335, 2059, 760, 1587, 697, 1224, 944, 1456, 986, 2448, 2911, 1029, 829, 2670, 1122]	13	Absent	NA	NA	ABSENT	0.3165559768676758	36.6864378452301	38.69774603843689	39.864760875701904	40.21476197242737	42.80206990242005	4.104323863983154	[36.693434953689575, 36.810279846191406, 37.7947039604187, 37.96159791946411, 38.71208095550537, 38.8289270401001, 38.94587588310242, 39.06259894371033, 39.179484844207764, 39.2961950302124, 39.413166999816895, 39.529813051223755, 39.64664602279663, 39.76339387893677, 39.88029098510742, 39.99696588516235, 40.113759994506836, 40.23056697845459, 40.34734606742859, 40.46411085128784, 40.580769062042236, 40.802069902420044]	[36.69820095367436, 36.814867620341026, 37.79786762034102, 37.96456762034102, 38.71456762034102, 38.83123428700769, 38.947900953674356, 39.06456762034102, 39.18123428700769, 39.29790095367436, 39.414567620341025, 39.53123428700769, 39.64790095367436, 39.764567620341026, 39.88123428700769, 39.99790095367436, 40.11456762034103, 40.231234287007695, 40.34790095367436, 40.46456762034103, 40.581234287007696, 40.81456762034103]	2021_Jan_29_1427	59.96171534688498	1	1
16	8	FALSE	AA	v	['V', 'Z', 'K', 'W', 'G', 'J', 'surprise', 'U', 'R', 'X', 'T', 'E', 'N', 'S', 'H', 'M']	[2245, 2911, 1122, 2448, 944, 1029, 'stimAuditory/all_stimAuditory/202.wav', 2059, 1587, 4000, 1888, 904, 1335, 1731, 986, 1224]	10	Present	stimAuditory/all_stimAuditory/202.wav	stimVisual/all_stimVisual/206.jpg	ABSENT	0.5848829746246338	42.8095338344574	44.81411790847778	45.6311469078064	45.98122501373291	48.91843605041504	4.104318141937256	[42.816540002822876, 42.93313789367676, 43.917644023895264, 44.084399938583374, 44.835089921951294, 44.95188093185425, 45.06884002685547, 45.18548393249512, 45.30235290527344, 45.41905498504639, 45.55273103713989, 45.65254187583923, 45.769301891326904, 45.88623404502869, 46.003005027770996, 46.11977195739746, 46.23642587661743, 46.35341691970825, 46.47006893157959, 46.587005853652954, 46.703763008117676, 46.918437004089355]	[42.81456762034103, 42.9312342870077, 43.914234287007694, 44.08093428700769, 44.83093428700769, 44.94760095367436, 45.06426762034103, 45.180934287007695, 45.29760095367436, 45.41426762034103, 45.530934287007696, 45.64760095367436, 45.76426762034103, 45.8809342870077, 45.997600953674365, 46.11426762034103, 46.2309342870077, 46.347600953674366, 46.46426762034103, 46.5809342870077, 46.69760095367437, 46.9309342870077]	2021_Jan_29_1427	59.96171534688498	1	1
16	9	FALSE	NN	v	['A', 'R', 'T', 'P', 'C', 'Y', 'N', 'W', 'G', 'B', 'J', 'U', 'S', 'M', 'K', 'V']	[697, 1587, 1888, 1456, 829, 2670, 1335, 2448, 944, 760, 1029, 2059, 1731, 1224, 1122, 2245]	9	Absent	NA	NA	ABSENT	0.13448596000671387	48.93238091468811	50.930500984191895	51.63084387779236	51.980782985687256	55.034801959991455	4.1043009757995605	[48.93937706947327, 49.05623698234558, 50.02393293380737, 50.190446853637695, 50.95810389518738, 51.074913024902344, 51.19162583351135, 51.308318853378296, 51.42516589164734, 51.54189991950989, 51.65874791145325, 51.77561593055725, 51.892261028289795, 51.99215888977051, 52.10913586616516, 52.2258780002594, 52.34266185760498, 52.4592649936676, 52.576093912124634, 52.69289493560791, 52.80989694595337, 53.034801959991455]	[48.9309342870077, 49.04760095367437, 50.030600953674366, 50.197300953674365, 50.947300953674365, 51.06396762034103, 51.1806342870077, 51.297300953674366, 51.41396762034103, 51.5306342870077, 51.64730095367437, 51.763967620341035, 51.8806342870077, 51.99730095367437, 52.113967620341036, 52.2306342870077, 52.34730095367437, 52.46396762034104, 52.580634287007705, 52.69730095367437, 52.81396762034104, 53.04730095367437]	2021_Jan_29_1427	59.96171534688498	1	1
16	10	FALSE	NV	v	['G', 'R', 'N', 'M', 'S', 'E', 'V', 'K', 'A', 'X', 'W', 'Y', 'U', 'P', 'B', 'C']	[944, 1587, 1335, 1224, 1731, 904, 2245, 1122, 697, 4000, 2448, 2670, 2059, 1456, 760, 829]	10	Present	NA	NA	ABSENT	0.2669799327850342	55.03850197792053	57.046841859817505	57.863685846328735	58.21442198753357	61.15117001533508	4.104328155517578	[55.04549789428711, 55.16229200363159, 56.14633297920227, 56.31352496147156, 57.06406593322754, 57.180907011032104, 57.297576904296875, 57.41460990905762, 57.531327962875366, 57.64814901351929, 57.76471304893494, 57.88170003890991, 57.99847602844238, 58.115089893341064, 58.23210000991821, 58.34878993034363, 58.465492963790894, 58.582396030426025, 58.69907999038696, 58.81593203544617, 58.93254494667053, 59.1511709690094]	[55.04730095367437, 55.16396762034104, 56.14696762034104, 56.313667620341036, 57.063667620341036, 57.1803342870077, 57.29700095367437, 57.41366762034104, 57.530334287007705, 57.64700095367437, 57.76366762034104, 57.880334287007706, 57.99700095367437, 58.11366762034104, 58.23033428700771, 58.347000953674375, 58.46366762034104, 58.58033428700771, 58.697000953674376, 58.81366762034104, 58.93033428700771, 59.163667620341045]	2021_Jan_29_1427	59.96171534688498	1	1
16	11	FALSE	NA	v	['S', 'J', 'W', 'Z', 'K', 'C', 'G', 'Y', 'T', 'A', 'N', 'X', 'R', 'P', 'U', 'M']	[1731, 1029, 2448, 2911, 1122, 829, 944, 2670, 1888, 697, 1335, 4000, 1587, 1456, 2059, 1224]	12	Present	NA	NA	PRESENT	0.21648383140563965	61.16167402267456	63.163352966308594	64.21361589431763	64.56392002105713	67.2675359249115	4.104182958602905	[61.168670892715454, 61.28508496284485, 62.26940083503723, 62.436184883117676, 63.186893939971924, 63.30389595031738, 63.42036986351013, 63.53719401359558, 63.65407991409302, 63.771044969558716, 63.88784384727478, 64.00461506843567, 64.12105584144592, 64.23807287216187, 64.35493898391724, 64.4714469909668, 64.58827185630798, 64.7049789428711, 64.82194185256958, 64.93886804580688, 65.03871083259583, 65.26753687858582]	[61.163667620341045, 61.28033428700771, 62.26333428700771, 62.43003428700771, 63.18003428700771, 63.296700953674375, 63.41336762034104, 63.53003428700771, 63.646700953674376, 63.76336762034104, 63.88003428700771, 63.99670095367438, 64.11336762034104, 64.2300342870077, 64.34670095367436, 64.46336762034102, 64.58003428700768, 64.69670095367434, 64.813367620341, 64.93003428700766, 65.04670095367432, 65.28003428700765]	2021_Jan_29_1427	59.96171534688498	1	1
16	12	FALSE	NA	v	['Y', 'Z', 'U', 'P', 'M', 'W', 'A', 'S', 'H', 'N', 'C', 'X', 'E', 'J', 'B', 'G']	[2670, 2911, 2059, 1456, 1224, 2448, 697, 1731, 986, 1335, 829, 4000, 904, 1029, 760, 944]	12	Present	NA	NA	PRESENT	0.03684401512145996	67.26731586456299	69.27952194213867	70.32989192008972	70.67998504638672	73.38390398025513	4.104382038116455	[67.27431201934814, 67.39115905761719, 68.37549591064453, 68.5423469543457, 69.30970597267151, 69.40985488891602, 69.52652883529663, 69.64345383644104, 69.76028203964233, 69.8770399093628, 69.99375486373901, 70.11058497428894, 70.22728991508484, 70.34421396255493, 70.46086001396179, 70.57778787612915, 70.69456887245178, 70.81141805648804, 70.9282739162445, 71.04496383666992, 71.16168093681335, 71.38390398025513]	[67.28003428700765, 67.39670095367431, 68.37970095367432, 68.54640095367432, 69.29640095367432, 69.41306762034098, 69.52973428700764, 69.6464009536743, 69.76306762034096, 69.87973428700762, 69.99640095367428, 70.11306762034094, 70.2297342870076, 70.34640095367426, 70.46306762034092, 70.57973428700758, 70.69640095367424, 70.8130676203409, 70.92973428700756, 71.04640095367422, 71.16306762034088, 71.39640095367422]	2021_Jan_29_1427	59.96171534688498	1	1
16	13	FALSE	VV	v	['T', 'N', 'C', 'S', 'R', 'Z', 'B', 'G', 'surprise', 'Y', 'E', 'X', 'V', 'H', 'M', 'K']	[1888, 1335, 829, 1731, 1587, 2911, 760, 944, 'stimAuditory/all_stimAuditory/220.wav', 2670, 904, 4000, 2245, 986, 1224, 1122]	12	Present	NA	stimVisual/all_stimVisual/118.jpg	ABSENT	0.409175157546997	73.39024806022644	75.3959150314331	76.44623184204102	76.79620385169983	79.50026988983154	4.1043548583984375	[73.39724588394165, 73.51422095298767, 74.49853897094727, 74.66520690917969, 75.41595506668091, 75.53280997276306, 75.64937496185303, 75.76634407043457, 75.88309502601624, 75.9998779296875, 76.11669301986694, 76.28356885910034, 76.35006189346313, 76.46705889701843, 76.58376002311707, 76.70078706741333, 76.81737995147705, 76.93403887748718, 77.05097389221191, 77.16778683662415, 77.28460693359375, 77.50026893615723]	[73.39640095367422, 73.51306762034088, 74.49606762034088, 74.66276762034089, 75.41276762034089, 75.52943428700755, 75.6461009536742, 75.76276762034087, 75.87943428700753, 75.99610095367419, 76.11276762034085, 76.2294342870075, 76.34610095367417, 76.46276762034083, 76.57943428700749, 76.69610095367415, 76.81276762034081, 76.92943428700747, 77.04610095367413, 77.16276762034079, 77.27943428700745, 77.51276762034078]	2021_Jan_29_1427	59.96171534688498	1	1
16	14	FALSE	NN	v	['B', 'G', 'N', 'P', 'Z', 'H', 'M', 'W', 'J', 'Y', 'E', 'S', 'U', 'T', 'K', 'C']	[760, 944, 1335, 1456, 2911, 986, 1224, 2448, 1029, 2670, 904, 1731, 2059, 1888, 1122, 829]	14	Absent	NA	NA	ABSENT	0.30248403549194336	79.51293802261353	81.5122480392456	82.79583191871643	83.14600992202759	85.61663699150085	4.104388952255249	[79.51993489265442, 79.63689994812012, 80.6212739944458, 80.77125191688538, 81.53908395767212, 81.65573287010193, 81.7725658416748, 81.88929796218872, 82.00598001480103, 82.12265992164612, 82.23968291282654, 82.3561840057373, 82.47319006919861, 82.58982300758362, 82.70666885375977, 82.8232798576355, 82.94027900695801, 83.05699801445007, 83.17369103431702, 83.27382206916809, 83.3907790184021, 83.61663603782654]	[79.51276762034078, 79.62943428700744, 80.61243428700745, 80.77913428700745, 81.52913428700745, 81.64580095367411, 81.76246762034077, 81.87913428700743, 81.99580095367409, 82.11246762034075, 82.22913428700741, 82.34580095367407, 82.46246762034073, 82.57913428700739, 82.69580095367405, 82.81246762034071, 82.92913428700737, 83.04580095367403, 83.16246762034069, 83.27913428700735, 83.39580095367401, 83.62913428700735]	2021_Jan_29_1427	59.96171534688498	1	1
16	15	FALSE	NA	v	['Z', 'S', 'T', 'Y', 'V', 'K', 'U', 'E', 'C', 'X', 'N', 'M', 'W', 'B', 'R', 'H']	[2911, 1731, 1888, 2670, 2245, 1122, 2059, 904, 829, 4000, 1335, 1224, 2448, 760, 1587, 986]	10	Present	NA	NA	PRESENT	0.01106595993041992	85.61933898925781	87.62870287895203	88.4457049369812	88.79580903053284	91.73300290107728	4.104300022125244	[85.62633490562439, 85.74299693107605, 86.72726106643677, 86.8943350315094, 87.64477896690369, 87.76179099082947, 87.87843298912048, 87.99539685249329, 88.11201000213623, 88.2290768623352, 88.34551906585693, 88.46255993843079, 88.57921695709229, 88.69607400894165, 88.81269097328186, 88.92954587936401, 89.04630494117737, 89.16303205490112, 89.27996397018433, 89.39683604240417, 89.51349687576294, 89.73300385475159]	[85.62913428700735, 85.745800953674, 86.72880095367401, 86.89550095367402, 87.64550095367402, 87.76216762034068, 87.87883428700734, 87.995500953674, 88.11216762034066, 88.22883428700732, 88.34550095367398, 88.46216762034064, 88.5788342870073, 88.69550095367396, 88.81216762034062, 88.92883428700728, 89.04550095367394, 89.1621676203406, 89.27883428700726, 89.39550095367392, 89.51216762034058, 89.74550095367391]	2021_Jan_29_1427	59.96171534688498	1	1
16	16	FALSE	NV	v	['N', 'T', 'R', 'V', 'E', 'B', 'P', 'M', 'J', 'Z', 'Y', 'X', 'G', 'C', 'U', 'A']	[1335, 1888, 1587, 2245, 904, 760, 1456, 1224, 1029, 2911, 2670, 4000, 944, 829, 2059, 697]	12	Present	NA	NA	PRESENT	0.16762900352478027	91.74247789382936	93.74511098861694	94.79566597938538	95.14558386802672	97.84937000274658	4.104259014129639	[91.74947500228882, 91.86598086357117, 92.850270986557, 93.01704287528992, 93.76787400245667, 93.88476586341858, 94.00136184692383, 94.1180260181427, 94.23493599891663, 94.35173606872559, 94.46842002868652, 94.58535385131836, 94.70207190513611, 94.81904196739197, 94.93570804595947, 95.05251002311707, 95.16927599906921, 95.28585600852966, 95.4028308391571, 95.51949000358582, 95.63647794723511, 95.84936904907227]	[91.74550095367391, 91.86216762034057, 92.84516762034058, 93.01186762034058, 93.76186762034058, 93.87853428700724, 93.9952009536739, 94.11186762034056, 94.22853428700722, 94.34520095367388, 94.46186762034054, 94.5785342870072, 94.69520095367386, 94.81186762034052, 94.92853428700718, 95.04520095367384, 95.1618676203405, 95.27853428700716, 95.39520095367382, 95.51186762034048, 95.62853428700714, 95.86186762034048]	2021_Jan_29_1427	59.96171534688498	1	1
16	17	FALSE	NA	v	['R', 'U', 'W', 'S', 'A', 'Y', 'G', 'T', 'Z', 'X', 'P', 'K', 'B', 'E', 'H', 'V']	[1587, 2059, 2448, 1731, 697, 2670, 944, 1888, 2911, 4000, 1456, 1122, 760, 904, 986, 2245]	10	Present	NA	NA	PRESENT	0.00509595870971679	97.8481879234314	99.86153197288512	100.67845797538756	101.02870082855225	103.96573686599731	4.104204893112183	[97.85518383979797, 97.97196197509766, 98.95638489723206, 99.12331104278564, 99.8907470703125, 99.99064993858337, 100.10738492012024, 100.2242329120636, 100.34112596511841, 100.45764493942261, 100.57464289665222, 100.69126296043396, 100.80808591842651, 100.9253089427948, 101.04169297218323, 101.15868902206421, 101.27524089813232, 101.39227604866028, 101.50876593589783, 101.62570595741272, 101.74245095252991, 101.96573686599731]	[97.86186762034048, 97.97853428700714, 98.96153428700714, 99.12823428700715, 99.87823428700715, 99.9949009536738, 100.11156762034047, 100.22823428700713, 100.34490095367379, 100.46156762034045, 100.5782342870071, 100.69490095367377, 100.81156762034043, 100.92823428700709, 101.04490095367375, 101.1615676203404, 101.27823428700707, 101.39490095367373, 101.51156762034039, 101.62823428700705, 101.7449009536737, 101.97823428700704]	2021_Jan_29_1427	59.96171534688498	1	1
16	18	FALSE	NN	v	['E', 'N', 'Y', 'Z', 'B', 'P', 'R', 'V', 'G', 'A', 'M', 'H', 'C', 'K', 'S', 'W']	[904, 1335, 2670, 2911, 760, 1456, 1587, 2245, 944, 697, 1224, 986, 829, 1122, 1731, 2448]	8	Absent	NA	NA	ABSENT	0.345534086227417	103.97090983390808	105.97767806053162	106.56139993667604	106.911358833313	110.08210301399232	4.104424953460693	[103.97790789604187, 104.09484505653381, 105.07927989959717, 105.24606394767761, 105.99662899971008, 106.11359906196594, 106.23024296760559, 106.34701085090637, 106.4639539718628, 106.58084893226624, 106.69755005836487, 106.8142340183258, 106.93102502822876, 107.04783487319946, 107.16461706161499, 107.28132486343384, 107.39814186096191, 107.5150580406189, 107.63171195983887, 107.74844789505005, 107.86540603637695, 108.08210301399231]	[103.97823428700704, 104.0949009536737, 105.0779009536737, 105.24460095367371, 105.99460095367371, 106.11126762034037, 106.22793428700703, 106.34460095367369, 106.46126762034035, 106.57793428700701, 106.69460095367367, 106.81126762034033, 106.92793428700699, 107.04460095367365, 107.16126762034031, 107.27793428700697, 107.39460095367363, 107.51126762034029, 107.62793428700695, 107.74460095367361, 107.86126762034027, 108.0946009536736]	2021_Jan_29_1427	59.96171534688498	1	1
16	19	FALSE	VA	v	['V', 'S', 'Z', 'J', 'T', 'M', 'surprise', 'W', 'H', 'X', 'R', 'N', 'G', 'U', 'C', 'A']	[2245, 1731, 2911, 1029, 1888, 1224, 'stimAuditory/all_stimAuditory/205.wav', 2448, 986, 4000, 1587, 1335, 944, 2059, 829, 697]	10	Present	NA	stimVisual/all_stimVisual/212.jpg	PRESENT	0.28688788414001465	110.09375286102296	112.09451103210448	112.91110801696776	113.2611780166626	116.19846987724304	4.10395884513855	[110.1007490158081, 110.21760106086731, 111.20233988761902, 111.36885285377502, 112.1196448802948, 112.23641991615295, 112.35319399833679, 112.47001504898071, 112.58677697181702, 112.70339298248291, 112.82030701637268, 112.93707585334778, 113.0538158416748, 113.17061686515808, 113.28744006156921, 113.4042980670929, 113.52100586891174, 113.63777184486389, 113.75470685958862, 113.87133288383484, 113.97136902809143, 114.19846987724304]	[110.0946009536736, 110.21126762034027, 111.19426762034027, 111.36096762034028, 112.11096762034028, 112.22763428700694, 112.3443009536736, 112.46096762034026, 112.57763428700692, 112.69430095367358, 112.81096762034024, 112.9276342870069, 113.04430095367356, 113.16096762034022, 113.27763428700688, 113.39430095367354, 113.5109676203402, 113.62763428700686, 113.74430095367352, 113.86096762034018, 113.97763428700684, 114.21096762034017]	2021_Jan_29_1427	59.96171534688498	1	1
16	20	FALSE	NA	v	['J', 'W', 'C', 'N', 'E', 'M', 'Z', 'X', 'U', 'B', 'P', 'S', 'A', 'Y', 'T', 'H']	[1029, 2448, 829, 1335, 904, 1224, 2911, 4000, 2059, 760, 1456, 1731, 697, 2670, 1888, 986]	8	Present	NA	NA	PRESENT	0.27541399002075195	116.20016288757324	118.21054697036745	118.79419493675232	119.14417886734007	122.31483697891235	4.104290008544922	[116.20715999603271, 116.32383298873901, 117.30825304985046, 117.47493505477905, 118.22563099861145, 118.34258699417114, 118.45923495292664, 118.5762288570404, 118.69280004501343, 118.80963492393494, 118.92634987831116, 119.04333996772766, 119.15999984741211, 119.27687287330627, 119.39367890357971, 119.51045203208923, 119.62710499763489, 119.74391889572144, 119.86076498031616, 119.9774239063263, 120.0944299697876, 120.31483602523804]	[116.21096762034017, 116.32763428700683, 117.31063428700683, 117.47733428700684, 118.22733428700684, 118.3440009536735, 118.46066762034016, 118.57733428700682, 118.69400095367348, 118.81066762034014, 118.9273342870068, 119.04400095367346, 119.16066762034012, 119.27733428700678, 119.39400095367344, 119.5106676203401, 119.62733428700676, 119.74400095367342, 119.86066762034008, 119.97733428700674, 120.0940009536734, 120.32733428700674]	2021_Jan_29_1427	59.96171534688498	1	1
16	21	FALSE	NN	v	['T', 'N', 'P', 'H', 'S', 'J', 'A', 'U', 'M', 'Z', 'G', 'C', 'W', 'B', 'V', 'Y']	[1888, 1335, 1456, 986, 1731, 1029, 697, 2059, 1224, 2911, 944, 829, 2448, 760, 2245, 2670]	14	Absent	NA	NA	ABSENT	0.15204596519470215	122.32326793670654	124.32694697380066	125.61063385009766	125.96046185493468	128.43120288848877	4.10425591468811	[122.33026504516602, 122.44668292999268, 123.43114399909973, 123.59789490699768, 124.34846591949463, 124.46547889709473, 124.58213806152344, 124.69883394241333, 124.81575584411621, 124.93258285522461, 125.04933094978333, 125.16598200798035, 125.28271889686584, 125.39967703819275, 125.51652193069458, 125.63338685035706, 125.75014591217041, 125.86692404747009, 125.98350596427917, 126.100182056427, 126.21702694892883, 126.43120193481445]	[122.32733428700674, 122.4440009536734, 123.4270009536734, 123.5937009536734, 124.3437009536734, 124.46036762034007, 124.57703428700673, 124.69370095367339, 124.81036762034005, 124.9270342870067, 125.04370095367337, 125.16036762034003, 125.27703428700669, 125.39370095367335, 125.51036762034, 125.62703428700667, 125.74370095367333, 125.86036762033999, 125.97703428700665, 126.0937009536733, 126.21036762033997, 126.4437009536733]	2021_Jan_29_1427	59.96171534688498	1	1
16	22	FALSE	NA	v	['V', 'Y', 'T', 'J', 'G', 'Z', 'P', 'H', 'R', 'X', 'A', 'M', 'K', 'N', 'B', 'W']	[2245, 2670, 1888, 1029, 944, 2911, 1456, 986, 1587, 4000, 697, 1224, 1122, 1335, 760, 2448]	10	Present	NA	NA	PRESENT	0.00534510612487793	128.4456708431244	130.44327902793884	131.2603850364685	131.61070489883423	134.54756999015808	4.104290962219238	[128.45266795158386, 128.5526258945465, 129.53718304634094, 129.70388102531433, 130.47136187553406, 130.58819794654846, 130.70505905151367, 130.80485105514526, 130.9216890335083, 131.03858590126038, 131.1553988456726, 131.2721848487854, 131.38877987861633, 131.50567889213562, 131.62240195274353, 131.73916697502136, 131.8563928604126, 131.9727590084076, 132.08965492248535, 132.2063820362091, 132.32330083847046, 132.54756903648376]	[128.4437009536733, 128.56036762033997, 129.54336762033998, 129.71006762033997, 130.46006762033997, 130.57673428700664, 130.69340095367332, 130.81006762034, 130.92673428700667, 131.04340095367334, 131.16006762034002, 131.2767342870067, 131.39340095367336, 131.51006762034004, 131.6267342870067, 131.7434009536734, 131.86006762034006, 131.97673428700674, 132.0934009536734, 132.21006762034008, 132.32673428700676, 132.56006762034008]	2021_Jan_29_1427	59.96171534688498	1	1
16	23	FALSE	NN	v	['Z', 'S', 'E', 'Y', 'U', 'V', 'T', 'A', 'M', 'K', 'P', 'J', 'W', 'C', 'H', 'R']	[2911, 1731, 904, 2670, 2059, 2245, 1888, 697, 1224, 1122, 1456, 1029, 2448, 829, 986, 1587]	11	Absent	NA	NA	ABSENT	0.1697559356689453	134.55188584327698	136.55946588516235	137.4933159351349	137.84342885017395	140.6639368534088	4.10447096824646	[134.55888295173645, 134.67563486099243, 135.66000986099243, 135.82661199569702, 136.57745695114136, 136.69444394111633, 136.81105494499207, 136.92797899246216, 137.04468894004822, 137.16161489486694, 137.27832198143005, 137.39517283439636, 137.51192998886108, 137.62860488891602, 137.74537992477417, 137.86203002929688, 137.97897291183472, 138.09565591812134, 138.21250104904175, 138.32937383651733, 138.44620084762573, 138.6639368534088]	[134.56006762034008, 134.67673428700675, 135.65973428700676, 135.82643428700675, 136.57643428700675, 136.69310095367342, 136.8097676203401, 136.92643428700677, 137.04310095367345, 137.15976762034012, 137.2764342870068, 137.39310095367347, 137.50976762034014, 137.62643428700682, 137.7431009536735, 137.85976762034016, 137.97643428700684, 138.0931009536735, 138.2097676203402, 138.32643428700686, 138.44310095367354, 138.67643428700686]	2021_Jan_29_1427	59.96171534688498	1	1
16	24	FALSE	AV	v	['Z', 'Y', 'N', 'J', 'U', 'surprise', 'W', 'K', 'X', 'A', 'G', 'E', 'B', 'M', 'V', 'T']	[2911, 2670, 1335, 1029, 2059, 'stimAuditory/all_stimAuditory/109.wav', 2448, 1122, 4000, 697, 944, 904, 760, 1224, 2245, 1888]	9	Present	stimAuditory/all_stimAuditory/220.wav	stimVisual/all_stimVisual/100.jpg	ABSENT	0.14335179328918457	140.67478704452515	142.6759090423584	143.37667298316956	143.726322889328	146.78030395507812	4.104394912719727	[140.68178391456604, 140.7983169555664, 141.78294897079468, 141.94996786117554, 142.7003779411316, 142.81723403930664, 142.93410396575928, 143.05083990097046, 143.16757798194885, 143.2843189239502, 143.40126204490662, 143.5179319381714, 143.63456201553345, 143.75145602226257, 143.8683159351349, 143.98520302772522, 144.10181283950806, 144.21859097480774, 144.33525896072388, 144.45215892791748, 144.5520670413971, 144.7803030014038]	[140.67643428700686, 140.79310095367353, 141.77610095367353, 141.94280095367353, 142.69280095367353, 142.8094676203402, 142.92613428700687, 143.04280095367355, 143.15946762034022, 143.2761342870069, 143.39280095367357, 143.50946762034025, 143.62613428700692, 143.7428009536736, 143.85946762034027, 143.97613428700694, 144.09280095367362, 144.2094676203403, 144.32613428700697, 144.44280095367364, 144.5594676203403, 144.79280095367363]	2021_Jan_29_1427	59.96171534688498	1	1
16	25	FALSE	NV	v	['G', 'K', 'Z', 'N', 'E', 'C', 'Y', 'X', 'R', 'V', 'M', 'H', 'U', 'W', 'S', 'J']	[944, 1122, 2911, 1335, 904, 829, 2670, 4000, 1587, 2245, 1224, 986, 2059, 2448, 1731, 1029]	8	Present	NA	NA	ABSENT	0.29158592224121094	146.78086304664612	148.79222297668457	149.37598586082458	149.72638297080994	152.89666986465454	4.104446887969971	[146.7878589630127, 146.90473699569702, 147.88908100128174, 148.05582094192505, 148.82335090637207, 148.9233958721161, 149.04019784927368, 149.1567280292511, 149.27364706993103, 149.39052605628967, 149.50728797912598, 149.6239879131317, 149.74081206321716, 149.85770106315613, 149.9743468761444, 150.09101486206055, 150.20794486999512, 150.3246898651123, 150.44163990020752, 150.55829405784607, 150.67512702941895, 150.89666891098022]	[146.79280095367363, 146.9094676203403, 147.8924676203403, 148.0591676203403, 148.8091676203403, 148.92583428700698, 149.04250095367365, 149.15916762034033, 149.275834287007, 149.39250095367368, 149.50916762034035, 149.62583428700702, 149.7425009536737, 149.85916762034037, 149.97583428700705, 150.09250095367372, 150.2091676203404, 150.32583428700707, 150.44250095367374, 150.55916762034042, 150.6758342870071, 150.9091676203404]	2021_Jan_29_1427	59.96171534688498	1	1
16	26	FALSE	NV	v	['H', 'T', 'A', 'C', 'Y', 'P', 'B', 'E', 'M', 'K', 'X', 'U', 'N', 'R', 'Z', 'V']	[986, 1888, 697, 829, 2670, 1456, 760, 904, 1224, 1122, 4000, 2059, 1335, 1587, 2911, 2245]	11	Present	NA	NA	PRESENT	0.00820803642272949	152.9040009975433	154.90880703926086	155.84255385398865	156.1924159526825	159.01303601264954	4.104228973388672	[152.91099786758423, 153.02743196487427, 154.01168298721313, 154.17867588996887, 154.92928886413574, 155.04601788520813, 155.16303300857544, 155.27975296974182, 155.39654088020325, 155.51342797279358, 155.63016390800476, 155.74676394462585, 155.86361002922058, 155.98024106025696, 156.0972878932953, 156.21406602859497, 156.33083295822144, 156.44758892059326, 156.56444096565247, 156.68115901947021, 156.79802298545837, 157.01303505897522]	[152.9091676203404, 153.0258342870071, 154.0088342870071, 154.17553428700708, 154.92553428700708, 155.04220095367376, 155.15886762034043, 155.2755342870071, 155.39220095367378, 155.50886762034045, 155.62553428700713, 155.7422009536738, 155.85886762034048, 155.97553428700715, 156.09220095367382, 156.2088676203405, 156.32553428700717, 156.44220095367385, 156.55886762034052, 156.6755342870072, 156.79220095367387, 157.0255342870072]	2021_Jan_29_1427	59.96171534688498	1	1
16	27	FALSE	NA	v	['M', 'R', 'N', 'J', 'G', 'P', 'Z', 'A', 'X', 'W', 'U', 'Y', 'T', 'C', 'H', 'E']	[1224, 1587, 1335, 1029, 944, 1456, 2911, 697, 4000, 2448, 2059, 2670, 1888, 829, 986, 904]	9	Present	NA	NA	ABSENT	0.637347936630249	159.02647805213928	161.02521800994873	161.72542905807495	162.0754039287567	165.12940287590027	4.104184865951538	[159.03347396850586, 159.15009999275208, 160.11785984039307, 160.28465390205383, 161.05226492881775, 161.16900086402893, 161.28569197654724, 161.40257787704468, 161.51941585540771, 161.63629484176636, 161.75273489952087, 161.8695740699768, 161.98638486862183, 162.10330295562744, 162.20324993133545, 162.3199920654297, 162.45349788665771, 162.55350494384766, 162.67035794258118, 162.78711605072021, 162.90443396568298, 163.12940287590027]	[159.0255342870072, 159.14220095367386, 160.12520095367387, 160.29190095367386, 161.04190095367386, 161.15856762034053, 161.2752342870072, 161.39190095367388, 161.50856762034056, 161.62523428700723, 161.7419009536739, 161.85856762034058, 161.97523428700725, 162.09190095367393, 162.2085676203406, 162.32523428700728, 162.44190095367395, 162.55856762034063, 162.6752342870073, 162.79190095367397, 162.90856762034065, 163.14190095367397]	2021_Jan_29_1427	59.96171534688498	1	1
16	28	FALSE	NA	v	['M', 'N', 'U', 'R', 'T', 'K', 'V', 'X', 'S', 'P', 'C', 'Y', 'B', 'A', 'W', 'J']	[1224, 1335, 2059, 1587, 1888, 1122, 2245, 4000, 1731, 1456, 829, 2670, 760, 697, 2448, 1029]	8	Present	NA	NA	ABSENT	0.0981581211090088	165.1325809955597	167.1412389278412	167.72558093070984	168.07513403892517	171.24576902389526	4.104530096054077	[165.1395778656006, 165.2565598487854, 166.24089884757996, 166.40745902061462, 167.15825605392456, 167.27508091926575, 167.39199304580688, 167.50858688354492, 167.62563395500183, 167.74221301078796, 167.85901403427124, 167.9756510257721, 168.09269189834595, 168.20935893058777, 168.32632303237915, 168.44293999671936, 168.55986094474792, 168.6767349243164, 168.793212890625, 168.9101538658142, 169.02681589126587, 169.24576997756958]	[165.14190095367397, 165.25856762034064, 166.24156762034065, 166.40826762034064, 167.15826762034064, 167.2749342870073, 167.391600953674, 167.50826762034066, 167.62493428700733, 167.741600953674, 167.85826762034068, 167.97493428700736, 168.09160095367403, 168.2082676203407, 168.32493428700738, 168.44160095367405, 168.55826762034073, 168.6749342870074, 168.79160095367408, 168.90826762034075, 169.02493428700743, 169.25826762034075]	2021_Jan_29_1427	59.96171534688498	1	1
16	29	FALSE	NV	v	['G', 'W', 'V', 'S', 'C', 'J', 'H', 'M', 'Z', 'N', 'U', 'E', 'X', 'A', 'T', 'B']	[944, 2448, 2245, 1731, 829, 1029, 986, 1224, 2911, 1335, 2059, 904, 4000, 697, 1888, 760]	13	Present	NA	NA	PRESENT	0.09490704536437988	171.25544786453247	173.257572889328	174.42473983764648	174.7747359275818	177.3621368408203	4.10456395149231	[171.26244592666626, 171.3791160583496, 172.36361002922058, 172.53046488761902, 173.28153896331787, 173.39781093597412, 173.51480984687805, 173.63166904449463, 173.74841499328613, 173.86525797843933, 173.9819300174713, 174.09858083724976, 174.21542596817017, 174.33222699165344, 174.44896006584167, 174.56589102745056, 174.6825339794159, 174.79943585395813, 174.916081905365, 175.03315806388855, 175.14954805374146, 175.3621368408203]	[171.25826762034075, 171.37493428700742, 172.35793428700742, 172.52463428700742, 173.27463428700742, 173.3913009536741, 173.50796762034076, 173.62463428700744, 173.7413009536741, 173.8579676203408, 173.97463428700746, 174.09130095367414, 174.2079676203408, 174.32463428700748, 174.44130095367416, 174.55796762034083, 174.6746342870075, 174.79130095367418, 174.90796762034086, 175.02463428700753, 175.1413009536742, 175.37463428700752]	2021_Jan_29_1427	59.96171534688498	1	1
16	30	FALSE	NA	v	['W', 'Z', 'P', 'U', 'J', 'K', 'H', 'C', 'T', 'X', 'E', 'R', 'M', 'V', 'A', 'Y']	[2448, 2911, 1456, 2059, 1029, 1122, 986, 829, 1888, 4000, 904, 1587, 1224, 2245, 697, 2670]	10	Present	NA	NA	PRESENT	0.124006986618042	177.36149787902832	179.3740999698639	180.191575050354	180.54144191741943	183.4785039424896	4.104403972625732	[177.3684949874878, 177.48540997505188, 178.46954989433289, 178.63652801513672, 179.40391898155212, 179.50414204597473, 179.62069487571716, 179.7377209663391, 179.85432291030884, 179.97135090827942, 180.0879259109497, 180.20477199554443, 180.32176184654236, 180.43838000297546, 180.55526900291443, 180.6717939376831, 180.78879189491272, 180.90543293952942, 181.0223138332367, 181.13907384872437, 181.255961894989, 181.4785029888153]	[177.37463428700752, 177.4913009536742, 178.4743009536742, 178.6410009536742, 179.3910009536742, 179.50766762034087, 179.62433428700754, 179.74100095367422, 179.8576676203409, 179.97433428700757, 180.09100095367424, 180.2076676203409, 180.3243342870076, 180.44100095367426, 180.55766762034094, 180.6743342870076, 180.79100095367428, 180.90766762034096, 181.02433428700763, 181.1410009536743, 181.25766762034098, 181.4910009536743]	2021_Jan_29_1427	59.96171534688498	1	1
16	31	FALSE	VV	v	['M', 'Z', 'P', 'H', 'V', 'E', 'S', 'U', 'K', 'surprise', 'J', 'G', 'X', 'N', 'W', 'A']	[1224, 2911, 1456, 986, 2245, 904, 1731, 2059, 1122, 'stimAuditory/all_stimAuditory/112.wav', 1029, 944, 4000, 1335, 2448, 697]	13	Present	NA	stimVisual/all_stimVisual/113.jpg	ABSENT	0.31241798400878906	183.48487305641177	185.4907739162445	186.6577718257904	187.0076320171356	189.59486985206604	4.104095935821533	[183.49187088012695, 183.6081988811493, 184.5927529335022, 184.759507894516, 185.51022505760193, 185.6268858909607, 185.7437698841095, 185.86055302619934, 185.9774398803711, 186.094064950943, 186.21081399917603, 186.32761096954346, 186.44448590278625, 186.56114387512207, 186.67790389060974, 186.7948338985443, 186.91138887405396, 187.0283579826355, 187.14506006240845, 187.26199293136597, 187.37867093086243, 187.59486985206604]	[183.4910009536743, 183.60766762034098, 184.59066762034098, 184.75736762034097, 185.50736762034097, 185.62403428700765, 185.74070095367432, 185.857367620341, 185.97403428700767, 186.09070095367434, 186.20736762034102, 186.3240342870077, 186.44070095367437, 186.55736762034104, 186.67403428700771, 186.7907009536744, 186.90736762034106, 187.02403428700774, 187.1407009536744, 187.25736762034109, 187.37403428700776, 187.60736762034108]	2021_Jan_29_1427	59.96171534688498	1	1
16	32	FALSE	NN	v	['N', 'M', 'S', 'A', 'Z', 'R', 'J', 'V', 'C', 'P', 'Y', 'G', 'T', 'U', 'W', 'B']	[1335, 1224, 1731, 697, 2911, 1587, 1029, 2245, 829, 1456, 2670, 944, 1888, 2059, 2448, 760]	10	Absent	NA	NA	ABSENT	0.3177309036254883	189.60736393928528	191.6069679260254	192.4239959716797	192.77390789985657	195.71123695373535	4.104269027709961	[189.61436200141907, 189.73100805282593, 190.71533298492432, 190.88233995437622, 191.63294005393982, 191.74997997283936, 191.866446018219, 191.9834270477295, 192.10015487670898, 192.21699786186218, 192.33379793167114, 192.45056104660034, 192.567214012146, 192.68408703804016, 192.80080389976501, 192.91787886619568, 193.03431701660156, 193.15136885643005, 193.26803994178772, 193.38486790657043, 193.484876871109, 193.71123600006104]	[189.60736762034108, 189.72403428700775, 190.70703428700776, 190.87373428700775, 191.62373428700775, 191.74040095367442, 191.8570676203411, 191.97373428700777, 192.09040095367445, 192.20706762034112, 192.3237342870078, 192.44040095367447, 192.55706762034114, 192.67373428700782, 192.7904009536745, 192.90706762034117, 193.02373428700784, 193.14040095367451, 193.2570676203412, 193.37373428700786, 193.49040095367454, 193.72373428700786]	2021_Jan_29_1427	59.96171534688498	1	1
16	33	FALSE	NV	v	['Z', 'S', 'B', 'Y', 'P', 'T', 'A', 'J', 'H', 'U', 'G', 'X', 'N', 'M', 'E', 'R']	[2911, 1731, 760, 2670, 1456, 1888, 697, 1029, 986, 2059, 944, 4000, 1335, 1224, 904, 1587]	12	Present	NA	NA	PRESENT	0.13057994842529297	195.71333694458008	197.7232780456543	198.77356505393985	199.1236400604248	201.82760286331177	4.104324817657471	[195.72033405303955, 195.83723497390747, 196.82167100906372, 196.98841905593872, 197.73908686637878, 197.85581588745117, 197.97286987304688, 198.08941984176636, 198.20635986328125, 198.3232228755951, 198.4399449825287, 198.55664992332458, 198.6733419895172, 198.79010200500488, 198.90690398216248, 199.02377486228943, 199.14041185379028, 199.25739097595215, 199.37428998947144, 199.49088501930237, 199.60781383514404, 199.82760190963745]	[195.72373428700786, 195.84040095367453, 196.82340095367454, 196.99010095367453, 197.74010095367453, 197.8567676203412, 197.97343428700788, 198.09010095367455, 198.20676762034122, 198.3234342870079, 198.44010095367457, 198.55676762034125, 198.67343428700792, 198.7901009536746, 198.90676762034127, 199.02343428700794, 199.14010095367462, 199.2567676203413, 199.37343428700797, 199.49010095367464, 199.60676762034132, 199.84010095367464]	2021_Jan_29_1427	59.96171534688498	1	1
16	34	FALSE	NV	v	['S', 'A', 'E', 'Y', 'J', 'C', 'B', 'G', 'U', 'H', 'K', 'X', 'W', 'Z', 'N', 'V']	[1731, 697, 904, 2670, 1029, 829, 760, 944, 2059, 986, 1122, 4000, 2448, 2911, 1335, 2245]	12	Present	NA	NA	PRESENT	0.09507012367248537	201.8364179134369	203.8399338722229	204.8902440071106	205.2399899959564	207.94396901130676	4.104035139083862	[201.84341406822205, 201.96021485328674, 202.94469690322876, 203.1112470626831, 203.86201286315918, 203.9787449836731, 204.09560799598694, 204.21220684051514, 204.32924795150757, 204.4459159374237, 204.5628468990326, 204.67947697639465, 204.79644799232483, 204.91311383247375, 205.02995586395264, 205.14670991897583, 205.26349902153015, 205.38027596473694, 205.49687600135803, 205.6138060092926, 205.73071098327637, 205.94396996498108]	[201.84010095367464, 201.9567676203413, 202.9397676203413, 203.1064676203413, 203.8564676203413, 203.97313428700798, 204.08980095367465, 204.20646762034133, 204.323134287008, 204.43980095367468, 204.55646762034135, 204.67313428700803, 204.7898009536747, 204.90646762034137, 205.02313428700805, 205.13980095367472, 205.2564676203414, 205.37313428700807, 205.48980095367475, 205.60646762034142, 205.7231342870081, 205.9564676203414]	2021_Jan_29_1427	59.96171534688498	1	1
16	35	FALSE	NA	v	['E', 'S', 'U', 'M', 'H', 'V', 'C', 'N', 'A', 'R', 'Y', 'J', 'X', 'G', 'W', 'B']	[904, 1731, 2059, 1224, 986, 2245, 829, 1335, 697, 1587, 2670, 1029, 4000, 944, 2448, 760]	13	Present	NA	NA	PRESENT	0.03627610206604004	207.94230484962463	209.9560029506683	211.1230430603027	211.4730508327484	214.06033897399905	4.1043360233306885	[207.9493010044098, 208.06610798835754, 209.05056285858154, 209.21736598014832, 209.98475289344788, 210.0848309993744, 210.2015860080719, 210.31842398643494, 210.4351019859314, 210.55192303657532, 210.66870093345642, 210.785502910614, 210.902281999588, 211.01911187171936, 211.13587999343872, 211.2527139186859, 211.36943006515503, 211.48621702194214, 211.60292291641235, 211.71984887123108, 211.83668303489685, 212.0603358745575]	[207.9564676203414, 208.0731342870081, 209.0561342870081, 209.22283428700808, 209.97283428700808, 210.08950095367476, 210.20616762034143, 210.3228342870081, 210.43950095367478, 210.55616762034145, 210.67283428700813, 210.7895009536748, 210.90616762034148, 211.02283428700815, 211.13950095367483, 211.2561676203415, 211.37283428700817, 211.48950095367485, 211.60616762034152, 211.7228342870082, 211.83950095367487, 212.0728342870082]	2021_Jan_29_1427	59.96171534688498	1	1
16	36	FALSE	NV	v	['M', 'G', 'Z', 'W', 'H', 'K', 'U', 'V', 'X', 'B', 'C', 'E', 'N', 'Y', 'T', 'S']	[1224, 944, 2911, 2448, 986, 1122, 2059, 2245, 4000, 760, 829, 904, 1335, 2670, 1888, 1731]	9	Present	NA	NA	PRESENT	0.12097501754760742	214.06562995910645	216.0722858905792	216.77279686927795	217.1227788925171	220.1767020225525	4.104416131973267	[214.07262587547302, 214.1890869140625, 215.17325901985168, 215.34026098251343, 216.09103298187256, 216.20773601531982, 216.32460284233093, 216.44133591651917, 216.55816292762756, 216.67492604255676, 216.79182195663452, 216.90839099884033, 217.02506589889526, 217.14198184013367, 217.2588300704956, 217.37575483322144, 217.49246287345886, 217.6091480255127, 217.72594285011292, 217.84271597862244, 217.9596140384674, 218.17670392990112]	[214.0728342870082, 214.18950095367487, 215.17250095367487, 215.33920095367486, 216.08920095367486, 216.20586762034154, 216.3225342870082, 216.43920095367488, 216.55586762034156, 216.67253428700823, 216.7892009536749, 216.90586762034158, 217.02253428700826, 217.13920095367493, 217.2558676203416, 217.37253428700828, 217.48920095367495, 217.60586762034163, 217.7225342870083, 217.83920095367498, 217.95586762034165, 218.18920095367497]	2021_Jan_29_1427	59.96171534688498	1	1
16	37	FALSE	VN	v	['R', 'V', 'N', 'J', 'surprise', 'M', 'P', 'Y', 'U', 'G', 'W', 'T', 'A', 'H', 'S', 'K']	[1587, 2245, 1335, 1029, 'stimAuditory/all_stimAuditory/210.wav', 1224, 1456, 2670, 2059, 944, 2448, 1888, 697, 986, 1731, 1122]	8	Absent	NA	stimVisual/all_stimVisual/220.jpg	PRESENT	0.14226508140563965	220.18799686431885	222.188640832901	222.77248001098633	223.12259793281555	226.2930698394775	4.104429006576538	[220.19499492645264, 220.3119978904724, 221.29629397392273, 221.46318888664246, 222.21373295783997, 222.33050894737244, 222.44736790657043, 222.56426095962524, 222.6808478832245, 222.7977259159088, 222.914381980896, 223.03147888183594, 223.1482229232788, 223.26494884490967, 223.38169288635254, 223.4985589981079, 223.61526894569397, 223.7319679260254, 223.84894704818726, 223.96549201011658, 224.0657720565796, 224.29306983947754]	[220.18920095367497, 220.30586762034164, 221.28886762034165, 221.45556762034164, 222.20556762034164, 222.3222342870083, 222.438900953675, 222.55556762034166, 222.67223428700834, 222.788900953675, 222.90556762034169, 223.02223428700836, 223.13890095367503, 223.2555676203417, 223.37223428700838, 223.48890095367506, 223.60556762034173, 223.7222342870084, 223.83890095367508, 223.95556762034175, 224.07223428700843, 224.30556762034175]	2021_Jan_29_1427	59.96171534688498	1	1
16	38	FALSE	NN	v	['V', 'Y', 'P', 'T', 'J', 'K', 'E', 'S', 'M', 'N', 'H', 'Z', 'W', 'C', 'G', 'A']	[2245, 2670, 1456, 1888, 1029, 1122, 904, 1731, 1224, 1335, 986, 2911, 2448, 829, 944, 697]	8	Absent	NA	NA	ABSENT	0.4185140132904053	226.2943329811096	228.30515789985657	228.88882994651792	229.2388620376587	232.40943694114685	4.104279041290283	[226.3013298511505, 226.41787791252136, 227.40250992774963, 227.56917595863342, 228.31982493400574, 228.4368920326233, 228.5536069869995, 228.67017197608948, 228.78714084625244, 228.90386700630188, 229.02065587043762, 229.13741087913513, 229.25429797172546, 229.37107300758362, 229.48788905143738, 229.60459995269775, 229.72127485275269, 229.83817100524902, 229.9549970626831, 230.0717589855194, 230.18861985206604, 230.40943598747253]	[226.30556762034175, 226.42223428700842, 227.40523428700843, 227.57193428700842, 228.32193428700842, 228.4386009536751, 228.55526762034177, 228.67193428700844, 228.78860095367511, 228.9052676203418, 229.02193428700846, 229.13860095367514, 229.2552676203418, 229.3719342870085, 229.48860095367516, 229.60526762034183, 229.7219342870085, 229.83860095367518, 229.95526762034186, 230.07193428700853, 230.1886009536752, 230.42193428700853]	2021_Jan_29_1427	59.96171534688498	1	1
16	39	FALSE	NV	v	['C', 'P', 'M', 'S', 'U', 'H', 'R', 'G', 'V', 'Z', 'N', 'Y', 'B', 'X', 'A', 'J']	[829, 1456, 1224, 1731, 2059, 986, 1587, 944, 2245, 2911, 1335, 2670, 760, 4000, 697, 1029]	14	Present	NA	NA	PRESENT	0.19929194450378415	232.4172739982605	234.42155504226685	235.7057168483734	236.0552449226379	238.52580285072327	4.104247808456421	[232.42426991462708, 232.54080486297607, 233.52527904510498, 233.6921899318695, 234.44312596321106, 234.5597698688507, 234.67643404006958, 234.7932469844818, 234.91004705429077, 235.02674198150635, 235.14340686798096, 235.26022696495056, 235.37690901756287, 235.49399495124817, 235.61073803901672, 235.72758984565735, 235.84434604644775, 235.96108603477478, 236.07771492004395, 236.19455194473267, 236.31153988838196, 236.52580285072327]	[232.42193428700853, 232.5386009536752, 233.5216009536752, 233.6883009536752, 234.4383009536752, 234.55496762034187, 234.67163428700854, 234.78830095367522, 234.9049676203419, 235.02163428700857, 235.13830095367524, 235.25496762034192, 235.3716342870086, 235.48830095367526, 235.60496762034194, 235.7216342870086, 235.8383009536753, 235.95496762034196, 236.07163428700864, 236.1883009536753, 236.30496762034198, 236.5383009536753]	2021_Jan_29_1427	59.96171534688498	1	1
16	40	FALSE	NA	v	['P', 'A', 'M', 'Y', 'J', 'U', 'R', 'X', 'C', 'V', 'W', 'B', 'N', 'S', 'Z', 'H']	[1456, 697, 1224, 2670, 1029, 2059, 1587, 4000, 829, 2245, 2448, 760, 1335, 1731, 2911, 986]	8	Present	NA	NA	PRESENT	0.06064319610595703	238.53982400894165	240.5377209186554	241.12171483039856	241.47152590751648	244.64216995239255	4.104449033737183	[238.54681992530823, 238.66375303268433, 239.63124299049377, 239.79820489883423, 240.56559205055237, 240.68256497383118, 240.79908299446106, 240.91593098640442, 241.03291988372803, 241.14974904060364, 241.24956893920898, 241.3663558959961, 241.48304200172424, 241.59990000724792, 241.7166349887848, 241.83345699310303, 241.95026087760925, 242.06702303886414, 242.18385696411133, 242.30064702033997, 242.41754388809204, 242.64216995239258]	[238.5383009536753, 238.65496762034198, 239.63796762034198, 239.80466762034197, 240.55466762034197, 240.67133428700865, 240.78800095367532, 240.904667620342, 241.02133428700867, 241.13800095367534, 241.25466762034202, 241.3713342870087, 241.48800095367537, 241.60466762034204, 241.72133428700872, 241.8380009536754, 241.95466762034206, 242.07133428700874, 242.1880009536754, 242.3046676203421, 242.42133428700876, 242.65466762034208]	2021_Jan_29_1427	59.96171534688498	1	1
16	41	FALSE	VA	v	['R', 'A', 'B', 'K', 'J', 'M', 'surprise', 'N', 'V', 'X', 'U', 'E', 'C', 'T', 'S', 'H']	[1587, 697, 760, 1122, 1029, 1224, 'stimAuditory/all_stimAuditory/218.wav', 1335, 2245, 4000, 2059, 904, 829, 1888, 1731, 986]	10	Present	NA	stimVisual/all_stimVisual/116.jpg	PRESENT	0.7449820041656494	244.64639401435852	246.65415501594543	247.4715600013733	247.82121801376343	250.7585370540619	4.104382038116455	[244.6533899307251, 244.76976203918457, 245.75424790382385, 245.92113590240479, 246.67168998718262, 246.78865694999695, 246.90532684326172, 247.02216506004333, 247.13887286186218, 247.25568985939026, 247.38915085792542, 247.48922085762024, 247.60600590705872, 247.722825050354, 247.83953595161438, 247.95653891563416, 248.07313704490662, 248.1901068687439, 248.30678296089172, 248.4235908985138, 248.54048490524292, 248.7585370540619]	[244.65466762034208, 244.77133428700876, 245.75433428700876, 245.92103428700875, 246.67103428700875, 246.78770095367543, 246.9043676203421, 247.02103428700877, 247.13770095367545, 247.25436762034212, 247.3710342870088, 247.48770095367547, 247.60436762034215, 247.72103428700882, 247.8377009536755, 247.95436762034217, 248.07103428700884, 248.18770095367552, 248.3043676203422, 248.42103428700887, 248.53770095367554, 248.77103428700886]	2021_Jan_29_1427	59.96171534688498	1	1
16	42	FALSE	NA	v	['U', 'V', 'K', 'S', 'R', 'A', 'N', 'Z', 'J', 'X', 'Y', 'B', 'E', 'T', 'H', 'C']	[2059, 2245, 1122, 1731, 1587, 697, 1335, 2911, 1029, 4000, 2670, 760, 904, 1888, 986, 829]	10	Present	NA	NA	PRESENT	0.0865318775177002	250.76908493041992	252.770623922348	253.5876748561859	253.9375250339508	256.8749029636383	4.104279041290283	[250.77609300613403, 250.89281797409058, 251.87724494934082, 252.04381799697876, 252.7947289943695, 252.91143894195557, 253.0282199382782, 253.1450788974762, 253.26171898841858, 253.37859797477722, 253.49517798423767, 253.61196088790894, 253.72890996932983, 253.84604692459106, 253.9626739025116, 254.07942390441895, 254.19598197937012, 254.31285405158997, 254.42969703674316, 254.54641890525818, 254.64646291732788, 254.874902009964]	[250.77103428700886, 250.88770095367553, 251.87070095367554, 252.03740095367553, 252.78740095367553, 252.9040676203422, 253.02073428700888, 253.13740095367555, 253.25406762034223, 253.3707342870089, 253.48740095367558, 253.60406762034225, 253.72073428700892, 253.8374009536756, 253.95406762034227, 254.07073428700895, 254.18740095367562, 254.3040676203423, 254.42073428700897, 254.53740095367564, 254.65406762034232, 254.88740095367564]	2021_Jan_29_1427	59.96171534688498	1	1
16	43	FALSE	NA	v	['E', 'R', 'P', 'H', 'U', 'T', 'A', 'N', 'Y', 'X', 'M', 'C', 'Z', 'J', 'B', 'W']	[904, 1587, 1456, 986, 2059, 1888, 697, 1335, 2670, 4000, 1224, 829, 2911, 1029, 760, 2448]	10	Present	NA	NA	PRESENT	0.09091711044311523	256.8751699924469	258.88698387145996	259.7039258480072	260.0539598464966	262.9912700653076	4.104286193847656	[256.8821659088135, 256.99879693984985, 257.9830448627472, 258.15017795562744, 258.9173698425293, 259.0175528526306, 259.13449788093567, 259.25106287002563, 259.36811804771423, 259.4848129749298, 259.6015419960022, 259.71822786331177, 259.8350758552551, 259.951868057251, 260.06844902038574, 260.1854820251465, 260.3020849227905, 260.41908288002014, 260.5358610153198, 260.65254402160645, 260.7692768573761, 260.9912700653076]	[256.88740095367564, 257.0040676203423, 257.9870676203423, 258.1537676203423, 258.9037676203423, 259.020434287009, 259.13710095367566, 259.25376762034233, 259.370434287009, 259.4871009536757, 259.60376762034235, 259.720434287009, 259.8371009536757, 259.9537676203424, 260.07043428700905, 260.1871009536757, 260.3037676203424, 260.4204342870091, 260.53710095367575, 260.6537676203424, 260.7704342870091, 261.00376762034244]	2021_Jan_29_1427	59.96171534688498	1	1
16	44	FALSE	NN	v	['V', 'A', 'W', 'P', 'E', 'U', 'B', 'J', 'C', 'G', 'T', 'K', 'Z', 'H', 'R', 'S']	[2245, 697, 2448, 1456, 904, 2059, 760, 1029, 829, 944, 1888, 1122, 2911, 986, 1587, 1731]	12	Absent	NA	NA	ABSENT	0.6073660850524902	262.9980478286743	265.0032880306244	266.05361890792847	266.4036078453064	269.10763692855835	4.10434889793396	[263.0050439834595, 263.12161588668823, 264.10644483566284, 264.27296686172485, 265.0234429836273, 265.14035987854004, 265.25709295272827, 265.3739619255066, 265.49090099334717, 265.60763001441956, 265.72448205947876, 265.84127497673035, 265.95781898498535, 266.07480096817017, 266.1915979385376, 266.3083529472351, 266.4250738620758, 266.5417568683624, 266.6586420536041, 266.77557706832886, 266.8922679424286, 267.10763692855835]	[263.00376762034244, 263.1204342870091, 264.1034342870091, 264.2701342870091, 265.0201342870091, 265.1368009536758, 265.25346762034246, 265.37013428700914, 265.4868009536758, 265.6034676203425, 265.72013428700916, 265.83680095367583, 265.9534676203425, 266.0701342870092, 266.18680095367586, 266.30346762034253, 266.4201342870092, 266.5368009536759, 266.65346762034255, 266.7701342870092, 266.8868009536759, 267.12013428700925]	2021_Jan_29_1427	59.96171534688498	1	1
16	45	FALSE	NV	v	['C', 'T', 'U', 'V', 'B', 'M', 'P', 'X', 'S', 'H', 'Z', 'W', 'N', 'Y', 'G', 'K']	[829, 1888, 2059, 2245, 760, 1224, 1456, 4000, 1731, 986, 2911, 2448, 1335, 2670, 944, 1122]	8	Present	NA	NA	PRESENT	0.4685659408569336	269.12063002586365	271.1194980144501	271.7033939361572	272.0534930229187	275.22400403022766	4.104506015777588	[269.12762689590454, 269.2446050643921, 270.2120189666748, 270.3788409233093, 271.14640188217163, 271.2631528377533, 271.3801019191742, 271.4969308376312, 271.6135320663452, 271.73050689697266, 271.84723591804504, 271.96414399147034, 272.0807478427887, 272.1973969936371, 272.31435203552246, 272.4310998916626, 272.54772305488586, 272.664666891098, 272.76462388038635, 272.89845299720764, 272.99840784072876, 273.22400283813477]	[269.12013428700925, 269.2368009536759, 270.21980095367593, 270.3865009536759, 271.1365009536759, 271.2531676203426, 271.36983428700927, 271.48650095367594, 271.6031676203426, 271.7198342870093, 271.83650095367597, 271.95316762034264, 272.0698342870093, 272.186500953676, 272.30316762034266, 272.41983428700934, 272.536500953676, 272.6531676203427, 272.76983428700936, 272.88650095367603, 273.0031676203427, 273.23650095367606]	2021_Jan_29_1427	59.96171534688498	1	1
16	46	FALSE	NV	v	['S', 'P', 'A', 'K', 'G', 'V', 'W', 'X', 'C', 'M', 'T', 'E', 'Y', 'Z', 'U', 'R']	[1731, 1456, 697, 1122, 944, 2245, 2448, 4000, 829, 1224, 1888, 904, 2670, 2911, 2059, 1587]	8	Present	NA	NA	PRESENT	0.08928680419921875	275.22731590270996	277.2359359264374	277.819650888443	278.17029190063477	281.3403699398041	4.104434013366699	[275.23431301116943, 275.3507058620453, 276.33511304855347, 276.5020229816437, 277.25248289108276, 277.36951899528503, 277.4863119125366, 277.60303688049316, 277.7196090221405, 277.8366799354553, 277.95346188545227, 278.07009387016296, 278.18686604499817, 278.30372285842896, 278.42061495780945, 278.5372920036316, 278.6549949645996, 278.77067494392395, 278.8876419067383, 279.0044448375702, 279.121062040329, 279.3403699398041]	[275.23650095367606, 275.35316762034273, 276.33616762034274, 276.5028676203427, 277.2528676203427, 277.3695342870094, 277.4862009536761, 277.60286762034275, 277.7195342870094, 277.8362009536761, 277.9528676203428, 278.06953428700945, 278.1862009536761, 278.3028676203428, 278.41953428700947, 278.53620095367614, 278.6528676203428, 278.7695342870095, 278.88620095367617, 279.00286762034284, 279.1195342870095, 279.35286762034286]	2021_Jan_29_1427	59.96171534688498	1	1
16	47	FALSE	NV	v	['H', 'A', 'J', 'Z', 'P', 'E', 'T', 'R', 'X', 'U', 'K', 'N', 'C', 'G', 'V', 'B']	[986, 697, 1029, 2911, 1456, 904, 1888, 1587, 4000, 2059, 1122, 1335, 829, 944, 2245, 760]	9	Present	NA	NA	PRESENT	0.19795799255371097	281.34992003440857	283.3523998260498	284.0527698993683	284.40268087387085	287.4567370414734	4.104337215423584	[281.35691690444946, 281.4735369682312, 282.45779395103455, 282.6247138977051, 283.3753559589386, 283.4923949241638, 283.6089789867401, 283.7259030342102, 283.8426959514618, 283.959352016449, 284.07624197006226, 284.1928918361664, 284.30968403816223, 284.42647099494934, 284.54332399368286, 284.6600270271301, 284.77694606781006, 284.89388704299927, 285.01062393188477, 285.12733483314514, 285.24404406547546, 285.4567358493805]	[281.35286762034286, 281.46953428700954, 282.45253428700954, 282.61923428700953, 283.36923428700953, 283.4859009536762, 283.6025676203429, 283.71923428700956, 283.83590095367623, 283.9525676203429, 284.0692342870096, 284.18590095367625, 284.3025676203429, 284.4192342870096, 284.5359009536763, 284.65256762034295, 284.7692342870096, 284.8859009536763, 285.002567620343, 285.11923428700965, 285.2359009536763, 285.46923428700967]	2021_Jan_29_1427	59.96171534688498	1	1
16	48	FALSE	NV	v	['R', 'E', 'U', 'N', 'S', 'H', 'Z', 'B', 'G', 'X', 'V', 'A', 'M', 'T', 'Y', 'C']	[1587, 904, 2059, 1335, 1731, 986, 2911, 760, 944, 4000, 2245, 697, 1224, 1888, 2670, 829]	10	Present	NA	NA	PRESENT	0.07506513595581055	287.4557800292969	289.4686698913574	290.28586292266846	290.6358850002289	293.5731019973755	4.104432106018066	[287.46277594566345, 287.5797190666199, 288.56402492523193, 288.73087191581726, 289.4982349872589, 289.59826397895813, 289.71504187583923, 289.8318519592285, 289.9486608505249, 290.065486907959, 290.1822669506073, 290.29916286468506, 290.41585206985474, 290.5327339172363, 290.649533033371, 290.7663559913635, 290.8829460144043, 290.99991488456726, 291.1165578365326, 291.23353099823, 291.35024189949036, 291.5731029510498]	[287.46923428700967, 287.58590095367634, 288.56890095367635, 288.73560095367634, 289.48560095367634, 289.602267620343, 289.7189342870097, 289.83560095367636, 289.95226762034304, 290.0689342870097, 290.1856009536764, 290.30226762034306, 290.41893428700973, 290.5356009536764, 290.6522676203431, 290.76893428700976, 290.88560095367643, 291.0022676203431, 291.1189342870098, 291.23560095367645, 291.3522676203431, 291.5856009536765]	2021_Jan_29_1427	59.96171534688498	1	1
16	49	FALSE	VA	v	['K', 'B', 'T', 'G', 'C', 'S', 'W', 'M', 'N', 'H', 'surprise', 'U', 'R', 'X', 'J', 'P']	[1122, 760, 1888, 944, 829, 1731, 2448, 1224, 1335, 986, 'stimAuditory/all_stimAuditory/120.wav', 2059, 1587, 4000, 1029, 1456]	14	Present	NA	stimVisual/all_stimVisual/222.jpg	PRESENT	0.6715400218963623	293.57885098457336	295.58528995513916	296.8688108921051	297.21878695487976	299.6894688606262	4.1041789054870605	[293.58584690093994, 293.7025909423828, 294.68702697753906, 294.8541419506073, 295.60448002815247, 295.72133803367615, 295.8382170200348, 295.95478892326355, 296.0715579986572, 296.18854999542236, 296.30516505241394, 296.42189288139343, 296.5387189388275, 296.65572690963745, 296.78894805908203, 296.8893060684204, 297.00595688819885, 297.1226899623871, 297.23951601982117, 297.35626196861267, 297.4731409549713, 297.6894688606262]	[293.5856009536765, 293.70226762034315, 294.68526762034315, 294.85196762034315, 295.60196762034315, 295.7186342870098, 295.8353009536765, 295.95196762034317, 296.06863428700984, 296.1853009536765, 296.3019676203432, 296.41863428700987, 296.53530095367654, 296.6519676203432, 296.7686342870099, 296.88530095367656, 297.00196762034324, 297.1186342870099, 297.2353009536766, 297.35196762034326, 297.46863428700993, 297.7019676203433]	2021_Jan_29_1427	59.96171534688498	1	1
16	50	FALSE	NN	v	['K', 'T', 'V', 'B', 'G', 'Y', 'C', 'Z', 'H', 'A', 'J', 'N', 'P', 'E', 'M', 'U']	[1122, 1888, 2245, 760, 944, 2670, 829, 2911, 986, 697, 1029, 1335, 1456, 904, 1224, 2059]	10	Absent	NA	NA	ABSENT	0.4929368495941162	299.70153999328613	301.70164704322815	302.51853489875793	302.86852192878723	305.80583691596985	4.104189872741699	[299.708536863327, 299.82561206817627, 300.8098030090332, 300.9765169620514, 301.72732496261597, 301.84419202804565, 301.9610559940338, 302.07761096954346, 302.19455194473267, 302.3111789226532, 302.4280300140381, 302.5448570251465, 302.6616220474243, 302.7783958911896, 302.89527797698975, 303.0118889808655, 303.12885093688965, 303.24568605422974, 303.36239099502563, 303.47908902168274, 303.57924699783325, 303.80583691596985]	[299.7019676203433, 299.81863428700996, 300.80163428700996, 300.96833428700995, 301.71833428700995, 301.8350009536766, 301.9516676203433, 302.06833428701, 302.18500095367665, 302.3016676203433, 302.41833428701, 302.5350009536767, 302.65166762034335, 302.76833428701, 302.8850009536767, 303.00166762034337, 303.11833428701004, 303.2350009536767, 303.3516676203434, 303.46833428701007, 303.58500095367674, 303.8183342870101]	2021_Jan_29_1427	59.96171534688498	1	1
16	51	FALSE	NV	v	['S', 'T', 'N', 'W', 'A', 'P', 'K', 'J', 'Y', 'X', 'V', 'H', 'E', 'U', 'B', 'M']	[1731, 1888, 1335, 2448, 697, 1456, 1122, 1029, 2670, 4000, 2245, 986, 904, 2059, 760, 1224]	10	Present	NA	NA	PRESENT	0.02556514739990234	305.80808305740356	307.81775283813477	308.63500690460205	308.9852590560913	311.92220306396484	4.104450225830078	[305.81507992744446, 305.9315378665924, 306.9159460067749, 307.0828058719635, 307.83328890800476, 307.95038890838623, 308.06691098213196, 308.18396401405334, 308.300577878952, 308.41748905181885, 308.5341489315033, 308.6507799625397, 308.76761984825134, 308.88460087776184, 309.0012409687042, 309.1180489063263, 309.2348759174347, 309.3515930175781, 309.4685230255127, 309.5851969718933, 309.7020699977875, 309.92220306396484]	[305.8183342870101, 305.93500095367676, 306.91800095367677, 307.08470095367676, 307.83470095367676, 307.95136762034343, 308.0680342870101, 308.1847009536768, 308.30136762034346, 308.41803428701013, 308.5347009536768, 308.6513676203435, 308.76803428701015, 308.8847009536768, 309.0013676203435, 309.1180342870102, 309.23470095367685, 309.3513676203435, 309.4680342870102, 309.5847009536769, 309.70136762034355, 309.9347009536769]	2021_Jan_29_1427	59.96171534688498	1	1
16	52	FALSE	NV	v	['W', 'J', 'H', 'S', 'Y', 'M', 'K', 'R', 'V', 'C', 'P', 'U', 'T', 'X', 'G', 'N']	[2448, 1029, 986, 1731, 2670, 1224, 1122, 1587, 2245, 829, 1456, 2059, 1888, 4000, 944, 1335]	14	Present	NA	NA	PRESENT	0.30998992919921875	311.9304518699646	313.93416690826416	315.2179608345032	315.5679359436035	318.0385699272156	4.104403018951416	[311.9374499320984, 312.05437994003296, 313.03876090049744, 313.20560002326965, 313.95625495910645, 314.0729720592499, 314.1897859573364, 314.3066749572754, 314.42344784736633, 314.5402948856354, 314.65702199935913, 314.77378392219543, 314.89107298851013, 315.00736689567566, 315.12420201301575, 315.24086689949036, 315.3578779697418, 315.474406003952, 315.5914330482483, 315.7079770565033, 315.825031042099, 316.03856897354126]	[311.9347009536769, 312.05136762034357, 313.0343676203436, 313.20106762034357, 313.95106762034357, 314.06773428701024, 314.1844009536769, 314.3010676203436, 314.41773428701026, 314.53440095367694, 314.6510676203436, 314.7677342870103, 314.88440095367696, 315.00106762034363, 315.1177342870103, 315.234400953677, 315.35106762034366, 315.46773428701033, 315.584400953677, 315.7010676203437, 315.81773428701035, 316.0510676203437]	2021_Jan_29_1427	59.96171534688498	1	1
16	53	FALSE	NV	v	['A', 'Z', 'T', 'C', 'H', 'W', 'J', 'K', 'M', 'V', 'Y', 'X', 'U', 'P', 'S', 'E']	[697, 2911, 1888, 829, 986, 2448, 1029, 1122, 1224, 2245, 2670, 4000, 2059, 1456, 1731, 904]	12	Present	NA	NA	PRESENT	0.2194509506225586	318.05340695381165	320.0504529476166	321.10116505622864	321.45098900794983	324.1549370288849	4.1044840812683105	[318.0604040622711, 318.16044187545776, 319.14492893218994, 319.31181287765503, 320.0792329311371, 320.1791410446167, 320.2959420681, 320.4127240180969, 320.5294599533081, 320.64630794525146, 320.7631058692932, 320.8798098564148, 320.996701002121, 321.11343789100647, 321.23032689094543, 321.34700202941895, 321.4638509750366, 321.5807828903198, 321.6972839832306, 321.81430292129517, 321.9310200214386, 322.1549370288849]	[318.0510676203437, 318.1677342870104, 319.1507342870104, 319.31743428701037, 320.06743428701037, 320.18410095367705, 320.3007676203437, 320.4174342870104, 320.53410095367707, 320.65076762034374, 320.7674342870104, 320.8841009536771, 321.00076762034377, 321.11743428701044, 321.2341009536771, 321.3507676203438, 321.46743428701046, 321.58410095367714, 321.7007676203438, 321.8174342870105, 321.93410095367716, 322.1674342870105]	2021_Jan_29_1427	59.96171534688498	1	1
16	54	FALSE	NN	v	['J', 'U', 'N', 'S', 'W', 'Z', 'M', 'P', 'E', 'R', 'A', 'Y', 'B', 'H', 'V', 'G']	[1029, 2059, 1335, 1731, 2448, 2911, 1224, 1456, 904, 1587, 697, 2670, 760, 986, 2245, 944]	9	Absent	NA	NA	ABSENT	0.08798408508300781	324.15958189964294	326.16696405410767	326.86723804473877	327.2173638343811	330.2713029384613	4.104338884353638	[324.1665780544281, 324.2835249900818, 325.2681128978729, 325.4345450401306, 326.18519496917725, 326.3020269870758, 326.4189429283142, 326.5357859134674, 326.6526348590851, 326.76938104629517, 326.8859989643097, 327.00287103652954, 327.11952686309814, 327.2363770008087, 327.35319089889526, 327.47002387046814, 327.5868389606476, 327.7034409046173, 327.8204140663147, 327.93705105781555, 328.0539779663086, 328.2713029384613]	[324.1674342870105, 324.2841009536772, 325.2671009536772, 325.4338009536772, 326.1838009536772, 326.30046762034385, 326.4171342870105, 326.5338009536772, 326.6504676203439, 326.76713428701055, 326.8838009536772, 327.0004676203439, 327.1171342870106, 327.23380095367725, 327.3504676203439, 327.4671342870106, 327.58380095367727, 327.70046762034394, 327.8171342870106, 327.9338009536773, 328.05046762034397, 328.2838009536773]	2021_Jan_29_1427	59.96171534688498	1	1
16	55	FALSE	NN	v	['K', 'Z', 'R', 'T', 'U', 'W', 'P', 'N', 'S', 'V', 'H', 'B', 'J', 'M', 'G', 'E']	[1122, 2911, 1587, 1888, 2059, 2448, 1456, 1335, 1731, 2245, 986, 760, 1029, 1224, 944, 904]	9	Absent	NA	NA	ABSENT	0.10134291648864746	330.2825469970703	332.2833528518677	332.9836628437042	333.33402490615845	336.3876700401306	4.1043171882629395	[330.2895438671112, 330.4064040184021, 331.39065289497375, 331.5574939250946, 332.30814599990845, 332.42505288124084, 332.541867017746, 332.65847396850586, 332.77518796920776, 332.89201498031616, 333.00896286964417, 333.1256220340729, 333.24239802360535, 333.3593189716339, 333.47611594200134, 333.59281492233276, 333.7097010612488, 333.8263030052185, 333.94309997558594, 334.06001687049866, 334.16002106666565, 334.3876700401306]	[330.2838009536773, 330.400467620344, 331.383467620344, 331.550167620344, 332.300167620344, 332.41683428701066, 332.53350095367733, 332.650167620344, 332.7668342870107, 332.88350095367736, 333.00016762034403, 333.1168342870107, 333.2335009536774, 333.35016762034405, 333.4668342870107, 333.5835009536774, 333.7001676203441, 333.81683428701075, 333.9335009536774, 334.0501676203441, 334.1668342870108, 334.4001676203441]	2021_Jan_29_1427	59.96171534688498	1	1
16	56	FALSE	NA	v	['Y', 'U', 'R', 'T', 'G', 'B', 'K', 'X', 'E', 'C', 'A', 'M', 'W', 'S', 'H', 'V']	[2670, 2059, 1587, 1888, 944, 760, 1122, 4000, 904, 829, 697, 1224, 2448, 1731, 986, 2245]	8	Present	NA	NA	ABSENT	0.48167896270751953	336.38893699645996	338.39982295036316	338.9833929538727	339.3333728313446	342.50403690338135	4.1042139530181885	[336.39593505859375, 336.51249384880066, 337.49678087234497, 337.66362595558167, 338.4142680168152, 338.53113985061646, 338.6476309299469, 338.7647008895874, 338.881551027298, 338.9983630180359, 339.11500906944275, 339.2318890094757, 339.34863805770874, 339.4652969837189, 339.582200050354, 339.69877886772156, 339.81582903862, 339.9324469566345, 340.0494248867035, 340.1661949157715, 340.2830288410187, 340.50403690338135]	[336.4001676203441, 336.5168342870108, 337.4998342870108, 337.6665342870108, 338.4165342870108, 338.53320095367746, 338.64986762034414, 338.7665342870108, 338.8832009536775, 338.99986762034416, 339.11653428701084, 339.2332009536775, 339.3498676203442, 339.46653428701086, 339.58320095367753, 339.6998676203442, 339.8165342870109, 339.93320095367756, 340.04986762034423, 340.1665342870109, 340.2832009536776, 340.5165342870109]	2021_Jan_29_1427	59.96171534688498	1	1
16	57	FALSE	NN	v	['K', 'U', 'Y', 'V', 'T', 'M', 'Z', 'J', 'R', 'A', 'G', 'C', 'N', 'S', 'H', 'W']	[1122, 2059, 2670, 2245, 1888, 1224, 2911, 1029, 1587, 697, 944, 829, 1335, 1731, 986, 2448]	9	Absent	NA	NA	ABSENT	0.1905670166015625	342.5115668773651	344.5160129070282	345.21643900871277	345.5663859844208	348.62040400505066	4.104391098022461	[342.51856303215027, 342.63542103767395, 343.6194398403168, 343.78644490242004, 344.53712797164917, 344.6540620326996, 344.7708258628845, 344.8874650001526, 345.0043828487396, 345.12119793891907, 345.2378489971161, 345.35460090637207, 345.47153186798096, 345.5882730484009, 345.70516991615295, 345.821711063385, 345.93893790245056, 346.05530190467834, 346.1721909046173, 346.2890639305115, 346.40562987327576, 346.62040400505066]	[342.5165342870109, 342.6332009536776, 343.6162009536776, 343.7829009536776, 344.5329009536776, 344.64956762034427, 344.76623428701095, 344.8829009536776, 344.9995676203443, 345.11623428701097, 345.23290095367764, 345.3495676203443, 345.466234287011, 345.58290095367767, 345.69956762034434, 345.816234287011, 345.9329009536777, 346.04956762034436, 346.16623428701104, 346.2829009536777, 346.3995676203444, 346.63290095367773]	2021_Jan_29_1427	59.96171534688498	1	1
16	58	FALSE	NV	v	['Z', 'P', 'H', 'M', 'A', 'J', 'U', 'Y', 'B', 'V', 'W', 'X', 'N', 'S', 'G', 'K']	[2911, 1456, 986, 1224, 697, 1029, 2059, 2670, 760, 2245, 2448, 4000, 1335, 1731, 944, 1122]	12	Present	NA	NA	PRESENT	0.8835189342498779	348.63424801826477	350.6324248313904	351.68283891677856	352.03277802467346	354.7367699146271	4.104345083236694	[348.64124488830566, 348.75793504714966, 349.72563004493713, 349.8924169540405, 350.659991979599, 350.77665996551514, 350.8935809135437, 351.01030588150024, 351.127240896225, 351.2439570426941, 351.36065006256104, 351.46061992645264, 351.5774509906769, 351.6942219734192, 351.8110330104828, 351.92782402038574, 352.0446660518646, 352.1613759994507, 352.27821803092957, 352.39500284194946, 352.51181387901306, 352.7367708683014]	[348.63290095367773, 348.7495676203444, 349.7325676203444, 349.8992676203444, 350.6492676203444, 350.7659342870111, 350.88260095367775, 350.9992676203444, 351.1159342870111, 351.2326009536778, 351.34926762034445, 351.4659342870111, 351.5826009536778, 351.6992676203445, 351.81593428701115, 351.9326009536778, 352.0492676203445, 352.16593428701117, 352.28260095367784, 352.3992676203445, 352.5159342870112, 352.74926762034454]	2021_Jan_29_1427	59.96171534688498	1	1
16	59	FALSE	NV	v	['E', 'U', 'W', 'Y', 'T', 'M', 'N', 'Z', 'S', 'B', 'R', 'X', 'K', 'C', 'V', 'H']	[904, 2059, 2448, 2670, 1888, 1224, 1335, 2911, 1731, 760, 1587, 4000, 1122, 829, 2245, 986]	12	Present	NA	NA	PRESENT	0.14420008659362793	354.7405400276184	356.7487609386444	357.7992310523987	358.14925599098206	360.8531370162964	4.1043760776519775	[354.74753499031067, 354.86437702178955, 355.848974943161, 356.0154519081116, 356.7660529613495, 356.88308095932007, 356.999666929245, 357.11671590805054, 357.2332968711853, 357.3501420021057, 357.466933965683, 357.58370304107666, 357.7006070613861, 357.8172378540039, 357.9339768886566, 358.05090284347534, 358.16768288612366, 358.2842638492584, 358.4012689590454, 358.5179588794708, 358.6348478794098, 358.8531370162964]	[354.74926762034454, 354.8659342870112, 355.8489342870112, 356.0156342870112, 356.7656342870112, 356.8823009536779, 356.99896762034456, 357.11563428701123, 357.2323009536779, 357.3489676203446, 357.46563428701126, 357.58230095367793, 357.6989676203446, 357.8156342870113, 357.93230095367795, 358.0489676203446, 358.1656342870113, 358.282300953678, 358.39896762034465, 358.5156342870113, 358.632300953678, 358.86563428701135]	2021_Jan_29_1427	59.96171534688498	1	1
16	60	FALSE	VV	v	['T', 'E', 'H', 'N', 'A', 'Y', 'surprise', 'R', 'K', 'X', 'V', 'C', 'S', 'P', 'Z', 'M']	[1888, 904, 986, 1335, 697, 2670, 'stimAuditory/all_stimAuditory/110.wav', 1587, 1122, 4000, 2245, 829, 1731, 1456, 2911, 1224]	10	Present	NA	stimVisual/all_stimVisual/107.jpg	ABSENT	0.05371499061584473	360.86327505111694	362.865061044693	363.682354927063	364.0322430133819	366.9695019721985	4.104440927505493	[360.8702709674835, 360.98692893981934, 361.9713909626007, 362.1383709907532, 362.88899302482605, 363.0059049129486, 363.1226420402527, 363.2392568588257, 363.35623383522034, 363.47302293777466, 363.58975887298584, 363.70663595199585, 363.82325506210327, 363.94007301330566, 364.0570089817047, 364.17370891571045, 364.29055094718933, 364.40718388557434, 364.5240318775177, 364.6408588886261, 364.74074602127075, 364.9695019721985]	[360.86563428701135, 360.982300953678, 361.965300953678, 362.132000953678, 362.882000953678, 362.9986676203447, 363.11533428701136, 363.23200095367804, 363.3486676203447, 363.4653342870114, 363.58200095367806, 363.69866762034474, 363.8153342870114, 363.9320009536781, 364.04866762034476, 364.16533428701143, 364.2820009536781, 364.3986676203448, 364.51533428701146, 364.63200095367813, 364.7486676203448, 364.98200095367815]	2021_Jan_29_1427	59.96171534688498	1	1
16	61	FALSE	NA	v	['G', 'H', 'W', 'C', 'T', 'E', 'M', 'J', 'X', 'Z', 'Y', 'S', 'V', 'A', 'R', 'U']	[944, 986, 2448, 829, 1888, 904, 1224, 1029, 4000, 2911, 2670, 1731, 2245, 697, 1587, 2059]	9	Present	NA	NA	PRESENT	0.1299729347229004	366.9697029590606	368.9815649986267	369.6818959712982	370.0320620536804	373.0858700275421	4.104305028915405	[366.97669887542725, 367.0935308933258, 368.0776469707489, 368.2443280220032, 369.0119149684906, 369.1119668483734, 369.22882604599, 369.3454399108887, 369.462424993515, 369.5789818763733, 369.6958248615265, 369.81277799606323, 369.9294488430023, 370.0463399887085, 370.1630690097809, 370.27984595298767, 370.39667987823486, 370.51338505744934, 370.6301999092102, 370.7468650341034, 370.86381006240845, 371.0858688354492]	[366.98200095367815, 367.0986676203448, 368.08166762034483, 368.2483676203448, 368.9983676203448, 369.1150342870115, 369.23170095367817, 369.34836762034485, 369.4650342870115, 369.5817009536782, 369.69836762034487, 369.81503428701154, 369.9317009536782, 370.0483676203449, 370.16503428701157, 370.28170095367824, 370.3983676203449, 370.5150342870116, 370.63170095367826, 370.74836762034494, 370.8650342870116, 371.09836762034496]	2021_Jan_29_1427	59.96171534688498	1	1
16	62	FALSE	NA	v	['Z', 'H', 'P', 'R', 'C', 'U', 'G', 'E', 'N', 'T', 'Y', 'X', 'S', 'V', 'W', 'A']	[2911, 986, 1456, 1587, 829, 2059, 944, 904, 1335, 1888, 2670, 4000, 1731, 2245, 2448, 697]	12	Present	NA	NA	PRESENT	0.198559045791626	373.0922088623047	375.0976939201355	376.1486120223999	376.4982829093933	379.2022359371186	4.104542016983032	[373.09920597076416, 373.21622586250305, 374.2005388736725, 374.36742997169495, 375.1179540157318, 375.2347569465637, 375.351686000824, 375.46835494041443, 375.5852060317993, 375.7020490169525, 375.8187699317932, 375.9355528354645, 376.0523509979248, 376.16916489601135, 376.2859480381012, 376.4026229381561, 376.51956701278687, 376.6361918449402, 376.75301599502563, 376.87019991874695, 376.9865970611572, 377.20223689079285]	[373.09836762034496, 373.21503428701163, 374.19803428701164, 374.36473428701163, 375.11473428701163, 375.2314009536783, 375.348067620345, 375.46473428701165, 375.5814009536783, 375.698067620345, 375.8147342870117, 375.93140095367835, 376.048067620345, 376.1647342870117, 376.28140095367837, 376.39806762034505, 376.5147342870117, 376.6314009536784, 376.74806762034507, 376.86473428701174, 376.9814009536784, 377.21473428701177]	2021_Jan_29_1427	59.96171534688498	1	1
16	63	FALSE	NA	v	['Y', 'B', 'H', 'P', 'V', 'N', 'G', 'Z', 'K', 'E', 'X', 'U', 'J', 'M', 'S', 'T']	[2670, 760, 986, 1456, 2245, 1335, 944, 2911, 1122, 904, 4000, 2059, 1029, 1224, 1731, 1888]	11	Present	NA	NA	PRESENT	0.2359011173248291	379.2150809764862	381.21420788764954	382.1483418941498	382.49790382385254	385.31860399246216	4.104396104812622	[379.2220778465271, 379.3388159275055, 380.3064739704132, 380.47331190109253, 381.24098205566406, 381.35765290260315, 381.4743800163269, 381.59118485450745, 381.70809984207153, 381.8247308731079, 381.94176197052, 382.0584599971771, 382.1752338409424, 382.2919499874115, 382.4088180065155, 382.5255160331726, 382.642235994339, 382.759183883667, 382.8758568763733, 382.99288392066956, 383.0927858352661, 383.31860399246216]	[379.21473428701177, 379.33140095367844, 380.31440095367844, 380.48110095367844, 381.23110095367844, 381.3477676203451, 381.4644342870118, 381.58110095367846, 381.69776762034513, 381.8144342870118, 381.9311009536785, 382.04776762034516, 382.16443428701183, 382.2811009536785, 382.3977676203452, 382.51443428701185, 382.6311009536785, 382.7477676203452, 382.8644342870119, 382.98110095367855, 383.0977676203452, 383.3311009536786]	2021_Jan_29_1427	59.96171534688498	1	1
16	64	FALSE	NA	v	['Y', 'C', 'U', 'T', 'H', 'E', 'M', 'X', 'V', 'K', 'A', 'W', 'S', 'B', 'Z', 'R']	[2670, 829, 2059, 1888, 986, 904, 1224, 4000, 2245, 1122, 697, 2448, 1731, 760, 2911, 1587]	8	Present	NA	NA	ABSENT	0.4563720226287842	385.3213789463043	387.3306019306183	387.914342880249	388.26442790031433	391.43496894836426	4.104367017745972	[385.3283748626709, 385.44521498680115, 386.429545879364, 386.5962028503418, 387.3473448753357, 387.463840007782, 387.58052706718445, 387.6973030567169, 387.8142340183258, 387.9309768676758, 388.0478479862213, 388.16458892822266, 388.2814869880676, 388.3982310295105, 388.5150828361511, 388.6318600177765, 388.74842596054077, 388.86512994766235, 388.9820508956909, 389.0987389087677, 389.2156479358673, 389.4349699020386]	[385.3311009536786, 385.44776762034525, 386.43076762034525, 386.59746762034524, 387.34746762034524, 387.4641342870119, 387.5808009536786, 387.69746762034526, 387.81413428701194, 387.9308009536786, 388.0474676203453, 388.16413428701196, 388.28080095367864, 388.3974676203453, 388.514134287012, 388.63080095367866, 388.74746762034533, 388.864134287012, 388.9808009536787, 389.09746762034536, 389.21413428701203, 389.4474676203454]	2021_Jan_29_1427	59.96171534688498	1	1
16	65	FALSE	NA	v	['B', 'V', 'Z', 'S', 'Y', 'G', 'R', 'K', 'T', 'U', 'C', 'X', 'A', 'W', 'M', 'P']	[760, 2245, 2911, 1731, 2670, 944, 1587, 1122, 1888, 2059, 829, 4000, 697, 2448, 1224, 1456]	12	Present	NA	NA	PRESENT	0.1570451259613037	391.44415402412415	393.44705605506897	394.49742889404297	394.84764099121094	397.5513370037079	4.104280948638916	[391.45115089416504, 391.5681400299072, 392.5523929595947, 392.71931290626526, 393.46994805336, 393.5865960121155, 393.7036039829254, 393.82025694847107, 393.9371440410614, 394.05386304855347, 394.1704668998718, 394.2874310016632, 394.40403389930725, 394.52092599868774, 394.63792300224304, 394.7546589374542, 394.871456861496, 394.9881649017334, 395.10470485687256, 395.22166991233826, 395.3384609222412, 395.5513370037079]	[391.4474676203454, 391.56413428701205, 392.54713428701206, 392.71383428701205, 393.46383428701205, 393.5805009536787, 393.6971676203454, 393.81383428701207, 393.93050095367875, 394.0471676203454, 394.1638342870121, 394.28050095367877, 394.39716762034544, 394.5138342870121, 394.6305009536788, 394.74716762034546, 394.86383428701214, 394.9805009536788, 395.0971676203455, 395.21383428701216, 395.33050095367884, 395.5638342870122]	2021_Jan_29_1427	59.96171534688498	1	1
16	66	FALSE	NV	v	['W', 'M', 'R', 'T', 'E', 'A', 'C', 'Y', 'U', 'X', 'B', 'G', 'K', 'V', 'P', 'S']	[2448, 1224, 1587, 1888, 904, 697, 829, 2670, 2059, 4000, 760, 944, 1122, 2245, 1456, 1731]	10	Present	NA	NA	PRESENT	0.2102699279785156	397.5505700111389	399.5634648799896	400.380362033844	400.7304198741913	403.6677029132843	4.104238033294678	[397.5575668811798, 397.6740610599518, 398.65822196006775, 398.82517194747925, 399.59258794784546, 399.69275403022766, 399.8094918727875, 399.92629384994507, 400.0430860519409, 400.159884929657, 400.2768359184265, 400.3936860561371, 400.5103089809418, 400.6273469924927, 400.74390506744385, 400.86057806015015, 400.97758293151855, 401.09429383277893, 401.2111849784851, 401.32778906822205, 401.44471502304077, 401.6677029132843]	[397.5638342870122, 397.68050095367886, 398.66350095367886, 398.83020095367885, 399.58020095367885, 399.69686762034553, 399.8135342870122, 399.9302009536789, 400.04686762034555, 400.1635342870122, 400.2802009536789, 400.3968676203456, 400.51353428701225, 400.6302009536789, 400.7468676203456, 400.86353428701227, 400.98020095367895, 401.0968676203456, 401.2135342870123, 401.33020095367897, 401.44686762034564, 401.680200953679]	2021_Jan_29_1427	59.96171534688498	1	1
16	67	FALSE	NA	v	['T', 'H', 'G', 'B', 'M', 'J', 'E', 'W', 'U', 'P', 'R', 'K', 'N', 'X', 'C', 'Z']	[1888, 986, 944, 760, 1224, 1029, 904, 2448, 2059, 1456, 1587, 1122, 1335, 4000, 829, 2911]	14	Present	NA	NA	PRESENT	0.1188030242919922	403.6733069419861	405.6798379421234	406.9634819030762	407.3134639263153	409.7840690612793	4.104231119155884	[403.68030285835266, 403.7971339225769, 404.7812089920044, 404.9482328891754, 405.6988949775696, 405.8155689239502, 405.9326250553131, 406.049311876297, 406.16605591773987, 406.2828938961029, 406.39962792396545, 406.51636385917664, 406.63308596611023, 406.75005197525024, 406.8669559955597, 406.98353600502014, 407.10039496421814, 407.21717286109924, 407.33396792411804, 407.4507930278778, 407.5674338340759, 407.78407096862793]	[403.680200953679, 403.79686762034567, 404.77986762034567, 404.94656762034566, 405.69656762034566, 405.81323428701234, 405.929900953679, 406.0465676203457, 406.16323428701236, 406.27990095367903, 406.3965676203457, 406.5132342870124, 406.62990095367905, 406.74656762034573, 406.8632342870124, 406.9799009536791, 407.09656762034575, 407.2132342870124, 407.3299009536791, 407.4465676203458, 407.56323428701245, 407.7965676203458]	2021_Jan_29_1427	59.96171534688498	1	1
16	68	FALSE	NA	v	['Y', 'E', 'G', 'A', 'V', 'B', 'T', 'S', 'X', 'Z', 'W', 'J', 'N', 'M', 'K', 'C']	[2670, 904, 944, 697, 2245, 760, 1888, 1731, 4000, 2911, 2448, 1029, 1335, 1224, 1122, 829]	9	Present	NA	NA	PRESENT	0.2762148380279541	409.7961449623108	411.7959170341492	412.49659299850464	412.846941947937	415.90043687820435	4.104519844055176	[409.80314087867737, 409.9197778701782, 410.9040870666504, 411.0710458755493, 411.8217749595642, 411.9387469291687, 412.05535888671875, 412.17229199409485, 412.28872990608215, 412.4058198928833, 412.5224280357361, 412.63933801651, 412.755912065506, 412.8727939128876, 412.9897060394287, 413.106449842453, 413.22340989112854, 413.3399119377136, 413.45679688453674, 413.573942899704, 413.6736629009247, 413.90043592453003]	[409.7965676203458, 409.9132342870125, 410.8962342870125, 411.06293428701247, 411.81293428701247, 411.92960095367914, 412.0462676203458, 412.1629342870125, 412.27960095367916, 412.39626762034584, 412.5129342870125, 412.6296009536792, 412.74626762034586, 412.86293428701254, 412.9796009536792, 413.0962676203459, 413.21293428701256, 413.32960095367923, 413.4462676203459, 413.5629342870126, 413.67960095367926, 413.9129342870126]	2021_Jan_29_1427	59.96171534688498	1	1
16	69	FALSE	NV	v	['B', 'S', 'J', 'W', 'A', 'R', 'V', 'X', 'U', 'P', 'K', 'E', 'N', 'Z', 'G', 'H']	[760, 1731, 1029, 2448, 697, 1587, 2245, 4000, 2059, 1456, 1122, 904, 1335, 2911, 944, 986]	8	Present	NA	NA	PRESENT	0.07271289825439453	415.9022579193115	417.9124310016632	418.4962220191955	418.846246957779	422.01680397987366	4.104372978210449	[415.9092538356781, 416.02593994140625, 417.0107419490814, 417.17723202705383, 417.9277379512787, 418.04464888572693, 418.1615550518036, 418.278244972229, 418.39521503448486, 418.5118479728699, 418.6287398338318, 418.74538493156433, 418.8622770309448, 418.9788899421692, 419.0957119464874, 419.21268701553345, 419.3292360305786, 419.446084022522, 419.56297302246094, 419.67961406707764, 419.79647183418274, 420.01680397987366]	[415.9129342870126, 416.0296009536793, 417.0126009536793, 417.1793009536793, 417.9293009536793, 418.04596762034595, 418.1626342870126, 418.2793009536793, 418.39596762034597, 418.51263428701265, 418.6293009536793, 418.745967620346, 418.86263428701267, 418.97930095367934, 419.095967620346, 419.2126342870127, 419.32930095367936, 419.44596762034604, 419.5626342870127, 419.6793009536794, 419.79596762034606, 420.0293009536794]	2021_Jan_29_1427	59.96171534688498	1	1
16	70	FALSE	NV	v	['Z', 'C', 'P', 'R', 'M', 'U', 'K', 'W', 'Y', 'T', 'E', 'J', 'X', 'B', 'H', 'G']	[2911, 829, 1456, 1587, 1224, 2059, 1122, 2448, 2670, 1888, 904, 1029, 4000, 760, 986, 944]	13	Present	NA	NA	PRESENT	0.28536510467529297	422.02512383461	424.028776884079	425.1959159374237	425.54638504981995	428.1331698894501	4.104393005371094	[422.03211998939514, 422.14875888824463, 423.13328099250793, 423.30020093917847, 424.05056405067444, 424.1674699783325, 424.2844760417938, 424.4010519981384, 424.51801085472107, 424.6347529888153, 424.75155997276306, 424.8683350086212, 424.9850399494171, 425.10183906555176, 425.2186989784241, 425.3354709148407, 425.45205187797546, 425.5690908432007, 425.68580389022827, 425.8026249408722, 425.9193980693817, 426.13316893577576]	[422.0293009536794, 422.1459676203461, 423.1289676203461, 423.2956676203461, 424.0456676203461, 424.16233428701275, 424.27900095367943, 424.3956676203461, 424.5123342870128, 424.62900095367945, 424.7456676203461, 424.8623342870128, 424.9790009536795, 425.09566762034615, 425.2123342870128, 425.3290009536795, 425.44566762034617, 425.56233428701285, 425.6790009536795, 425.7956676203462, 425.91233428701287, 426.1456676203462]	2021_Jan_29_1427	59.96171534688498	1	1
16	71	FALSE	NV	v	['U', 'M', 'C', 'N', 'V', 'K', 'J', 'W', 'X', 'Y', 'E', 'Z', 'B', 'G', 'A', 'S']	[2059, 1224, 829, 1335, 2245, 1122, 1029, 2448, 4000, 2670, 904, 2911, 760, 944, 697, 1731]	9	Present	NA	NA	PRESENT	0.2587299346923828	428.1484160423279	430.14514803886414	430.84598183631897	431.1956079006195	434.2495369911194	4.104388952255249	[428.1554138660431, 428.2548909187317, 429.2395689487457, 429.4060890674591, 430.173868894577, 430.27358388900757, 430.39028000831604, 430.50707387924194, 430.6239449977875, 430.7407350540161, 430.857547044754, 430.97427892684937, 431.09116983413696, 431.20787596702576, 431.3246560096741, 431.44139099121094, 431.558189868927, 431.6749939918518, 431.79174399375916, 431.9085829257965, 432.0256440639496, 432.2495379447937]	[428.1456676203462, 428.2623342870129, 429.2453342870129, 429.4120342870129, 430.1620342870129, 430.27870095367956, 430.39536762034624, 430.5120342870129, 430.6287009536796, 430.74536762034626, 430.86203428701293, 430.9787009536796, 431.0953676203463, 431.21203428701295, 431.32870095367963, 431.4453676203463, 431.562034287013, 431.67870095367965, 431.7953676203463, 431.912034287013, 432.0287009536797, 432.262034287013]	2021_Jan_29_1427	59.96171534688498	1	1
16	72	FALSE	NA	v	['G', 'H', 'V', 'R', 'J', 'W', 'U', 'E', 'T', 'S', 'C', 'P', 'X', 'K', 'Y', 'Z']	[944, 986, 2245, 1587, 1029, 2448, 2059, 904, 1888, 1731, 829, 1456, 4000, 1122, 2670, 2911]	13	Present	NA	NA	PRESENT	0.35122084617614746	434.25425601005554	436.26159286499023	437.4285900592804	437.7785768508911	440.3659029006958	4.104310035705566	[434.2612519264221, 434.37794494628906, 435.3621349334717, 435.5291850566864, 436.27975702285767, 436.39647793769836, 436.5134530067444, 436.6301670074463, 436.74700593948364, 436.8637158870697, 436.98048090934753, 437.0973608493805, 437.2140169143677, 437.3309199810028, 437.4477758407593, 437.5645110607147, 437.68118596076965, 437.79801201820374, 437.9149558544159, 438.03155303001404, 438.14821600914, 438.3659029006958]	[434.262034287013, 434.3787009536797, 435.3617009536797, 435.5284009536797, 436.2784009536797, 436.39506762034637, 436.51173428701304, 436.6284009536797, 436.7450676203464, 436.86173428701306, 436.97840095367974, 437.0950676203464, 437.2117342870131, 437.32840095367976, 437.44506762034644, 437.5617342870131, 437.6784009536798, 437.79506762034646, 437.91173428701313, 438.0284009536798, 438.1450676203465, 438.37840095367983]	2021_Jan_29_1427	59.96171534688498	1	1
16	73	FALSE	NN	v	['G', 'T', 'P', 'Y', 'S', 'W', 'V', 'C', 'B', 'K', 'R', 'H', 'J', 'M', 'E', 'N']	[944, 1888, 1456, 2670, 1731, 2448, 2245, 829, 760, 1122, 1587, 986, 1029, 1224, 904, 1335]	13	Absent	NA	NA	ABSENT	0.11663484573364258	440.37697887420654	442.37795996665955	443.5452589988709	443.8950200080872	446.4822700023651	4.104310035705566	[440.3839750289917, 440.50064396858215, 441.4850869178772, 441.6519720554352, 442.4026720523834, 442.5194778442383, 442.63631987571716, 442.7531769275665, 442.86978697776794, 442.986713886261, 443.10349106788635, 443.22021198272705, 443.3369309902191, 443.45363306999207, 443.5710229873657, 443.6871359348297, 443.80410599708557, 443.9208538532257, 444.03762006759644, 444.15455389022827, 444.25431394577026, 444.4822690486908]	[440.37840095367983, 440.4950676203465, 441.4780676203465, 441.6447676203465, 442.3947676203465, 442.5114342870132, 442.62810095367985, 442.7447676203465, 442.8614342870132, 442.97810095367987, 443.09476762034654, 443.2114342870132, 443.3281009536799, 443.44476762034657, 443.56143428701324, 443.6781009536799, 443.7947676203466, 443.91143428701326, 444.02810095367994, 444.1447676203466, 444.2614342870133, 444.49476762034664]	2021_Jan_29_1427	59.96171534688498	1	1
16	74	FALSE	AA	v	['G', 'V', 'E', 'N', 'K', 'Y', 'H', 'M', 'surprise', 'P', 'J', 'X', 'A', 'T', 'Z', 'W']	[944, 2245, 904, 1335, 1122, 2670, 986, 1224, 'stimAuditory/all_stimAuditory/103.wav', 1456, 1029, 4000, 697, 1888, 2911, 2448]	12	Present	stimAuditory/all_stimAuditory/205.wav	stimVisual/all_stimVisual/109.jpg	PRESENT	0.17697715759277344	446.4831049442291	448.4942739009857	449.5446560382843	449.8946180343628	452.59863686561584	4.104362964630127	[446.4901020526886, 446.6069300174713, 447.59127593040466, 447.7580978870392, 448.5089318752289, 448.6254370212555, 448.74241304397583, 448.85909485816956, 448.9759910106659, 449.09266090393066, 449.20962500572205, 449.3262560367584, 449.44313287734985, 449.5598828792572, 449.6764130592346, 449.793438911438, 449.91008400917053, 450.02697706222534, 450.14365696907043, 450.26068592071533, 450.37748885154724, 450.59863805770874]	[446.49476762034664, 446.6114342870133, 447.5944342870133, 447.7611342870133, 448.5111342870133, 448.62780095368, 448.74446762034665, 448.86113428701333, 448.97780095368, 449.0944676203467, 449.21113428701335, 449.32780095368, 449.4444676203467, 449.5611342870134, 449.67780095368005, 449.7944676203467, 449.9111342870134, 450.02780095368007, 450.14446762034675, 450.2611342870134, 450.3778009536801, 450.61113428701344]	2021_Jan_29_1427	59.96171534688498	1	1
16	75	FALSE	NA	v	['M', 'P', 'G', 'J', 'T', 'E', 'W', 'X', 'C', 'Y', 'U', 'K', 'Z', 'R', 'B', 'A']	[1224, 1456, 944, 1029, 1888, 904, 2448, 4000, 829, 2670, 2059, 1122, 2911, 1587, 760, 697]	8	Present	NA	NA	PRESENT	0.0934579372406006	452.6060140132904	454.6105990409851	455.1945970058441	455.5445559024811	458.7150030136109	4.104403972625732	[452.613009929657, 452.7298240661621, 453.7142388820648, 453.8807599544525, 454.63158893585205, 454.7484269142151, 454.86534786224365, 454.98186898231506, 455.098876953125, 455.2155990600586, 455.33230996131897, 455.44915986061096, 455.56591796875, 455.68289399147034, 455.7996208667755, 455.9163889884949, 456.03301191329956, 456.1496670246124, 456.26677083969116, 456.38339495658875, 456.500186920166, 456.71500396728516]	[452.61113428701344, 452.7278009536801, 453.7108009536801, 453.8775009536801, 454.6275009536801, 454.7441676203468, 454.86083428701346, 454.97750095368013, 455.0941676203468, 455.2108342870135, 455.32750095368016, 455.44416762034683, 455.5608342870135, 455.6775009536802, 455.79416762034685, 455.91083428701353, 456.0275009536802, 456.1441676203469, 456.26083428701355, 456.3775009536802, 456.4941676203469, 456.72750095368025]	2021_Jan_29_1427	59.96171534688498	1	1
16	76	FALSE	NA	v	['Z', 'S', 'R', 'G', 'C', 'W', 'N', 'A', 'P', 'X', 'Y', 'U', 'T', 'J', 'B', 'H']	[2911, 1731, 1587, 944, 829, 2448, 1335, 697, 1456, 4000, 2670, 2059, 1888, 1029, 760, 986]	10	Present	NA	NA	PRESENT	0.0748751163482666	458.72916889190674	460.72704792022705	461.5441930294037	461.8941898345947	464.8313698768616	4.1043219566345215	[458.7361660003662, 458.8527069091797, 459.82021498680115, 459.9869430065155, 460.7546100616455, 460.87123584747314, 460.9881739616394, 461.10484886169434, 461.2218029499054, 461.338397026062, 461.4551570415497, 461.57229804992676, 461.6888530254364, 461.8055000305176, 461.9055600166321, 462.0223958492279, 462.13913583755493, 462.2559359073639, 462.3727159500122, 462.48948192596436, 462.60624599456787, 462.83136892318726]	[458.72750095368025, 458.8441676203469, 459.8271676203469, 459.9938676203469, 460.7438676203469, 460.8605342870136, 460.97720095368027, 461.09386762034694, 461.2105342870136, 461.3272009536803, 461.44386762034696, 461.56053428701364, 461.6772009536803, 461.793867620347, 461.91053428701366, 462.02720095368034, 462.143867620347, 462.2605342870137, 462.37720095368036, 462.49386762034703, 462.6105342870137, 462.84386762034705]	2021_Jan_29_1427	59.96171534688498	1	1
16	77	FALSE	NN	v	['G', 'B', 'H', 'C', 'Z', 'K', 'N', 'W', 'J', 'E', 'T', 'S', 'U', 'V', 'R', 'A']	[944, 760, 986, 829, 2911, 1122, 1335, 2448, 1029, 904, 1888, 1731, 2059, 2245, 1587, 697]	8	Absent	NA	NA	ABSENT	0.35938477516174316	464.83510088920593	466.8433349132538	467.4270799160004	467.77705788612366	470.9477369785309	4.1044020652771	[464.8420970439911, 464.95860505104065, 465.94299602508545, 466.1097688674927, 466.8606300354004, 466.9775619506836, 467.09444284439087, 467.21109986305237, 467.32775592803955, 467.44467306137085, 467.56150102615356, 467.67836594581604, 467.7948188781738, 467.9121630191803, 468.02858686447144, 468.14536595344543, 468.2619249820709, 468.3789038658142, 468.49573493003845, 468.6125349998474, 468.72916293144226, 468.9477369785309]	[464.84386762034705, 464.96053428701373, 465.94353428701373, 466.1102342870137, 466.8602342870137, 466.9769009536804, 467.0935676203471, 467.21023428701375, 467.3269009536804, 467.4435676203471, 467.56023428701377, 467.67690095368044, 467.7935676203471, 467.9102342870138, 468.02690095368047, 468.14356762034714, 468.2602342870138, 468.3769009536805, 468.49356762034716, 468.61023428701384, 468.7269009536805, 468.96023428701386]	2021_Jan_29_1427	59.96171534688498	1	1
16	78	FALSE	NV	v	['J', 'R', 'P', 'M', 'A', 'W', 'Z', 'B', 'E', 'T', 'H', 'X', 'V', 'C', 'S', 'U']	[1029, 1587, 1456, 1224, 697, 2448, 2911, 760, 904, 1888, 986, 4000, 2245, 829, 1731, 2059]	12	Present	NA	NA	PRESENT	0.24474191665649417	470.95776104927063	472.9596569538117	474.01012897491455	474.36064195632935	477.0641028881073	4.104445934295654	[470.9647569656372, 471.08190989494324, 472.06592893600464, 472.23271203041077, 472.983638048172, 473.10054898262024, 473.21720600128174, 473.3338439464569, 473.45053791999817, 473.56778383255005, 473.68439292907715, 473.80109786987305, 473.9178340435028, 474.0344760417938, 474.15142798423767, 474.26795983314514, 474.38496494293213, 474.5017478466034, 474.6184079647064, 474.73541283607483, 474.835245847702, 475.064101934433]	[470.96023428701386, 471.07690095368054, 472.05990095368054, 472.22660095368053, 472.97660095368053, 473.0932676203472, 473.2099342870139, 473.32660095368055, 473.4432676203472, 473.5599342870139, 473.6766009536806, 473.79326762034725, 473.9099342870139, 474.0266009536806, 474.1432676203473, 474.25993428701395, 474.3766009536806, 474.4932676203473, 474.60993428701397, 474.72660095368065, 474.8432676203473, 475.07660095368067]	2021_Jan_29_1427	59.96171534688498	1	1
16	79	FALSE	AA	v	['K', 'P', 'H', 'W', 'S', 'Z', 'G', 'Y', 'surprise', 'U', 'B', 'X', 'T', 'R', 'J', 'V']	[1122, 1456, 986, 2448, 1731, 2911, 944, 2670, 'stimAuditory/all_stimAuditory/214.wav', 2059, 760, 4000, 1888, 1587, 1029, 2245]	12	Present	stimAuditory/all_stimAuditory/109.wav	stimVisual/all_stimVisual/124.jpg	PRESENT	0.12140917778015135	477.0639488697052	479.0760428905487	480.1265678405762	480.4765119552612	483.1804699897766	4.104427099227905	[477.07094502449036, 477.18770599365234, 478.1724989414215, 478.33897399902344, 479.1063449382782, 479.2063970565796, 479.32332706451416, 479.4400429725647, 479.55683994293213, 479.6736350059509, 479.790540933609, 479.90713906288147, 480.04061484336853, 480.1407399177551, 480.25746488571167, 480.374431848526, 480.49101400375366, 480.60792803764343, 480.7247278690338, 480.84160900115967, 480.9583189487457, 481.1804699897766]	[477.07660095368067, 477.19326762034734, 478.17626762034735, 478.34296762034734, 479.09296762034734, 479.209634287014, 479.3263009536807, 479.44296762034736, 479.55963428701403, 479.6763009536807, 479.7929676203474, 479.90963428701406, 480.02630095368073, 480.1429676203474, 480.2596342870141, 480.37630095368075, 480.49296762034743, 480.6096342870141, 480.7263009536808, 480.84296762034745, 480.9596342870141, 481.1929676203475]	2021_Jan_29_1427	59.96171534688498	1	1
