participant	trial_num	practice	task	condition	RSVP	RAP	probePos	probe_presence	surprise_sound	surprise_img	probe_response	probe_resp_time	first_fixation_time	trial_start_time	surprise_start_time	probe_start_time	trial_end_time	trial_duration	actualEventTimes	plannedEventTimes	date	framerate	marker_vol	RAP_vol
29	1	FALSE	NA	v	['C', 'T', 'B', 'K', 'W', 'A', 'V', 'X', 'Z', 'P', 'N', 'G', 'S', 'R', 'M', 'J']	[829, 1888, 760, 1122, 2448, 697, 2245, 4000, 2911, 1456, 1335, 944, 1731, 1587, 1224, 1029]	8	Present	NA	NA	PRESENT	0.8242089748382568	1.9073486328125e-6	2.0033929347991943	2.58512806892395	2.935598850250244	6.1038689613342285	4.100476026535034	[0.005820035934448242, 0.12269091606140137, 1.1070630550384521, 1.2740819454193115, 2.025177001953125, 2.1416409015655518, 2.2583718299865723, 2.3752739429473877, 2.492036819458008, 2.608768939971924, 2.7255020141601562, 2.8421239852905273, 2.958983898162842, 3.0757930278778076, 3.192673921585083, 3.3095459938049316, 3.4263699054718018, 3.542961835861206, 3.6599318981170654, 3.776697874069214, 3.8766329288482666, 4.103869915008545]	[9.5367431640625e-07, 0.11666762034098306, 1.099667620340983, 1.266367620340983, 2.016367620340983, 2.1330342870076495, 2.249700953674316, 2.366367620340983, 2.4830342870076496, 2.5997009536743163, 2.716367620340983, 2.8330342870076497, 2.9497009536743164, 3.066367620340983, 3.18303428700765, 3.2997009536743165, 3.416367620340983, 3.53303428700765, 3.6497009536743166, 3.7663676203409833, 3.88303428700765, 4.116367620340983]	2021_Feb_10_1235	59.876287482423145	1	1
29	2	FALSE	NV	v	['W', 'G', 'K', 'B', 'T', 'S', 'E', 'R', 'N', 'Z', 'X', 'A', 'P', 'H', 'V', 'M']	[2448, 944, 1122, 760, 1888, 1731, 904, 1587, 1335, 2911, 4000, 697, 1456, 986, 2245, 1224]	11	Present	NA	NA	PRESENT	1.2288548946380615	6.106613874435425	8.117310047149658	9.051193952560425	9.401142835617064	12.220237016677856	4.102926969528198	[6.11243200302124, 6.229305982589722, 7.21356201171875, 7.380283832550049, 8.131096839904785, 8.247992992401123, 8.364716053009033, 8.48167085647583, 8.598517894744873, 8.715214967727661, 8.832005023956299, 8.948799848556519, 9.065552949905396, 9.182406902313232, 9.299132823944092, 9.415823936462402, 9.5326509475708, 9.649505853652954, 9.766232013702393, 9.88309097290039, 9.999953985214233, 10.220235824584961]	[6.116367620340983, 6.23303428700765, 7.216034287007649, 7.382734287007649, 8.132734287007649, 8.249400953674316, 8.366067620340983, 8.48273428700765, 8.599400953674317, 8.716067620340985, 8.832734287007652, 8.949400953674319, 9.066067620340986, 9.182734287007653, 9.29940095367432, 9.416067620340987, 9.532734287007655, 9.649400953674322, 9.766067620340989, 9.882734287007656, 9.999400953674323, 10.232734287007656]	2021_Feb_10_1235	59.876287482423145	1	1
29	3	FALSE	NV	v	['K', 'M', 'R', 'W', 'T', 'U', 'Z', 'N', 'X', 'E', 'G', 'B', 'J', 'A', 'H', 'C']	[1122, 1224, 1587, 2448, 1888, 2059, 2911, 1335, 4000, 904, 944, 760, 1029, 697, 986, 829]	9	Present	NA	NA	PRESENT	1.2254540920257568	12.23018193244934	14.233604907989502	14.933990001678469	15.283966064453123	18.336601972579956	4.102997064590454	[12.236001014709473, 12.352413892745972, 13.3366858959198, 13.503592014312744, 14.254292964935303, 14.371080875396729, 14.487961053848267, 14.604671955108643, 14.72162389755249, 14.838433980941772, 14.955173969268799, 15.071887969970703, 15.188570976257324, 15.305397987365723, 15.422327995300293, 15.539142847061157, 15.655777931213379, 15.772555828094482, 15.889391899108887, 16.00623393058777, 16.12300395965576, 16.336601972579956]	[12.232734287007656, 12.349400953674323, 13.332400953674323, 13.499100953674324, 14.249100953674324, 14.365767620340991, 14.482434287007658, 14.599100953674325, 14.715767620340992, 14.83243428700766, 14.949100953674327, 15.065767620340994, 15.182434287007661, 15.299100953674328, 15.415767620340995, 15.532434287007662, 15.64910095367433, 15.765767620340997, 15.882434287007664, 15.999100953674331, 16.115767620340996, 16.34910095367433]	2021_Feb_10_1235	59.876287482423145	1	1
29	4	FALSE	VA	v	['G', 'B', 'U', 'R', 'H', 'K', 'C', 'W', 'A', 'surprise', 'P', 'J', 'X', 'Z', 'T', 'E']	[944, 760, 2059, 1587, 986, 1122, 829, 2448, 697, 'stimAuditory/all_stimAuditory/107.wav', 1456, 1029, 4000, 2911, 1888, 904]	13	Present	NA	stimVisual/all_stimVisual/214.jpg	PRESENT	0.9425210952758788	18.33609390258789	20.349984884262085	21.516896963119507	21.86713695526123	24.452970027923584	4.102985143661499	[18.341912031173706, 18.45871591567993, 19.442863941192627, 19.610050916671753, 20.37752890586853, 20.47747492790222, 20.594215869903564, 20.710988998413086, 20.827836990356445, 20.94459891319275, 21.061506032943726, 21.178133964538574, 21.294898986816406, 21.428679943084717, 21.52851700782776, 21.64569401741028, 21.762183904647827, 21.878893852233887, 21.995816946029663, 22.112643003463745, 22.229506015777588, 22.452970027923584]	[18.34910095367433, 18.465767620340998, 19.448767620341, 19.615467620340997, 20.365467620340997, 20.482134287007664, 20.59880095367433, 20.715467620341, 20.832134287007666, 20.948800953674333, 21.065467620341, 21.182134287007667, 21.298800953674334, 21.415467620341, 21.53213428700767, 21.648800953674336, 21.765467620341003, 21.88213428700767, 21.998800953674337, 22.115467620341004, 22.23213428700767, 22.465467620341006]	2021_Feb_10_1235	59.876287482423145	1	1
29	5	FALSE	NV	v	['P', 'E', 'Y', 'A', 'K', 'H', 'G', 'T', 'U', 'V', 'W', 'S', 'X', 'B', 'C', 'M']	[1456, 904, 2670, 697, 1122, 986, 944, 1888, 2059, 2245, 2448, 1731, 4000, 760, 829, 1224]	13	Present	NA	NA	PRESENT	0.963386058807373	24.459248065948486	26.466089010238647	27.63330984115601	27.98327398300171	30.5693359375	4.1032469272613525	[24.46506690979004, 24.581912994384766, 25.56633496284485, 25.73298692703247, 26.483875036239624, 26.600811004638672, 26.717566967010498, 26.834357976913452, 26.95106291770935, 27.068092823028564, 27.184643983840942, 27.301249980926514, 27.418195962905884, 27.53484797477722, 27.65189504623413, 27.768610954284668, 27.885313034057617, 28.002152919769287, 28.119035959243774, 28.23563289642334, 28.352638959884644, 28.569336891174316]	[24.465467620341006, 24.582134287007673, 25.565134287007673, 25.731834287007672, 26.481834287007672, 26.59850095367434, 26.715167620341006, 26.831834287007673, 26.94850095367434, 27.065167620341008, 27.181834287007675, 27.298500953674342, 27.41516762034101, 27.531834287007676, 27.648500953674343, 27.76516762034101, 27.881834287007678, 27.998500953674345, 28.115167620341012, 28.23183428700768, 28.348500953674346, 28.58183428700768]	2021_Feb_10_1235	59.876287482423145	1	1
29	6	FALSE	NA	v	['T', 'E', 'R', 'S', 'M', 'G', 'Z', 'K', 'B', 'A', 'J', 'Y', 'X', 'W', 'P', 'N']	[1888, 904, 1587, 1731, 1224, 944, 2911, 1122, 760, 697, 1029, 2670, 4000, 2448, 1456, 1335]	13	Present	NA	NA	PRESENT	0.8323919773101807	30.582388877868652	32.58248996734619	33.74964690208435	34.09964394569397	36.68570303916931	4.10321307182312	[30.588207960128784, 30.70504093170166, 31.689581871032715, 31.856292009353638, 32.60698390007019, 32.72390604019165, 32.840704917907715, 32.95750093460083, 33.07422184944153, 33.19108295440674, 33.307899951934814, 33.4245810508728, 33.541455030441284, 33.65811085700989, 33.774970054626465, 33.89160084724426, 34.008535861968994, 34.12550687789917, 34.24195194244385, 34.358875036239624, 34.45906686782837, 34.68570399284363]	[30.58183428700768, 30.698500953674348, 31.681500953674348, 31.848200953674347, 32.59820095367435, 32.71486762034102, 32.831534287007685, 32.94820095367435, 33.06486762034102, 33.181534287007686, 33.29820095367435, 33.41486762034102, 33.53153428700769, 33.648200953674355, 33.76486762034102, 33.88153428700769, 33.998200953674356, 34.11486762034102, 34.23153428700769, 34.34820095367436, 34.464867620341025, 34.69820095367436]	2021_Feb_10_1235	59.876287482423145	1	1
29	7	FALSE	AV	v	['W', 'Y', 'J', 'G', 'N', 'P', 'M', 'T', 'surprise', 'B', 'H', 'X', 'C', 'K', 'Z', 'E']	[2448, 2670, 1029, 944, 1335, 1456, 1224, 1888, 'stimAuditory/all_stimAuditory/104.wav', 760, 986, 4000, 829, 1122, 2911, 904]	12	Present	stimAuditory/all_stimAuditory/107.wav	stimVisual/all_stimVisual/205.jpg	PRESENT	0.7412261962890625	36.68873906135559	38.69899392127991	39.749369859695435	40.0994930267334	42.80206894874573	4.10307502746582	[36.694557905197144, 36.811558961868286, 37.79587984085083, 37.96262192726135, 38.71333289146423, 38.83015584945679, 38.947031021118164, 39.06398391723633, 39.18065404891968, 39.29760193824768, 39.41421294212341, 39.531004905700684, 39.64769697189331, 39.764479875564575, 39.88130593299866, 39.99796795845032, 40.11494994163513, 40.23175096511841, 40.34860301017761, 40.46546983718872, 40.58211398124695, 40.80206894874573]	[36.69820095367436, 36.814867620341026, 37.79786762034102, 37.96456762034102, 38.71456762034102, 38.83123428700769, 38.947900953674356, 39.06456762034102, 39.18123428700769, 39.29790095367436, 39.414567620341025, 39.53123428700769, 39.64790095367436, 39.764567620341026, 39.88123428700769, 39.99790095367436, 40.11456762034103, 40.231234287007695, 40.34790095367436, 40.46456762034103, 40.581234287007696, 40.81456762034103]	2021_Feb_10_1235	59.876287482423145	1	1
29	8	FALSE	NN	v	['W', 'S', 'Y', 'R', 'A', 'C', 'U', 'E', 'B', 'Z', 'N', 'T', 'J', 'M', 'V', 'K']	[2448, 1731, 2670, 1587, 697, 829, 2059, 904, 760, 2911, 1335, 1888, 1029, 1224, 2245, 1122]	9	Absent	NA	NA	ABSENT	0.6738848686218262	42.81194996833801	44.81519198417664	45.51557397842407	45.865691900253296	48.918437004089355	4.10324501991272	[42.81777000427246, 42.93459486961365, 43.91893696784973, 44.0857720375061, 44.83662295341492, 44.95339584350586, 45.07021999359131, 45.18714189529419, 45.3039128780365, 45.4204318523407, 45.53757691383362, 45.654067039489746, 45.77095699310303, 45.88759899139404, 46.00450801849365, 46.12123703956604, 46.23812985420227, 46.3549120426178, 46.47165393829346, 46.588398933410645, 46.70525097846985, 46.91843605041504]	[42.81456762034103, 42.9312342870077, 43.914234287007694, 44.08093428700769, 44.83093428700769, 44.94760095367436, 45.06426762034103, 45.180934287007695, 45.29760095367436, 45.41426762034103, 45.530934287007696, 45.64760095367436, 45.76426762034103, 45.8809342870077, 45.997600953674365, 46.11426762034103, 46.2309342870077, 46.347600953674366, 46.46426762034103, 46.5809342870077, 46.69760095367437, 46.9309342870077]	2021_Feb_10_1235	59.876287482423145	1	1
29	9	FALSE	NN	v	['G', 'S', 'C', 'Y', 'H', 'Z', 'M', 'E', 'U', 'A', 'T', 'B', 'R', 'P', 'N', 'V']	[944, 1731, 829, 2670, 986, 2911, 1224, 904, 2059, 697, 1888, 760, 1587, 1456, 1335, 2245]	9	Absent	NA	NA	ABSENT	0.7991170883178711	48.91831088066101	50.93172001838684	51.632619857788086	51.982439041137695	55.034801959991455	4.103081941604614	[48.92412996292114, 49.04098296165466, 50.02548599243164, 50.192306995391846, 50.95990800857544, 51.05975103378296, 51.17651987075806, 51.29326581954956, 51.4101619720459, 51.52701783180237, 51.64380502700806, 51.760732889175415, 51.8772349357605, 51.99415397644043, 52.11082696914673, 52.22770690917969, 52.3445839881897, 52.46116805076599, 52.57796096801758, 52.694735050201416, 52.81177997589111, 53.034801959991455]	[48.9309342870077, 49.04760095367437, 50.030600953674366, 50.197300953674365, 50.947300953674365, 51.06396762034103, 51.1806342870077, 51.297300953674366, 51.41396762034103, 51.5306342870077, 51.64730095367437, 51.763967620341035, 51.8806342870077, 51.99730095367437, 52.113967620341036, 52.2306342870077, 52.34730095367437, 52.46396762034104, 52.580634287007705, 52.69730095367437, 52.81396762034104, 53.04730095367437]	2021_Feb_10_1235	59.876287482423145	1	1
29	10	FALSE	NA	v	['H', 'B', 'K', 'U', 'R', 'V', 'T', 'P', 'W', 'Y', 'S', 'E', 'X', 'G', 'M', 'J']	[986, 760, 1122, 2059, 1587, 2245, 1888, 1456, 2448, 2670, 1731, 904, 4000, 944, 1224, 1029]	13	Present	NA	NA	PRESENT	0.94762420654296875	55.04152297973633	57.0483660697937	58.21508502960205	58.56513595581055	61.15117001533508	4.102803945541382	[55.047340869903564, 55.16419005393982, 56.1484739780426, 56.31529903411865, 57.066072940826416, 57.18301296234131, 57.299731969833374, 57.41646385192871, 57.53338694572449, 57.65021300315857, 57.767091035842896, 57.883687019348145, 58.00066590309143, 58.11714196205139, 58.23406386375427, 58.35081601142883, 58.46772599220276, 58.58469486236572, 58.70131993293762, 58.81788396835327, 58.93490386009216, 59.15116882324219]	[55.04730095367437, 55.16396762034104, 56.14696762034104, 56.313667620341036, 57.063667620341036, 57.1803342870077, 57.29700095367437, 57.41366762034104, 57.530334287007705, 57.64700095367437, 57.76366762034104, 57.880334287007706, 57.99700095367437, 58.11366762034104, 58.23033428700771, 58.347000953674375, 58.46366762034104, 58.58033428700771, 58.697000953674376, 58.81366762034104, 58.93033428700771, 59.163667620341045]	2021_Feb_10_1235	59.876287482423145	1	1
29	11	FALSE	NV	v	['W', 'E', 'G', 'Y', 'R', 'V', 'K', 'A', 'T', 'J', 'Z', 'X', 'P', 'U', 'M', 'C']	[2448, 904, 944, 2670, 1587, 2245, 1122, 697, 1888, 1029, 2911, 4000, 1456, 2059, 1224, 829]	12	Present	NA	NA	PRESENT	1.032621145248413	61.16474199295044	63.16437792778015	64.21503686904907	64.56481885910034	67.2675359249115	4.103157997131348	[61.17056083679199, 61.28722882270813, 62.27205300331116, 62.438451051712036, 63.18932294845581, 63.306190967559814, 63.422807931900024, 63.53968000411987, 63.6564359664917, 63.773391008377075, 63.89010000228882, 64.00703191757202, 64.12365698814392, 64.24041390419006, 64.35701203346252, 64.47395300865173, 64.59063601493835, 64.70769500732422, 64.82421803474426, 64.94122290611267, 65.04132795333862, 65.26753687858582]	[61.163667620341045, 61.28033428700771, 62.26333428700771, 62.43003428700771, 63.18003428700771, 63.296700953674375, 63.41336762034104, 63.53003428700771, 63.646700953674376, 63.76336762034104, 63.88003428700771, 63.99670095367438, 64.11336762034104, 64.2300342870077, 64.34670095367436, 64.46336762034102, 64.58003428700768, 64.69670095367434, 64.813367620341, 64.93003428700766, 65.04670095367432, 65.28003428700765]	2021_Feb_10_1235	59.876287482423145	1	1
29	12	FALSE	NN	v	['E', 'Y', 'W', 'V', 'G', 'J', 'M', 'H', 'B', 'R', 'Z', 'T', 'P', 'U', 'A', 'N']	[904, 2670, 2448, 2245, 944, 1029, 1224, 986, 760, 1587, 2911, 1888, 1456, 2059, 697, 1335]	8	Absent	NA	NA	ABSENT	0.5975639820098877	67.27105402946472	69.28071284294128	69.86453604698181	70.21464586257935	73.38390398025513	4.103191137313843	[67.27687191963196, 67.39376497268677, 68.37814497947693, 68.54496884346008, 69.29568004608154, 69.41264796257019, 69.52944898605347, 69.64619898796082, 69.76297092437744, 69.87965202331543, 69.99660301208496, 70.1132538318634, 70.23016595840454, 70.34677600860596, 70.46364498138428, 70.5802788734436, 70.69718885421753, 70.81388282775879, 70.93076395988464, 71.04771685600281, 71.16435098648071, 71.38390302658081]	[67.28003428700765, 67.39670095367431, 68.37970095367432, 68.54640095367432, 69.29640095367432, 69.41306762034098, 69.52973428700764, 69.6464009536743, 69.76306762034096, 69.87973428700762, 69.99640095367428, 70.11306762034094, 70.2297342870076, 70.34640095367426, 70.46306762034092, 70.57973428700758, 70.69640095367424, 70.8130676203409, 70.92973428700756, 71.04640095367422, 71.16306762034088, 71.39640095367422]	2021_Feb_10_1235	59.876287482423145	1	1
29	13	FALSE	NV	v	['U', 'A', 'N', 'P', 'B', 'R', 'G', 'J', 'T', 'K', 'S', 'C', 'X', 'Z', 'Y', 'M']	[2059, 697, 1335, 1456, 760, 1587, 944, 1029, 1888, 1122, 1731, 829, 4000, 2911, 2670, 1224]	13	Present	NA	NA	PRESENT	0.7940318584442139	73.39444184303284	75.397145986557	76.56435799598694	76.91415905952454	79.50026988983154	4.103123903274536	[73.40026092529297, 73.51686882972717, 74.50130796432495, 74.66808199882507, 75.41893887519836, 75.53570795059204, 75.65251898765564, 75.76927900314331, 75.93612599372864, 76.0029079914093, 76.11967396736145, 76.23647999763489, 76.35308003425598, 76.47006297111511, 76.5868890285492, 76.70337986946106, 76.82021403312683, 76.93715691566467, 77.05384802818298, 77.1707968711853, 77.28754091262817, 77.50026798248291]	[73.39640095367422, 73.51306762034088, 74.49606762034088, 74.66276762034089, 75.41276762034089, 75.52943428700755, 75.6461009536742, 75.76276762034087, 75.87943428700753, 75.99610095367419, 76.11276762034085, 76.2294342870075, 76.34610095367417, 76.46276762034083, 76.57943428700749, 76.69610095367415, 76.81276762034081, 76.92943428700747, 77.04610095367413, 77.16276762034079, 77.27943428700745, 77.51276762034078]	2021_Feb_10_1235	59.876287482423145	1	1
29	14	FALSE	NN	v	['S', 'A', 'U', 'Y', 'R', 'N', 'W', 'H', 'B', 'E', 'M', 'J', 'T', 'Z', 'C', 'K']	[1731, 697, 2059, 2670, 1587, 1335, 2448, 986, 760, 904, 1224, 1029, 1888, 2911, 829, 1122]	13	Absent	NA	NA	ABSENT	0.5514068603515625	79.50057888031006	81.5133969783783	82.68050694465637	83.03066992759705	85.61663699150085	4.103240013122559	[79.50639700889587, 79.62310004234314, 80.60767483711243, 80.7745578289032, 81.54197192192078, 81.64224886894226, 81.75880885124207, 81.87549304962158, 81.99252986907959, 82.10932183265686, 82.22607803344727, 82.34289288520813, 82.45971989631653, 82.57627296447754, 82.69320797920227, 82.809898853302, 82.92689990997314, 83.04338383674622, 83.16045188903809, 83.2770938873291, 83.39389085769653, 83.61663699150085]	[79.51276762034078, 79.62943428700744, 80.61243428700745, 80.77913428700745, 81.52913428700745, 81.64580095367411, 81.76246762034077, 81.87913428700743, 81.99580095367409, 82.11246762034075, 82.22913428700741, 82.34580095367407, 82.46246762034073, 82.57913428700739, 82.69580095367405, 82.81246762034071, 82.92913428700737, 83.04580095367403, 83.16246762034069, 83.27913428700735, 83.39580095367401, 83.62913428700735]	2021_Feb_10_1235	59.876287482423145	1	1
29	15	FALSE	NV	v	['G', 'C', 'U', 'K', 'S', 'R', 'W', 'N', 'Z', 'T', 'B', 'E', 'X', 'A', 'Y', 'P']	[944, 829, 2059, 1122, 1731, 1587, 2448, 1335, 2911, 1888, 760, 904, 4000, 697, 2670, 1456]	13	Present	NA	NA	PRESENT	0.7719438076019287	85.62383198738098	87.62994503974915	88.79687094688416	89.14729189872742	91.73300194740295	4.103056907653809	[85.62965083122253, 85.7463059425354, 86.73090696334839, 86.89768195152283, 87.64840602874756, 87.76531100273132, 87.88208484649658, 87.99889898300171, 88.11571884155273, 88.23250889778137, 88.34930205345154, 88.46599292755127, 88.58281898498535, 88.6995849609375, 88.81639885902405, 88.93333888053894, 89.04992699623108, 89.16664791107178, 89.28351283073425, 89.40027284622192, 89.51695394515991, 89.73300385475159]	[85.62913428700735, 85.745800953674, 86.72880095367401, 86.89550095367402, 87.64550095367402, 87.76216762034068, 87.87883428700734, 87.995500953674, 88.11216762034066, 88.22883428700732, 88.34550095367398, 88.46216762034064, 88.5788342870073, 88.69550095367396, 88.81216762034062, 88.92883428700728, 89.04550095367394, 89.1621676203406, 89.27883428700726, 89.39550095367392, 89.51216762034058, 89.74550095367391]	2021_Feb_10_1235	59.876287482423145	1	1
29	16	FALSE	NV	v	['K', 'N', 'P', 'R', 'W', 'T', 'Y', 'M', 'V', 'X', 'J', 'E', 'B', 'Z', 'H', 'A']	[1122, 1335, 1456, 1587, 2448, 1888, 2670, 1224, 2245, 4000, 1029, 904, 760, 2911, 986, 697]	10	Present	NA	NA	PRESENT	0.7211589813232422	91.74718189239502	93.74619698524477	94.56330585479736	94.91330099105836	97.84936904907228	4.103172063827515	[91.75300097465515, 91.86971402168274, 92.8539388179779, 93.02063393592834, 93.77154994010925, 93.88824200630188, 94.00510597229004, 94.12198185920715, 94.23906803131104, 94.35565996170044, 94.47229385375977, 94.58907294273376, 94.70578289031982, 94.82274103164673, 94.93938684463501, 95.05626893043518, 95.17295098304749, 95.28986597061157, 95.406574010849, 95.52331185340881, 95.62351703643799, 95.84936904907227]	[91.74550095367391, 91.86216762034057, 92.84516762034058, 93.01186762034058, 93.76186762034058, 93.87853428700724, 93.9952009536739, 94.11186762034056, 94.22853428700722, 94.34520095367388, 94.46186762034054, 94.5785342870072, 94.69520095367386, 94.81186762034052, 94.92853428700718, 95.04520095367384, 95.1618676203405, 95.27853428700716, 95.39520095367382, 95.51186762034048, 95.62853428700714, 95.86186762034048]	2021_Feb_10_1235	59.876287482423145	1	1
29	17	FALSE	NN	v	['S', 'J', 'T', 'G', 'N', 'B', 'V', 'P', 'U', 'C', 'Y', 'A', 'M', 'W', 'H', 'Z']	[1731, 1029, 1888, 944, 1335, 760, 2245, 1456, 2059, 829, 2670, 697, 1224, 2448, 986, 2911]	10	Absent	NA	NA	ABSENT	0.6539011001586914	97.85323786735536	99.86270189285278	100.6797468662262	101.02979683876038	103.965735912323	4.103034019470215	[97.85905504226685, 97.97610688209534, 98.96032881736755, 99.12703490257263, 99.87795305252075, 99.99483799934387, 100.11140990257263, 100.22817897796631, 100.34520196914673, 100.46222496032715, 100.57855796813965, 100.69539093971252, 100.8124418258667, 100.92924690246582, 101.04579591751099, 101.16259598731995, 101.27953505516052, 101.39634895324707, 101.5130660533905, 101.63020586967468, 101.7464919090271, 101.96573686599731]	[97.86186762034048, 97.97853428700714, 98.96153428700714, 99.12823428700715, 99.87823428700715, 99.9949009536738, 100.11156762034047, 100.22823428700713, 100.34490095367379, 100.46156762034045, 100.5782342870071, 100.69490095367377, 100.81156762034043, 100.92823428700709, 101.04490095367375, 101.1615676203404, 101.27823428700707, 101.39490095367373, 101.51156762034039, 101.62823428700705, 101.7449009536737, 101.97823428700704]	2021_Feb_10_1235	59.876287482423145	1	1
29	18	FALSE	VV	v	['M', 'Y', 'E', 'A', 'J', 'Z', 'T', 'B', 'S', 'G', 'surprise', 'N', 'P', 'X', 'R', 'W']	[1224, 2670, 904, 697, 1029, 2911, 1888, 760, 1731, 944, 'stimAuditory/all_stimAuditory/108.wav', 1335, 1456, 4000, 1587, 2448]	14	Present	NA	stimVisual/all_stimVisual/122.jpg	PRESENT	0.6423749923706055	103.9764199256897	105.97880697250366	107.26269698143004	107.61277103424072	110.08210396766664	4.103296995162964	[103.98223900794983, 104.09913396835327, 105.08368992805481, 105.25032901763916, 106.00117182731628, 106.11787796020508, 106.2345838546753, 106.35143494606018, 106.46852397918701, 106.5853660106659, 106.70182991027832, 106.8187530040741, 106.93541383743286, 107.05269002914429, 107.16929602622986, 107.28590297698975, 107.4025809764862, 107.51944088935852, 107.6362509727478, 107.75302505493164, 107.8697419166565, 108.08210301399231]	[103.97823428700704, 104.0949009536737, 105.0779009536737, 105.24460095367371, 105.99460095367371, 106.11126762034037, 106.22793428700703, 106.34460095367369, 106.46126762034035, 106.57793428700701, 106.69460095367367, 106.81126762034033, 106.92793428700699, 107.04460095367365, 107.16126762034031, 107.27793428700697, 107.39460095367363, 107.51126762034029, 107.62793428700695, 107.74460095367361, 107.86126762034027, 108.0946009536736]	2021_Feb_10_1235	59.876287482423145	1	1
29	19	FALSE	NV	v	['H', 'U', 'K', 'S', 'Y', 'P', 'J', 'W', 'R', 'N', 'X', 'B', 'V', 'A', 'Z', 'C']	[986, 2059, 1122, 1731, 2670, 1456, 1029, 2448, 1587, 1335, 4000, 760, 2245, 697, 2911, 829]	11	Present	NA	NA	PRESENT	0.9035801887512208	110.08279299736024	112.09528493881226	113.02918696403503	113.3791160583496	116.19846892356873	4.10318398475647	[110.08861088752747, 110.20559883117676, 111.19003987312317, 111.35673499107361, 112.1245698928833, 112.22418999671936, 112.34111905097961, 112.45774602890015, 112.5745780467987, 112.69146490097046, 112.80840301513672, 112.92498183250427, 113.04196691513062, 113.1585910320282, 113.27551198005676, 113.39220690727234, 113.50904393196106, 113.62567901611328, 113.74246287345886, 113.85929203033447, 113.97633600234985, 114.19846892356873]	[110.0946009536736, 110.21126762034027, 111.19426762034027, 111.36096762034028, 112.11096762034028, 112.22763428700694, 112.3443009536736, 112.46096762034026, 112.57763428700692, 112.69430095367358, 112.81096762034024, 112.9276342870069, 113.04430095367356, 113.16096762034022, 113.27763428700688, 113.39430095367354, 113.5109676203402, 113.62763428700686, 113.74430095367352, 113.86096762034018, 113.97763428700684, 114.21096762034017]	2021_Feb_10_1235	59.876287482423145	1	1
29	20	FALSE	NV	v	['K', 'T', 'B', 'Z', 'A', 'V', 'U', 'N', 'H', 'G', 'C', 'S', 'X', 'M', 'P', 'W']	[1122, 1888, 760, 2911, 697, 2245, 2059, 1335, 986, 944, 829, 1731, 4000, 1224, 1456, 2448]	13	Present	NA	NA	PRESENT	0.5723609924316406	116.20617985725404	118.211767911911	119.37888193130492	119.72896599769592	122.31483697891235	4.103069067001343	[116.21199989318848, 116.32879400253296, 117.3130350112915, 117.47998595237732, 118.23072099685669, 118.34745383262634, 118.46427083015442, 118.5813889503479, 118.69797396659851, 118.81470799446106, 118.93140482902527, 119.04817295074463, 119.16504693031311, 119.28196001052856, 119.39855003356934, 119.51545286178589, 119.6319830417633, 119.74895596504211, 119.865651845932, 119.98261284828186, 120.0991759300232, 120.31483697891235]	[116.21096762034017, 116.32763428700683, 117.31063428700683, 117.47733428700684, 118.22733428700684, 118.3440009536735, 118.46066762034016, 118.57733428700682, 118.69400095367348, 118.81066762034014, 118.9273342870068, 119.04400095367346, 119.16066762034012, 119.27733428700678, 119.39400095367344, 119.5106676203401, 119.62733428700676, 119.74400095367342, 119.86066762034008, 119.97733428700674, 120.0940009536734, 120.32733428700674]	2021_Feb_10_1235	59.876287482423145	1	1
29	21	FALSE	AA	v	['R', 'H', 'N', 'S', 'K', 'G', 'surprise', 'U', 'J', 'X', 'T', 'P', 'A', 'C', 'Y', 'W']	[1587, 986, 1335, 1731, 1122, 944, 'stimAuditory/all_stimAuditory/210.wav', 2059, 1029, 4000, 1888, 1456, 697, 829, 2670, 2448]	10	Present	stimAuditory/all_stimAuditory/104.wav	stimVisual/all_stimVisual/220.jpg	PRESENT	1.9211459159851072	122.32938385009766	124.32799196243286	125.14512801170348	125.495099067688	128.43120288848877	4.103210926055908	[122.33520197868347, 122.45166802406311, 123.41937303543091, 123.58632898330688, 124.35379385948181, 124.47054505348206, 124.58724784851074, 124.7043559551239, 124.82086396217346, 124.93768787384033, 125.05454683303833, 125.17127203941345, 125.28827095031738, 125.4050190448761, 125.5217068195343, 125.63865184783936, 125.73842191696167, 125.87200689315796, 125.98927688598633, 126.08881402015686, 126.20578289031982, 126.43120193481445]	[122.32733428700674, 122.4440009536734, 123.4270009536734, 123.5937009536734, 124.3437009536734, 124.46036762034007, 124.57703428700673, 124.69370095367339, 124.81036762034005, 124.9270342870067, 125.04370095367337, 125.16036762034003, 125.27703428700669, 125.39370095367335, 125.51036762034, 125.62703428700667, 125.74370095367333, 125.86036762033999, 125.97703428700665, 126.0937009536733, 126.21036762033997, 126.4437009536733]	2021_Feb_10_1235	59.876287482423145	1	1
29	22	FALSE	NA	v	['V', 'C', 'W', 'H', 'J', 'U', 'G', 'N', 'X', 'M', 'E', 'Z', 'Y', 'K', 'B', 'P']	[2245, 829, 2448, 986, 1029, 2059, 944, 1335, 4000, 1224, 904, 2911, 2670, 1122, 760, 1456]	9	Present	NA	NA	PRESENT	0.6143360137939453	128.43548798561096	130.4445400238037	131.14483189582825	131.49482202529907	134.54756999015808	4.10302996635437	[128.4413080215454, 128.55835103988647, 129.54274988174438, 129.70962691307068, 130.46020102500916, 130.57684183120728, 130.6938989162445, 130.81072688102722, 130.92753195762634, 131.04409503936768, 131.16083598136902, 131.27780485153198, 131.39452004432678, 131.51141500473022, 131.6284899711609, 131.744961977005, 131.8618860244751, 131.97847390174866, 132.09530782699585, 132.2121069431305, 132.32897686958313, 132.54756903648376]	[128.4437009536733, 128.56036762033997, 129.54336762033998, 129.71006762033997, 130.46006762033997, 130.57673428700664, 130.69340095367332, 130.81006762034, 130.92673428700667, 131.04340095367334, 131.16006762034002, 131.2767342870067, 131.39340095367336, 131.51006762034004, 131.6267342870067, 131.7434009536734, 131.86006762034006, 131.97673428700674, 132.0934009536734, 132.21006762034008, 132.32673428700676, 132.56006762034008]	2021_Feb_10_1235	59.876287482423145	1	1
29	23	FALSE	NV	v	['P', 'B', 'G', 'J', 'N', 'V', 'M', 'A', 'R', 'W', 'S', 'H', 'U', 'X', 'E', 'T']	[1456, 760, 944, 1029, 1335, 2245, 1224, 697, 1587, 2448, 1731, 986, 2059, 4000, 904, 1888]	14	Present	NA	NA	PRESENT	0.7556760311126709	134.5588140487671	136.56092286109924	137.84451985359192	138.19445705413818	140.6639368534088	4.10301399230957	[134.56463289260864, 134.68131589889526, 135.66565990447998, 135.83260202407837, 136.58330082893372, 136.70004796981812, 136.81698489189148, 136.9339029788971, 137.05049300193787, 137.16718792915344, 137.2840449810028, 137.40084981918335, 137.51789903640747, 137.63458895683289, 137.75144982337952, 137.8680238723755, 137.9847538471222, 138.10172200202942, 138.218279838562, 138.33532190322876, 138.4351189136505, 138.6639368534088]	[134.56006762034008, 134.67673428700675, 135.65973428700676, 135.82643428700675, 136.57643428700675, 136.69310095367342, 136.8097676203401, 136.92643428700677, 137.04310095367345, 137.15976762034012, 137.2764342870068, 137.39310095367347, 137.50976762034014, 137.62643428700682, 137.7431009536735, 137.85976762034016, 137.97643428700684, 138.0931009536735, 138.2097676203402, 138.32643428700686, 138.44310095367354, 138.67643428700686]	2021_Feb_10_1235	59.876287482423145	1	1
29	24	FALSE	NN	v	['N', 'V', 'P', 'C', 'R', 'T', 'G', 'S', 'B', 'J', 'A', 'U', 'Z', 'E', 'K', 'H']	[1335, 2245, 1456, 829, 1587, 1888, 944, 1731, 760, 1029, 697, 2059, 2911, 904, 1122, 986]	8	Absent	NA	NA	ABSENT	0.7119848728179932	140.66520190238953	142.6772119998932	143.26100397109985	143.61097884178162	146.7803030014038	4.10309100151062	[140.67102098464966, 140.78793096542358, 141.772442817688, 141.93915700912476, 142.7065098285675, 142.80651688575745, 142.92348098754883, 143.0400779247284, 143.15706586837769, 143.27384090423584, 143.3906638622284, 143.50734090805054, 143.62421703338623, 143.74091601371765, 143.8577868938446, 143.9744348526001, 144.091246843338, 144.20821404457092, 144.32469391822815, 144.44167590141296, 144.5582869052887, 144.7803030014038]	[140.67643428700686, 140.79310095367353, 141.77610095367353, 141.94280095367353, 142.69280095367353, 142.8094676203402, 142.92613428700687, 143.04280095367355, 143.15946762034022, 143.2761342870069, 143.39280095367357, 143.50946762034025, 143.62613428700692, 143.7428009536736, 143.85946762034027, 143.97613428700694, 144.09280095367362, 144.2094676203403, 144.32613428700697, 144.44280095367364, 144.5594676203403, 144.79280095367363]	2021_Feb_10_1235	59.876287482423145	1	1
29	25	FALSE	NA	v	['K', 'R', 'C', 'N', 'T', 'E', 'J', 'Z', 'A', 'W', 'G', 'X', 'Y', 'M', 'H', 'V']	[1122, 1587, 829, 1335, 1888, 904, 1029, 2911, 697, 2448, 944, 4000, 2670, 1224, 986, 2245]	12	Present	NA	NA	PRESENT	1.4043400287628174	146.78846096992493	148.79340195655823	149.84408688545227	150.19392204284668	152.89666986465454	4.1032679080963135	[146.79428005218506, 146.91089487075806, 147.8952829837799, 148.06235599517822, 148.81298184394836, 148.92987489700317, 149.04693984985352, 149.1632900238037, 149.28011894226074, 149.39679193496704, 149.51362085342407, 149.6305329799652, 149.74715089797974, 149.86407804489136, 149.9807150363922, 150.09767484664917, 150.21441292762756, 150.33109402656555, 150.44787883758545, 150.5648820400238, 150.68145203590393, 150.89666891098022]	[146.79280095367363, 146.9094676203403, 147.8924676203403, 148.0591676203403, 148.8091676203403, 148.92583428700698, 149.04250095367365, 149.15916762034033, 149.275834287007, 149.39250095367368, 149.50916762034035, 149.62583428700702, 149.7425009536737, 149.85916762034037, 149.97583428700705, 150.09250095367372, 150.2091676203404, 150.32583428700707, 150.44250095367374, 150.55916762034042, 150.6758342870071, 150.9091676203404]	2021_Feb_10_1235	59.876287482423145	1	1
29	26	FALSE	VA	v	['A', 'Z', 'W', 'T', 'H', 'B', 'surprise', 'R', 'Y', 'X', 'S', 'C', 'G', 'V', 'J', 'E']	[697, 2911, 2448, 1888, 986, 760, 'stimAuditory/all_stimAuditory/124.wav', 1587, 2670, 4000, 1731, 829, 944, 2245, 1029, 904]	10	Present	NA	stimVisual/all_stimVisual/224.jpg	PRESENT	0.6338000297546387	152.91145491600037	154.90996098518372	155.72841787338257	156.07717204093933	159.01303601264954	4.10307502746582	[152.91727304458618, 153.03416085243225, 154.00164985656738, 154.1684889793396, 154.93597602844238, 155.05295491218567, 155.16970300674438, 155.28647899627686, 155.4033169746399, 155.5200378894806, 155.63680291175842, 155.75366187095642, 155.87039494514465, 155.9703710079193, 156.10407185554504, 156.20402884483337, 156.32082891464233, 156.43761801719666, 156.55428290367126, 156.67111682891846, 156.78796100616455, 157.01303601264954]	[152.9091676203404, 153.0258342870071, 154.0088342870071, 154.17553428700708, 154.92553428700708, 155.04220095367376, 155.15886762034043, 155.2755342870071, 155.39220095367378, 155.50886762034045, 155.62553428700713, 155.7422009536738, 155.85886762034048, 155.97553428700715, 156.09220095367382, 156.2088676203405, 156.32553428700717, 156.44220095367385, 156.55886762034052, 156.6755342870072, 156.79220095367387, 157.0255342870072]	2021_Feb_10_1235	59.876287482423145	1	1
29	27	FALSE	NA	v	['P', 'S', 'Z', 'W', 'J', 'K', 'V', 'H', 'X', 'N', 'B', 'A', 'C', 'R', 'E', 'M']	[1456, 1731, 2911, 2448, 1029, 1122, 2245, 986, 4000, 1335, 760, 697, 829, 1587, 904, 1224]	9	Present	NA	NA	PRESENT	0.6141772270202637	159.01797199249268	161.02649402618408	161.7266490459442	162.07721304893494	165.12940287590027	4.1029088497161865	[159.0237898826599, 159.14042592048645, 160.12479186058044, 160.29186582565308, 161.04239201545715, 161.15923690795898, 161.27610898017883, 161.39287090301514, 161.50975394248962, 161.62677884101868, 161.74317693710327, 161.86007690429688, 161.97687697410583, 162.09370493888855, 162.2105610370636, 162.3272008895874, 162.44411993026733, 162.56083297729492, 162.67762303352356, 162.79439091682434, 162.91106796264648, 163.12940192222595]	[159.0255342870072, 159.14220095367386, 160.12520095367387, 160.29190095367386, 161.04190095367386, 161.15856762034053, 161.2752342870072, 161.39190095367388, 161.50856762034056, 161.62523428700723, 161.7419009536739, 161.85856762034058, 161.97523428700725, 162.09190095367393, 162.2085676203406, 162.32523428700728, 162.44190095367395, 162.55856762034063, 162.6752342870073, 162.79190095367397, 162.90856762034065, 163.14190095367397]	2021_Feb_10_1235	59.876287482423145	1	1
29	28	FALSE	NA	v	['H', 'U', 'A', 'N', 'S', 'Y', 'G', 'W', 'E', 'T', 'J', 'V', 'X', 'B', 'R', 'C']	[986, 2059, 697, 1335, 1731, 2670, 944, 2448, 904, 1888, 1029, 2245, 4000, 760, 1587, 829]	13	Present	NA	NA	PRESENT	0.8116848468780518	165.1409149169922	167.14282488822937	168.30965304374695	168.65980005264282	171.24576997756958	4.10294508934021	[165.14673399925232, 165.26361393928528, 166.2481620311737, 166.41475796699524, 167.16567087173462, 167.28246188163757, 167.39909982681274, 167.51604390144348, 167.63275384902954, 167.74970602989197, 167.86628603935242, 167.9832320213318, 168.09990286827087, 168.2168529033661, 168.3336079120636, 168.45039105415344, 168.56711602210999, 168.68390202522278, 168.80078887939453, 168.91752791404724, 169.017413854599, 169.2457709312439]	[165.14190095367397, 165.25856762034064, 166.24156762034065, 166.40826762034064, 167.15826762034064, 167.2749342870073, 167.391600953674, 167.50826762034066, 167.62493428700733, 167.741600953674, 167.85826762034068, 167.97493428700736, 168.09160095367403, 168.2082676203407, 168.32493428700738, 168.44160095367405, 168.55826762034073, 168.6749342870074, 168.79160095367408, 168.90826762034075, 169.02493428700743, 169.25826762034075]	2021_Feb_10_1235	59.876287482423145	1	1
29	29	FALSE	NN	v	['N', 'A', 'K', 'V', 'P', 'E', 'Y', 'C', 'S', 'M', 'J', 'U', 'G', 'W', 'R', 'B']	[1335, 697, 1122, 2245, 1456, 904, 2670, 829, 1731, 1224, 1029, 2059, 944, 2448, 1587, 760]	9	Absent	NA	NA	ABSENT	0.5921652317047119	171.24751091003418	173.2591769695282	173.9593858718872	174.3093900680542	177.3621368408203	4.102959871292114	[171.25333094596863, 171.3699929714203, 172.3547990322113, 172.52143001556396, 173.28888988494873, 173.38891792297363, 173.50568389892578, 173.62240505218506, 173.7391140460968, 173.85599994659424, 173.97280502319336, 174.0896258354187, 174.20632100105286, 174.323086977005, 174.44017696380615, 174.55678987503052, 174.6734390258789, 174.79039001464844, 174.9071228504181, 175.02400183677673, 175.14080595970154, 175.362135887146]	[171.25826762034075, 171.37493428700742, 172.35793428700742, 172.52463428700742, 173.27463428700742, 173.3913009536741, 173.50796762034076, 173.62463428700744, 173.7413009536741, 173.8579676203408, 173.97463428700746, 174.09130095367414, 174.2079676203408, 174.32463428700748, 174.44130095367416, 174.55796762034083, 174.6746342870075, 174.79130095367418, 174.90796762034086, 175.02463428700753, 175.1413009536742, 175.37463428700752]	2021_Feb_10_1235	59.876287482423145	1	1
29	30	FALSE	NN	v	['P', 'W', 'E', 'U', 'J', 'R', 'S', 'V', 'C', 'B', 'M', 'N', 'K', 'Z', 'Y', 'A']	[1456, 2448, 904, 2059, 1029, 1587, 1731, 2245, 829, 760, 1224, 1335, 1122, 2911, 2670, 697]	14	Absent	NA	NA	ABSENT	0.668691873550415	177.37067985534668	179.37573790550232	180.65902590751648	181.00908303260803	183.4785039424896	4.102766036987305	[177.3764979839325, 177.4931788444519, 178.47769904136658, 178.64447283744812, 179.39499688148499, 179.5119650363922, 179.6288459300995, 179.74553298950195, 179.86237692832947, 179.97914791107178, 180.09587287902832, 180.212632894516, 180.3296480178833, 180.4464569091797, 180.56315994262695, 180.67998886108398, 180.79670095443726, 180.9134819507599, 181.0302288532257, 181.14698600769043, 181.26374888420105, 181.478502035141]	[177.37463428700752, 177.4913009536742, 178.4743009536742, 178.6410009536742, 179.3910009536742, 179.50766762034087, 179.62433428700754, 179.74100095367422, 179.8576676203409, 179.97433428700757, 180.09100095367424, 180.2076676203409, 180.3243342870076, 180.44100095367426, 180.55766762034094, 180.6743342870076, 180.79100095367428, 180.90766762034096, 181.02433428700763, 181.1410009536743, 181.25766762034098, 181.4910009536743]	2021_Feb_10_1235	59.876287482423145	1	1
29	31	FALSE	NA	v	['H', 'J', 'T', 'W', 'M', 'P', 'Z', 'N', 'R', 'V', 'X', 'G', 'B', 'S', 'U', 'K']	[986, 1029, 1888, 2448, 1224, 1456, 2911, 1335, 1587, 2245, 4000, 944, 760, 1731, 2059, 1122]	11	Present	NA	NA	PRESENT	0.5619730949401855	183.4936079978943	185.4917738437653	186.42591905593872	186.77548098564148	189.59486985206604	4.103096008300781	[183.49942588806152, 183.61642503738403, 184.58391189575195, 184.75071096420288, 185.5182979106903, 185.63517785072327, 185.75187397003174, 185.8688428401947, 185.9854438304901, 186.10238695144653, 186.21918082237244, 186.31907391548157, 186.45256400108337, 186.55261301994324, 186.6694049835205, 186.7862148284912, 186.90303587913513, 187.01981902122498, 187.13660287857056, 187.25341892242432, 187.370365858078, 187.59486889839172]	[183.4910009536743, 183.60766762034098, 184.59066762034098, 184.75736762034097, 185.50736762034097, 185.62403428700765, 185.74070095367432, 185.857367620341, 185.97403428700767, 186.09070095367434, 186.20736762034102, 186.3240342870077, 186.44070095367437, 186.55736762034104, 186.67403428700771, 186.7907009536744, 186.90736762034106, 187.02403428700774, 187.1407009536744, 187.25736762034109, 187.37403428700776, 187.60736762034108]	2021_Feb_10_1235	59.876287482423145	1	1
29	32	FALSE	NA	v	['J', 'K', 'Z', 'E', 'G', 'U', 'P', 'N', 'S', 'V', 'T', 'B', 'X', 'M', 'R', 'Y']	[1029, 1122, 2911, 904, 944, 2059, 1456, 1335, 1731, 2245, 1888, 760, 4000, 1224, 1587, 2670]	13	Present	NA	NA	PRESENT	1.278458833694458	189.6002049446106	191.60807394981384	192.77559089660645	193.1251969337463	195.71123600006104	4.103162050247192	[189.60602283477783, 189.72280192375183, 190.7071409225464, 190.87378597259521, 191.6249759197235, 191.74155497550964, 191.85841488838196, 191.97513484954834, 192.09185194969177, 192.20865392684937, 192.32563996315002, 192.44223999977112, 192.55922889709473, 192.67585802078247, 192.79255604743958, 192.90958404541016, 193.02614903450012, 193.14308500289917, 193.2599549293518, 193.3765549659729, 193.49337100982666, 193.71123790740967]	[189.60736762034108, 189.72403428700775, 190.70703428700776, 190.87373428700775, 191.62373428700775, 191.74040095367442, 191.8570676203411, 191.97373428700777, 192.09040095367445, 192.20706762034112, 192.3237342870078, 192.44040095367447, 192.55706762034114, 192.67373428700782, 192.7904009536745, 192.90706762034117, 193.02373428700784, 193.14040095367451, 193.2570676203412, 193.37373428700786, 193.49040095367454, 193.72373428700786]	2021_Feb_10_1235	59.876287482423145	1	1
29	33	FALSE	NA	v	['B', 'Z', 'G', 'R', 'N', 'P', 'S', 'X', 'H', 'V', 'C', 'J', 'M', 'A', 'E', 'Y']	[760, 2911, 944, 1587, 1335, 1456, 1731, 4000, 986, 2245, 829, 1029, 1224, 697, 904, 2670]	8	Present	NA	NA	PRESENT	0.6838710308074951	195.7232620716095	197.72444605827332	198.30814599990845	198.65819096565247	201.82760286331177	4.103156805038452	[195.72908091545105, 195.8458969593048, 196.83018493652344, 196.9972379207611, 197.74773788452148, 197.86482095718384, 197.98143601417542, 198.09816193580627, 198.215106010437, 198.33190989494324, 198.44869184494019, 198.56559801101685, 198.6822099685669, 198.79903888702393, 198.9159450531006, 199.03267002105713, 199.14944195747375, 199.266126871109, 199.38304090499878, 199.49987697601318, 199.5997829437256, 199.82760286331177]	[195.72373428700786, 195.84040095367453, 196.82340095367454, 196.99010095367453, 197.74010095367453, 197.8567676203412, 197.97343428700788, 198.09010095367455, 198.20676762034122, 198.3234342870079, 198.44010095367457, 198.55676762034125, 198.67343428700792, 198.7901009536746, 198.90676762034127, 199.02343428700794, 199.14010095367462, 199.2567676203413, 199.37343428700797, 199.49010095367464, 199.60676762034132, 199.84010095367464]	2021_Feb_10_1235	59.876287482423145	1	1
29	34	FALSE	NA	v	['P', 'W', 'G', 'A', 'S', 'N', 'J', 'E', 'V', 'Y', 'K', 'T', 'X', 'B', 'R', 'U']	[1456, 2448, 944, 697, 1731, 1335, 1029, 904, 2245, 2670, 1122, 1888, 4000, 760, 1587, 2059]	13	Present	NA	NA	PRESENT	0.7684159278869629	201.830011844635	203.8407769203186	205.00797295570376	205.3579249382019	207.94396996498108	4.103193044662476	[201.83582997322083, 201.95217084884644, 202.9368839263916, 203.10356783866882, 203.85412883758545, 203.971009016037, 204.08772087097168, 204.2047460079193, 204.32158184051514, 204.43828582763672, 204.55494594573975, 204.67185282707214, 204.78859400749207, 204.905503988266, 205.0223639011383, 205.13910293579102, 205.2558159828186, 205.37277388572693, 205.48932099342346, 205.60631895065308, 205.72300601005554, 205.94396901130676]	[201.84010095367464, 201.9567676203413, 202.9397676203413, 203.1064676203413, 203.8564676203413, 203.97313428700798, 204.08980095367465, 204.20646762034133, 204.323134287008, 204.43980095367468, 204.55646762034135, 204.67313428700803, 204.7898009536747, 204.90646762034137, 205.02313428700805, 205.13980095367472, 205.2564676203414, 205.37313428700807, 205.48980095367475, 205.60646762034142, 205.7231342870081, 205.9564676203414]	2021_Feb_10_1235	59.876287482423145	1	1
29	35	FALSE	NV	v	['C', 'M', 'S', 'W', 'A', 'U', 'J', 'X', 'Y', 'T', 'E', 'P', 'Z', 'R', 'G', 'N']	[829, 1224, 1731, 2448, 697, 2059, 1029, 4000, 2670, 1888, 904, 1456, 2911, 1587, 944, 1335]	8	Present	NA	NA	PRESENT	0.7568380832672119	207.9529280662537	209.95730900764465	210.54095196723935	210.89088201522827	214.0603368282318	4.103027820587158	[207.9587459564209, 208.07547903060913, 209.05985593795776, 209.22683596611023, 209.97724390029907, 210.09424781799316, 210.21095299720764, 210.32790398597717, 210.4446680545807, 210.56144094467163, 210.678151845932, 210.79512190818787, 210.91173481941223, 211.0287220478058, 211.14531803131104, 211.2621488571167, 211.37901282310486, 211.4955928325653, 211.61285090446472, 211.72942996025085, 211.8463590145111, 212.0603358745575]	[207.9564676203414, 208.0731342870081, 209.0561342870081, 209.22283428700808, 209.97283428700808, 210.08950095367476, 210.20616762034143, 210.3228342870081, 210.43950095367478, 210.55616762034145, 210.67283428700813, 210.7895009536748, 210.90616762034148, 211.02283428700815, 211.13950095367483, 211.2561676203415, 211.37283428700817, 211.48950095367485, 211.60616762034152, 211.7228342870082, 211.83950095367487, 212.0728342870082]	2021_Feb_10_1235	59.876287482423145	1	1
29	36	FALSE	NN	v	['B', 'G', 'T', 'V', 'C', 'E', 'U', 'N', 'K', 'H', 'W', 'P', 'Z', 'M', 'J', 'R']	[760, 944, 1888, 2245, 829, 904, 2059, 1335, 1122, 986, 2448, 1456, 2911, 1224, 1029, 1587]	8	Absent	NA	NA	ABSENT	0.8903789520263672	214.07579684257507	216.0736398696899	216.65730786323547	217.00729298591617	220.17670392990112	4.103064060211182	[214.08161687850952, 214.18167304992676, 215.16613602638245, 215.3330819606781, 216.10066986083984, 216.21726202964783, 216.33414387702942, 216.45075488090515, 216.56809997558594, 216.6676788330078, 216.7845480442047, 216.9012370109558, 217.01814198493958, 217.13494300842285, 217.25168800354004, 217.36848402023315, 217.48520398139954, 217.60229897499084, 217.7188470363617, 217.83573293685913, 217.95264601707458, 218.17670392990112]	[214.0728342870082, 214.18950095367487, 215.17250095367487, 215.33920095367486, 216.08920095367486, 216.20586762034154, 216.3225342870082, 216.43920095367488, 216.55586762034156, 216.67253428700823, 216.7892009536749, 216.90586762034158, 217.02253428700826, 217.13920095367493, 217.2558676203416, 217.37253428700828, 217.48920095367495, 217.60586762034163, 217.7225342870083, 217.83920095367498, 217.95586762034165, 218.18920095367497]	2021_Feb_10_1235	59.876287482423145	1	1
29	37	FALSE	VA	v	['E', 'W', 'H', 'U', 'surprise', 'R', 'K', 'X', 'C', 'S', 'N', 'G', 'M', 'P', 'V', 'A']	[904, 2448, 986, 2059, 'stimAuditory/all_stimAuditory/220.wav', 1587, 1122, 4000, 829, 1731, 1335, 944, 1224, 1456, 2245, 697]	8	Present	NA	stimVisual/all_stimVisual/221.jpg	PRESENT	0.5186829566955566	220.18239092826843	222.1898980140686	222.773864030838	223.12372088432312	226.2930698394775	4.1031718254089355	[220.18821001052856, 220.3050558567047, 221.28942203521729, 221.45627403259277, 222.20721697807312, 222.32371997833252, 222.44049191474915, 222.55744290351868, 222.6740369796753, 222.79099893569946, 222.90763783454895, 223.02466797828674, 223.14123702049255, 223.25816202163696, 223.37486290931702, 223.49173784255981, 223.6084849834442, 223.72532391548157, 223.8420970439911, 223.95899486541748, 224.07591605186462, 224.29306888580322]	[220.18920095367497, 220.30586762034164, 221.28886762034165, 221.45556762034164, 222.20556762034164, 222.3222342870083, 222.438900953675, 222.55556762034166, 222.67223428700834, 222.788900953675, 222.90556762034169, 223.02223428700836, 223.13890095367503, 223.2555676203417, 223.37223428700838, 223.48890095367506, 223.60556762034173, 223.7222342870084, 223.83890095367508, 223.95556762034175, 224.07223428700843, 224.30556762034175]	2021_Feb_10_1235	59.876287482423145	1	1
29	38	FALSE	NN	v	['T', 'N', 'A', 'C', 'Z', 'M', 'K', 'H', 'U', 'Y', 'V', 'S', 'R', 'E', 'P', 'W']	[1888, 1335, 697, 829, 2911, 1224, 1122, 986, 2059, 2670, 2245, 1731, 1587, 904, 1456, 2448]	8	Absent	NA	NA	ABSENT	0.8201088905334473	226.30552196502688	228.30618500709537	228.8904218673706	229.240159034729	232.40943598747253	4.103250980377197	[226.311341047287, 226.42810893058777, 227.4125518798828, 227.579283952713, 228.33005285263062, 228.44679498672485, 228.56364393234253, 228.6803789138794, 228.797278881073, 228.91418290138245, 229.03093194961548, 229.147775888443, 229.26451587677002, 229.3812358379364, 229.49819898605347, 229.6149230003357, 229.7316210269928, 229.84835004806519, 229.96540188789368, 230.08192586898804, 230.18222403526306, 230.40943598747253]	[226.30556762034175, 226.42223428700842, 227.40523428700843, 227.57193428700842, 228.32193428700842, 228.4386009536751, 228.55526762034177, 228.67193428700844, 228.78860095367511, 228.9052676203418, 229.02193428700846, 229.13860095367514, 229.2552676203418, 229.3719342870085, 229.48860095367516, 229.60526762034183, 229.7219342870085, 229.83860095367518, 229.95526762034186, 230.07193428700853, 230.1886009536752, 230.42193428700853]	2021_Feb_10_1235	59.876287482423145	1	1
29	39	FALSE	NA	v	['B', 'V', 'J', 'T', 'N', 'U', 'G', 'E', 'K', 'X', 'W', 'C', 'A', 'Z', 'Y', 'R']	[760, 2245, 1029, 1888, 1335, 2059, 944, 904, 1122, 4000, 2448, 829, 697, 2911, 2670, 1587]	10	Present	NA	NA	PRESENT	1.0563459396362305	232.4123809337616	234.4226560592651	235.24014687538147	235.5901129245758	238.52580404281616	4.103147983551025	[232.41819882392883, 232.53463697433472, 233.5188808441162, 233.6857340335846, 234.43646597862244, 234.55345797538757, 234.67023301124573, 234.7868959903717, 234.90359091758728, 235.02060103416443, 235.13723301887512, 235.25419282913208, 235.37084197998047, 235.48782682418823, 235.6044900417328, 235.721421957016, 235.83805203437805, 235.95500493049622, 236.07155990600586, 236.1884880065918, 236.30536794662476, 236.52580189704895]	[232.42193428700853, 232.5386009536752, 233.5216009536752, 233.6883009536752, 234.4383009536752, 234.55496762034187, 234.67163428700854, 234.78830095367522, 234.9049676203419, 235.02163428700857, 235.13830095367524, 235.25496762034192, 235.3716342870086, 235.48830095367526, 235.60496762034194, 235.7216342870086, 235.8383009536753, 235.95496762034196, 236.07163428700864, 236.1883009536753, 236.30496762034198, 236.5383009536753]	2021_Feb_10_1235	59.876287482423145	1	1
29	40	FALSE	NV	v	['B', 'W', 'P', 'A', 'N', 'G', 'V', 'U', 'E', 'X', 'J', 'S', 'M', 'T', 'H', 'C']	[760, 2448, 1456, 697, 1335, 944, 2245, 2059, 904, 4000, 1029, 1731, 1224, 1888, 986, 829]	10	Present	NA	NA	PRESENT	0.4611670970916748	238.53563499450684	240.5392289161682	241.35608291625977	241.70606899261475	244.64216995239255	4.102941036224365	[238.54145288467407, 238.65776801109314, 239.64205884933472, 239.80907201766968, 240.55960988998413, 240.6765959262848, 240.7931580543518, 240.9101779460907, 241.0269160270691, 241.14374589920044, 241.26056003570557, 241.37719988822937, 241.49399304389954, 241.61102604866028, 241.7275948524475, 241.84428000450134, 241.96125292778015, 242.0780348777771, 242.1949179172516, 242.31169486045837, 242.4284529685974, 242.6421709060669]	[238.5383009536753, 238.65496762034198, 239.63796762034198, 239.80466762034197, 240.55466762034197, 240.67133428700865, 240.78800095367532, 240.904667620342, 241.02133428700867, 241.13800095367534, 241.25466762034202, 241.3713342870087, 241.48800095367537, 241.60466762034204, 241.72133428700872, 241.8380009536754, 241.95466762034206, 242.07133428700874, 242.1880009536754, 242.3046676203421, 242.42133428700876, 242.65466762034208]	2021_Feb_10_1235	59.876287482423145	1	1
29	41	FALSE	NV	v	['S', 'H', 'T', 'J', 'R', 'W', 'B', 'Z', 'C', 'N', 'G', 'X', 'Y', 'U', 'A', 'M']	[1731, 986, 1888, 1029, 1587, 2448, 760, 2911, 829, 1335, 944, 4000, 2670, 2059, 697, 1224]	12	Present	NA	NA	PRESENT	0.770442008972168	244.64147806167605	246.65537095069885	247.70578289031985	248.0558350086212	250.758535861969	4.103164911270142	[244.64729690551758, 244.763986825943, 245.74840092658997, 245.91540503501892, 246.68307399749756, 246.7829339504242, 246.89960193634033, 247.01640391349792, 247.13320684432983, 247.2500238418579, 247.36673498153687, 247.4835479259491, 247.60031485557556, 247.71710586547852, 247.83396887779236, 247.95070099830627, 248.06753396987915, 248.18449091911316, 248.30110883712769, 248.41804885864258, 248.53477501869202, 248.7585370540619]	[244.65466762034208, 244.77133428700876, 245.75433428700876, 245.92103428700875, 246.67103428700875, 246.78770095367543, 246.9043676203421, 247.02103428700877, 247.13770095367545, 247.25436762034212, 247.3710342870088, 247.48770095367547, 247.60436762034215, 247.72103428700882, 247.8377009536755, 247.95436762034217, 248.07103428700884, 248.18770095367552, 248.3043676203422, 248.42103428700887, 248.53770095367554, 248.77103428700886]	2021_Feb_10_1235	59.876287482423145	1	1
29	42	FALSE	NV	v	['W', 'P', 'E', 'S', 'Z', 'T', 'R', 'A', 'N', 'U', 'Y', 'V', 'K', 'X', 'G', 'J']	[2448, 1456, 904, 1731, 2911, 1888, 1587, 697, 1335, 2059, 2670, 2245, 1122, 4000, 944, 1029]	14	Present	NA	NA	PRESENT	0.4468560218811035	250.76472902297976	252.77180194854736	254.05552792549133	254.4053909778595	256.8749039173126	4.103101968765259	[250.77054691314697, 250.8871009349823, 251.87195992469788, 252.03861689567566, 252.78929901123047, 252.9062168598175, 253.02270483970642, 253.13960003852844, 253.25650787353516, 253.37331104278564, 253.48994302749634, 253.60689282417297, 253.72356295585632, 253.84044885635376, 253.95710682868958, 254.07379484176636, 254.190771818161, 254.30762696266174, 254.42439484596252, 254.54101395606995, 254.65793299674988, 254.87490391731262]	[250.77103428700886, 250.88770095367553, 251.87070095367554, 252.03740095367553, 252.78740095367553, 252.9040676203422, 253.02073428700888, 253.13740095367555, 253.25406762034223, 253.3707342870089, 253.48740095367558, 253.60406762034225, 253.72073428700892, 253.8374009536756, 253.95406762034227, 254.07073428700895, 254.18740095367562, 254.3040676203423, 254.42073428700897, 254.53740095367564, 254.65406762034232, 254.88740095367564]	2021_Feb_10_1235	59.876287482423145	1	1
29	43	FALSE	NA	v	['U', 'E', 'K', 'G', 'B', 'N', 'T', 'P', 'C', 'W', 'R', 'X', 'H', 'M', 'S', 'V']	[2059, 904, 1122, 944, 760, 1335, 1888, 1456, 829, 2448, 1587, 4000, 986, 1224, 1731, 2245]	12	Present	NA	NA	PRESENT	0.3401219844818115	256.8877749443054	258.88805294036865	259.9386749267578	260.28848004341125	262.99126982688904	4.103216886520386	[256.89359283447266, 257.0105049610138, 257.9948959350586, 258.1616630554199, 258.9124069213867, 259.0292909145355, 259.14594984054565, 259.2628529071808, 259.37960386276245, 259.496386051178, 259.6131498813629, 259.72987484931946, 259.8469228744507, 259.9635968208313, 260.0801739692688, 260.19706296920776, 260.31401085853577, 260.4305419921875, 260.54749488830566, 260.664479970932, 260.76425886154175, 260.9912688732147]	[256.88740095367564, 257.0040676203423, 257.9870676203423, 258.1537676203423, 258.9037676203423, 259.020434287009, 259.13710095367566, 259.25376762034233, 259.370434287009, 259.4871009536757, 259.60376762034235, 259.720434287009, 259.8371009536757, 259.9537676203424, 260.07043428700905, 260.1871009536757, 260.3037676203424, 260.4204342870091, 260.53710095367575, 260.6537676203424, 260.7704342870091, 261.00376762034244]	2021_Feb_10_1235	59.876287482423145	1	1
29	44	FALSE	NA	v	['U', 'B', 'G', 'Y', 'T', 'S', 'M', 'H', 'K', 'C', 'X', 'E', 'V', 'A', 'P', 'N']	[2059, 760, 944, 2670, 1888, 1731, 1224, 986, 1122, 829, 4000, 904, 2245, 697, 1456, 1335]	11	Present	NA	NA	PRESENT	0.6887469291687012	262.99466490745544	265.00432991981506	265.93866205215454	266.28818106651306	269.10763692855835	4.103307008743286	[263.0004839897156, 263.1169469356537, 264.1011838912964, 264.26810097694397, 265.01868891716003, 265.13562393188477, 265.2523229122162, 265.3691508769989, 265.4860620498657, 265.60285091400146, 265.7195098400116, 265.8364579677582, 265.9529860019684, 266.07017397880554, 266.18660497665405, 266.30350494384766, 266.4204168319702, 266.53722500801086, 266.6537868976593, 266.77080392837524, 266.88752484321594, 267.10763692855835]	[263.00376762034244, 263.1204342870091, 264.1034342870091, 264.2701342870091, 265.0201342870091, 265.1368009536758, 265.25346762034246, 265.37013428700914, 265.4868009536758, 265.6034676203425, 265.72013428700916, 265.83680095367583, 265.9534676203425, 266.0701342870092, 266.18680095367586, 266.30346762034253, 266.4201342870092, 266.5368009536759, 266.65346762034255, 266.7701342870092, 266.8868009536759, 267.12013428700925]	2021_Feb_10_1235	59.876287482423145	1	1
29	45	FALSE	VN	v	['N', 'Z', 'Y', 'W', 'G', 'K', 'J', 'B', 'R', 'P', 'surprise', 'M', 'E', 'H', 'U', 'C']	[1335, 2911, 2670, 2448, 944, 1122, 1029, 760, 1587, 1456, 'stimAuditory/all_stimAuditory/112.wav', 1224, 904, 986, 2059, 829]	14	Absent	NA	stimVisual/all_stimVisual/250.jpg	ABSENT	0.3972280025482178	269.1173369884491	271.12079906463623	272.4053030014038	272.7545819282532	275.22400403022766	4.103204965591431	[269.12315583229065, 269.2401168346405, 270.2244219779968, 270.3911979198456, 271.14195489883423, 271.25900888442993, 271.3756699562073, 271.4922790527344, 271.6089630126953, 271.72593903541565, 271.84265995025635, 271.95943689346313, 272.0762629508972, 272.19318103790283, 272.30992889404297, 272.4265878200531, 272.5435848236084, 272.66062688827515, 272.77712988853455, 272.893914937973, 273.01064801216125, 273.22400403022766]	[269.12013428700925, 269.2368009536759, 270.21980095367593, 270.3865009536759, 271.1365009536759, 271.2531676203426, 271.36983428700927, 271.48650095367594, 271.6031676203426, 271.7198342870093, 271.83650095367597, 271.95316762034264, 272.0698342870093, 272.186500953676, 272.30316762034266, 272.41983428700934, 272.536500953676, 272.6531676203427, 272.76983428700936, 272.88650095367603, 273.0031676203427, 273.23650095367606]	2021_Feb_10_1235	59.876287482423145	1	1
29	46	FALSE	NA	v	['E', 'Z', 'B', 'A', 'C', 'S', 'M', 'X', 'J', 'H', 'N', 'P', 'Y', 'V', 'R', 'U']	[904, 2911, 760, 697, 829, 1731, 1224, 4000, 1029, 986, 1335, 1456, 2670, 2245, 1587, 2059]	8	Present	NA	NA	PRESENT	0.5465049743652344	275.2237150669098	277.2374429702759	277.8209660053253	278.170991897583	281.34036898612976	4.102926015853882	[275.229532957077, 275.34638500213623, 276.33074283599854, 276.497447013855, 277.2654049396515, 277.36512994766235, 277.4819028377533, 277.59861493110657, 277.71538186073303, 277.83218789100647, 277.94897294044495, 278.0657699108124, 278.1825568675995, 278.29938197135925, 278.4162108898163, 278.53309893608093, 278.6497938632965, 278.7665419578552, 278.88340282440186, 279.0001440048218, 279.11726689338684, 279.34036803245544]	[275.23650095367606, 275.35316762034273, 276.33616762034274, 276.5028676203427, 277.2528676203427, 277.3695342870094, 277.4862009536761, 277.60286762034275, 277.7195342870094, 277.8362009536761, 277.9528676203428, 278.06953428700945, 278.1862009536761, 278.3028676203428, 278.41953428700947, 278.53620095367614, 278.6528676203428, 278.7695342870095, 278.88620095367617, 279.00286762034284, 279.1195342870095, 279.35286762034286]	2021_Feb_10_1235	59.876287482423145	1	1
29	47	FALSE	NN	v	['N', 'P', 'V', 'Y', 'W', 'Z', 'H', 'T', 'M', 'A', 'S', 'E', 'R', 'G', 'J', 'K']	[1335, 1456, 2245, 2670, 2448, 2911, 986, 1888, 1224, 697, 1731, 904, 1587, 944, 1029, 1122]	9	Absent	NA	NA	ABSENT	0.39910292625427246	281.34706807136536	283.3535358905792	284.05457401275635	284.4041590690613	287.4567358493805	4.1031999588012695	[281.3528869152069, 281.4695429801941, 282.4539248943329, 282.62092995643616, 283.37147188186646, 283.4884479045868, 283.6051368713379, 283.72200298309326, 283.83875703811646, 283.9554879665375, 284.0721459388733, 284.18913984298706, 284.30568194389343, 284.42269802093506, 284.53935194015503, 284.65624594688416, 284.7730188369751, 284.8897738456726, 285.0066239833832, 285.12330198287964, 285.24026584625244, 285.4567370414734]	[281.35286762034286, 281.46953428700954, 282.45253428700954, 282.61923428700953, 283.36923428700953, 283.4859009536762, 283.6025676203429, 283.71923428700956, 283.83590095367623, 283.9525676203429, 284.0692342870096, 284.18590095367625, 284.3025676203429, 284.4192342870096, 284.5359009536763, 284.65256762034295, 284.7692342870096, 284.8859009536763, 285.002567620343, 285.11923428700965, 285.2359009536763, 285.46923428700967]	2021_Feb_10_1235	59.876287482423145	1	1
29	48	FALSE	NN	v	['P', 'C', 'R', 'Y', 'W', 'E', 'S', 'T', 'U', 'B', 'N', 'A', 'H', 'M', 'V', 'G']	[1456, 829, 1587, 2670, 2448, 904, 1731, 1888, 2059, 760, 1335, 697, 986, 1224, 2245, 944]	14	Absent	NA	NA	ABSENT	0.3728330135345459	287.47004199028015	289.47034788131714	290.75380992889404	291.1038808822632	293.5731029510498	4.102755069732666	[287.4758608341217, 287.5928728580475, 288.5768759250641, 288.74374198913574, 289.49471783638, 289.61139392852783, 289.7283818721771, 289.8450310230255, 289.9618630409241, 290.0785460472107, 290.195200920105, 290.3123199939728, 290.42910385131836, 290.54582691192627, 290.66272497177124, 290.77941703796387, 290.8962800502777, 291.01290798187256, 291.1296248435974, 291.24645805358887, 291.34650588035583, 291.5731039047241]	[287.46923428700967, 287.58590095367634, 288.56890095367635, 288.73560095367634, 289.48560095367634, 289.602267620343, 289.7189342870097, 289.83560095367636, 289.95226762034304, 290.0689342870097, 290.1856009536764, 290.30226762034306, 290.41893428700973, 290.5356009536764, 290.6522676203431, 290.76893428700976, 290.88560095367643, 291.0022676203431, 291.1189342870098, 291.23560095367645, 291.3522676203431, 291.5856009536765]	2021_Feb_10_1235	59.876287482423145	1	1
29	49	FALSE	NV	v	['U', 'Z', 'V', 'K', 'Y', 'E', 'A', 'R', 'M', 'X', 'T', 'B', 'P', 'J', 'W', 'S']	[2059, 2911, 2245, 1122, 2670, 904, 697, 1587, 1224, 4000, 1888, 760, 1456, 1029, 2448, 1731]	10	Present	NA	NA	PRESENT	0.6568849086761475	293.5768840312958	295.58670806884766	296.403342962265	296.7539210319519	299.6894700527191	4.10276198387146	[293.58270287513733, 293.6991069316864, 294.6833519935608, 294.8503749370575, 295.6010069847107, 295.7179968357086, 295.83463501930237, 295.95170402526855, 296.0682199001312, 296.1850960254669, 296.30163502693176, 296.4186010360718, 296.53546500205994, 296.6522009372711, 296.76884603500366, 296.8858139514923, 297.0024998188019, 297.1195089817047, 297.2361969947815, 297.35277485847473, 297.46981287002563, 297.68947100639343]	[293.5856009536765, 293.70226762034315, 294.68526762034315, 294.85196762034315, 295.60196762034315, 295.7186342870098, 295.8353009536765, 295.95196762034317, 296.06863428700984, 296.1853009536765, 296.3019676203432, 296.41863428700987, 296.53530095367654, 296.6519676203432, 296.7686342870099, 296.88530095367656, 297.00196762034324, 297.1186342870099, 297.2353009536766, 297.35196762034326, 297.46863428700993, 297.7019676203433]	2021_Feb_10_1235	59.876287482423145	1	1
29	50	FALSE	NV	v	['G', 'W', 'J', 'H', 'C', 'Y', 'B', 'V', 'M', 'A', 'K', 'X', 'U', 'N', 'P', 'Z']	[944, 2448, 1029, 986, 829, 2670, 760, 2245, 1224, 697, 1122, 4000, 2059, 1335, 1456, 2911]	12	Present	NA	NA	PRESENT	0.5735540390014648	299.6995429992676	301.70259499549866	302.753103017807	303.1034939289093	305.80583691596985	4.103241920471191	[299.7053608894348, 299.8224458694458, 300.8064339160919, 300.97351694107056, 301.724200963974, 301.8408808708191, 301.957839012146, 302.07451486587524, 302.191458940506, 302.30812096595764, 302.4248960018158, 302.541690826416, 302.6585268974304, 302.7753429412842, 302.89206099510193, 303.0087559223175, 303.12572288513184, 303.24235796928406, 303.35939288139343, 303.4761788845062, 303.5932500362396, 303.80583596229553]	[299.7019676203433, 299.81863428700996, 300.80163428700996, 300.96833428700995, 301.71833428700995, 301.8350009536766, 301.9516676203433, 302.06833428701, 302.18500095367665, 302.3016676203433, 302.41833428701, 302.5350009536767, 302.65166762034335, 302.76833428701, 302.8850009536767, 303.00166762034337, 303.11833428701004, 303.2350009536767, 303.3516676203434, 303.46833428701007, 303.58500095367674, 303.8183342870101]	2021_Feb_10_1235	59.876287482423145	1	1
29	51	FALSE	AN	v	['T', 'G', 'R', 'E', 'surprise', 'Z', 'Y', 'N', 'H', 'U', 'A', 'V', 'J', 'W', 'P', 'S']	[1888, 944, 1587, 904, 'stimAuditory/all_stimAuditory/117.wav', 2911, 2670, 1335, 986, 2059, 697, 2245, 1029, 2448, 1456, 1731]	8	Absent	stimAuditory/all_stimAuditory/108.wav	stimVisual/all_stimVisual/104.jpg	ABSENT	0.37090110778808594	305.80590987205505	307.81905484199524	308.4028389453888	308.7530279159546	311.92220401763916	4.103149175643921	[305.81172800064087, 305.9285089969635, 306.91293501853943, 307.0799548625946, 307.8473370075226, 307.94757986068726, 308.0640969276428, 308.1809039115906, 308.29773902893066, 308.4147038459778, 308.5312168598175, 308.648295879364, 308.7649099826813, 308.88166403770447, 308.9985499382019, 309.11540699005127, 309.23208689689636, 309.3490400314331, 309.46564388275146, 309.5823609828949, 309.69928002357483, 309.92220282554626]	[305.8183342870101, 305.93500095367676, 306.91800095367677, 307.08470095367676, 307.83470095367676, 307.95136762034343, 308.0680342870101, 308.1847009536768, 308.30136762034346, 308.41803428701013, 308.5347009536768, 308.6513676203435, 308.76803428701015, 308.8847009536768, 309.0013676203435, 309.1180342870102, 309.23470095367685, 309.3513676203435, 309.4680342870102, 309.5847009536769, 309.70136762034355, 309.9347009536769]	2021_Feb_10_1235	59.876287482423145	1	1
29	52	FALSE	NV	v	['W', 'E', 'T', 'P', 'C', 'B', 'V', 'N', 'H', 'R', 'Z', 'X', 'U', 'K', 'A', 'G']	[2448, 904, 1888, 1456, 829, 760, 2245, 1335, 986, 1587, 2911, 4000, 2059, 1122, 697, 944]	12	Present	NA	NA	PRESENT	0.4875080585479736	311.9292719364166	313.93543696403503	314.9859230518341	315.3360080718994	318.0385718345642	4.103134870529175	[311.9350919723511, 312.05186104774475, 313.0360050201416, 313.2029399871826, 313.95409083366394, 314.07045888900757, 314.1873199939728, 314.30408096313477, 314.4210510253906, 314.5376629829407, 314.6545238494873, 314.77141189575195, 314.88807487487793, 315.00489497184753, 315.12161898612976, 315.2383110523224, 315.3552749156952, 315.4718990325928, 315.5888910293579, 315.70556688308716, 315.82240200042725, 316.0385699272156]	[311.9347009536769, 312.05136762034357, 313.0343676203436, 313.20106762034357, 313.95106762034357, 314.06773428701024, 314.1844009536769, 314.3010676203436, 314.41773428701026, 314.53440095367694, 314.6510676203436, 314.7677342870103, 314.88440095367696, 315.00106762034363, 315.1177342870103, 315.234400953677, 315.35106762034366, 315.46773428701033, 315.584400953677, 315.7010676203437, 315.81773428701035, 316.0510676203437]	2021_Feb_10_1235	59.876287482423145	1	1
29	53	FALSE	NV	v	['E', 'A', 'B', 'M', 'R', 'N', 'W', 'S', 'H', 'X', 'G', 'Z', 'J', 'U', 'P', 'K']	[904, 697, 760, 1224, 1587, 1335, 2448, 1731, 986, 4000, 944, 2911, 1029, 2059, 1456, 1122]	10	Present	NA	NA	PRESENT	0.564892053604126	318.0524389743805	320.05173802375793	320.86903190612793	321.2206349372864	324.1549370288849	4.103199005126953	[318.05825901031494, 318.17497992515564, 319.1593990325928, 319.3260660171509, 320.07689905166626, 320.19361782073975, 320.31057500839233, 320.42721486091614, 320.5441429615021, 320.6609809398651, 320.77770495414734, 320.8943519592285, 321.0110459327698, 321.1279230117798, 321.24481987953186, 321.3615038394928, 321.4782979488373, 321.5952069759369, 321.71208000183105, 321.8289370536804, 321.9287829399109, 322.1549379825592]	[318.0510676203437, 318.1677342870104, 319.1507342870104, 319.31743428701037, 320.06743428701037, 320.18410095367705, 320.3007676203437, 320.4174342870104, 320.53410095367707, 320.65076762034374, 320.7674342870104, 320.8841009536771, 321.00076762034377, 321.11743428701044, 321.2341009536771, 321.3507676203438, 321.46743428701046, 321.58410095367714, 321.7007676203438, 321.8174342870105, 321.93410095367716, 322.1674342870105]	2021_Feb_10_1235	59.876287482423145	1	1
29	54	FALSE	VV	v	['V', 'E', 'G', 'H', 'Z', 'T', 'W', 'surprise', 'M', 'U', 'X', 'P', 'N', 'A', 'K', 'Y']	[2245, 904, 944, 986, 2911, 1888, 2448, 'stimAuditory/all_stimAuditory/121.wav', 1224, 2059, 4000, 1456, 1335, 697, 1122, 2670]	11	Present	NA	stimVisual/all_stimVisual/119.jpg	PRESENT	0.4572739601135254	324.1590518951416	326.16830801963806	327.1019458770752	327.4518828392029	330.2713029384613	4.102994918823242	[324.1648700237274, 324.28136587142944, 325.2658760547638, 325.432559967041, 326.1832449436188, 326.3001229763031, 326.41698002815247, 326.5338499546051, 326.65054202079773, 326.76737093925476, 326.88401985168457, 327.0174698829651, 327.1176178455353, 327.2345600128174, 327.3511588573456, 327.4679398536682, 327.5848038196564, 327.7015299797058, 327.81850695610046, 327.9351119995117, 328.05204486846924, 328.271301984787]	[324.1674342870105, 324.2841009536772, 325.2671009536772, 325.4338009536772, 326.1838009536772, 326.30046762034385, 326.4171342870105, 326.5338009536772, 326.6504676203439, 326.76713428701055, 326.8838009536772, 327.0004676203439, 327.1171342870106, 327.23380095367725, 327.3504676203439, 327.4671342870106, 327.58380095367727, 327.70046762034394, 327.8171342870106, 327.9338009536773, 328.05046762034397, 328.2838009536773]	2021_Feb_10_1235	59.876287482423145	1	1
29	55	FALSE	NA	v	['J', 'R', 'P', 'S', 'E', 'Y', 'G', 'H', 'C', 'X', 'Z', 'T', 'M', 'K', 'B', 'U']	[1029, 1587, 1456, 1731, 904, 2670, 944, 986, 829, 4000, 2911, 1888, 1224, 1122, 760, 2059]	10	Present	NA	NA	PRESENT	0.5418150424957275	330.2817120552063	332.2845380306244	333.1016330718994	333.45170497894287	336.3876700401306	4.103132009506226	[330.28753185272217, 330.4045670032501, 331.3888578414917, 331.5555679798126, 332.30648589134216, 332.42332696914673, 332.54013085365295, 332.6570188999176, 332.77378392219543, 332.89040088653564, 333.0072000026703, 333.12382888793945, 333.24082803726196, 333.3575060367584, 333.4744608402252, 333.5912790298462, 333.7080638408661, 333.8246738910675, 333.94142603874207, 334.05824398994446, 334.1749620437622, 334.3876688480377]	[330.2838009536773, 330.400467620344, 331.383467620344, 331.550167620344, 332.300167620344, 332.41683428701066, 332.53350095367733, 332.650167620344, 332.7668342870107, 332.88350095367736, 333.00016762034403, 333.1168342870107, 333.2335009536774, 333.35016762034405, 333.4668342870107, 333.5835009536774, 333.7001676203441, 333.81683428701075, 333.9335009536774, 334.0501676203441, 334.1668342870108, 334.4001676203441]	2021_Feb_10_1235	59.876287482423145	1	1
29	56	FALSE	NV	v	['G', 'M', 'Z', 'W', 'S', 'C', 'A', 'V', 'Y', 'T', 'X', 'P', 'K', 'N', 'J', 'E']	[944, 1224, 2911, 2448, 1731, 829, 697, 2245, 2670, 1888, 4000, 1456, 1122, 1335, 1029, 904]	11	Present	NA	NA	PRESENT	0.3391377925872803	336.38817405700684	338.4008228778839	339.33494091033936	339.68467688560486	342.50403690338135	4.1032140254974365	[336.39399099349976, 336.51090598106384, 337.4953598976135, 337.66199588775635, 338.4296438694, 338.52964782714844, 338.6464829444885, 338.7631869316101, 338.87999391555786, 338.9969918727875, 339.1136658191681, 339.2303259372711, 339.34731888771057, 339.4640328884125, 339.58068203926086, 339.69742703437805, 339.81437587738037, 339.9311590194702, 340.0479910373688, 340.16469383239746, 340.28160095214844, 340.50403594970703]	[336.4001676203441, 336.5168342870108, 337.4998342870108, 337.6665342870108, 338.4165342870108, 338.53320095367746, 338.64986762034414, 338.7665342870108, 338.8832009536775, 338.99986762034416, 339.11653428701084, 339.2332009536775, 339.3498676203442, 339.46653428701086, 339.58320095367753, 339.6998676203442, 339.8165342870109, 339.93320095367756, 340.04986762034423, 340.1665342870109, 340.2832009536776, 340.5165342870109]	2021_Feb_10_1235	59.876287482423145	1	1
29	57	FALSE	NN	v	['C', 'W', 'K', 'Z', 'N', 'H', 'E', 'P', 'Y', 'T', 'B', 'V', 'A', 'S', 'U', 'M']	[829, 2448, 1122, 2911, 1335, 986, 904, 1456, 2670, 1888, 760, 2245, 697, 1731, 2059, 1224]	10	Absent	NA	NA	ABSENT	0.4236409664154053	342.51132583618164	344.5174539089203	345.3344099521637	345.68484902381897	348.62040400505066	4.102950096130371	[342.5171458721161, 342.63414788246155, 343.6187388896942, 343.7851710319519, 344.5360360145569, 344.6529769897461, 344.7696478366852, 344.88646602630615, 345.0031759738922, 345.1201238632202, 345.23684000968933, 345.353698015213, 345.4703049659729, 345.5870189666748, 345.7040069103241, 345.82064390182495, 345.9376289844513, 346.05436086654663, 346.1710879802704, 346.2879569530487, 346.4047169685364, 346.62040400505066]	[342.5165342870109, 342.6332009536776, 343.6162009536776, 343.7829009536776, 344.5329009536776, 344.64956762034427, 344.76623428701095, 344.8829009536776, 344.9995676203443, 345.11623428701097, 345.23290095367764, 345.3495676203443, 345.466234287011, 345.58290095367767, 345.69956762034434, 345.816234287011, 345.9329009536777, 346.04956762034436, 346.16623428701104, 346.2829009536777, 346.3995676203444, 346.63290095367773]	2021_Feb_10_1235	59.876287482423145	1	1
29	58	FALSE	NA	v	['K', 'E', 'H', 'P', 'C', 'M', 'T', 'R', 'G', 'W', 'X', 'A', 'J', 'S', 'N', 'U']	[1122, 904, 986, 1456, 829, 1224, 1888, 1587, 944, 2448, 4000, 697, 1029, 1731, 1335, 2059]	11	Present	NA	NA	PRESENT	0.3170630931854248	348.63458800315857	350.6338770389557	351.56756806373596	351.9175989627838	354.7367699146271	4.102892875671387	[348.6404068470001, 348.7572569847107, 349.7246470451355, 349.89155101776123, 350.6591148376465, 350.77593183517456, 350.89267587661743, 351.0094938278198, 351.12647891044617, 351.24311804771423, 351.36006593704224, 351.4767699241638, 351.5934970378876, 351.7102129459381, 351.8269729614258, 351.9438648223877, 352.0607509613037, 352.177640914917, 352.2773859500885, 352.3941328525543, 352.51116394996643, 352.73676896095276]	[348.63290095367773, 348.7495676203444, 349.7325676203444, 349.8992676203444, 350.6492676203444, 350.7659342870111, 350.88260095367775, 350.9992676203444, 351.1159342870111, 351.2326009536778, 351.34926762034445, 351.4659342870111, 351.5826009536778, 351.6992676203445, 351.81593428701115, 351.9326009536778, 352.0492676203445, 352.16593428701117, 352.28260095367784, 352.3992676203445, 352.5159342870112, 352.74926762034454]	2021_Feb_10_1235	59.876287482423145	1	1
29	59	FALSE	NA	v	['Z', 'R', 'V', 'M', 'T', 'K', 'U', 'G', 'J', 'S', 'Y', 'X', 'B', 'N', 'P', 'W']	[2911, 1587, 2245, 1224, 1888, 1122, 2059, 944, 1029, 1731, 2670, 4000, 760, 1335, 1456, 2448]	12	Present	NA	NA	PRESENT	0.5056610107421875	354.7412939071655	356.7500560283661	357.8005030155182	358.1507160663605	360.8531370162964	4.103080987930298	[354.74711203575134, 354.863755941391, 355.8479950428009, 356.01472902297974, 356.76549792289734, 356.88253903388977, 356.99913001060486, 357.11610984802246, 357.2327768802643, 357.3496630191803, 357.4664058685303, 357.5833468437195, 357.6999158859253, 357.81661105155945, 357.93351793289185, 358.0503008365631, 358.16706705093384, 358.28374791145325, 358.40047097206116, 358.5174009799957, 358.63423585891724, 358.8531358242035]	[354.74926762034454, 354.8659342870112, 355.8489342870112, 356.0156342870112, 356.7656342870112, 356.8823009536779, 356.99896762034456, 357.11563428701123, 357.2323009536779, 357.3489676203446, 357.46563428701126, 357.58230095367793, 357.6989676203446, 357.8156342870113, 357.93230095367795, 358.0489676203446, 358.1656342870113, 358.282300953678, 358.39896762034465, 358.5156342870113, 358.632300953678, 358.86563428701135]	2021_Feb_10_1235	59.876287482423145	1	1
29	60	FALSE	NA	v	['Y', 'E', 'R', 'W', 'C', 'K', 'B', 'S', 'H', 'M', 'V', 'A', 'X', 'T', 'J', 'Z']	[2670, 904, 1587, 2448, 829, 1122, 760, 1731, 986, 1224, 2245, 697, 4000, 1888, 1029, 2911]	13	Present	NA	NA	PRESENT	0.3751680850982666	360.8641450405121	362.8662939071655	364.03393292427063	364.3834249973297	366.9695019721985	4.103208065032959	[360.8699629306793, 360.9867959022522, 361.970978975296, 362.1379840373993, 362.8887939453125, 363.00548005104065, 363.1224248409271, 363.23902583122253, 363.3559329509735, 363.47277092933655, 363.5893850326538, 363.7062318325043, 363.8232219219208, 363.93970584869385, 364.05644702911377, 364.17334485054016, 364.2900710105896, 364.4069039821625, 364.52381682395935, 364.64089584350586, 364.7573070526123, 364.9695029258728]	[360.86563428701135, 360.982300953678, 361.965300953678, 362.132000953678, 362.882000953678, 362.9986676203447, 363.11533428701136, 363.23200095367804, 363.3486676203447, 363.4653342870114, 363.58200095367806, 363.69866762034474, 363.8153342870114, 363.9320009536781, 364.04866762034476, 364.16533428701143, 364.2820009536781, 364.3986676203448, 364.51533428701146, 364.63200095367813, 364.7486676203448, 364.98200095367815]	2021_Feb_10_1235	59.876287482423145	1	1
29	61	FALSE	NA	v	['J', 'Y', 'V', 'T', 'N', 'P', 'W', 'M', 'H', 'R', 'G', 'E', 'X', 'U', 'A', 'K']	[1029, 2670, 2245, 1888, 1335, 1456, 2448, 1224, 986, 1587, 944, 904, 4000, 2059, 697, 1122]	13	Present	NA	NA	PRESENT	0.3953790664672851	366.9704749584198	368.9829988479614	370.1499259471894	370.4999580383301	373.0858700275421	4.1028711795806885	[366.97629284858704, 367.093288898468, 368.07758593559265, 368.2444489002228, 369.0118088722229, 369.1118140220642, 369.2286169528961, 369.34559202194214, 369.4622359275818, 369.5793499946594, 369.695809841156, 369.812814950943, 369.92941904067993, 370.04607486724854, 370.16299986839294, 370.2799789905548, 370.396635055542, 370.5134389400482, 370.6302809715271, 370.7469480037689, 370.86389088630676, 371.0858700275421]	[366.98200095367815, 367.0986676203448, 368.08166762034483, 368.2483676203448, 368.9983676203448, 369.1150342870115, 369.23170095367817, 369.34836762034485, 369.4650342870115, 369.5817009536782, 369.69836762034487, 369.81503428701154, 369.9317009536782, 370.0483676203449, 370.16503428701157, 370.28170095367824, 370.3983676203449, 370.5150342870116, 370.63170095367826, 370.74836762034494, 370.8650342870116, 371.09836762034496]	2021_Feb_10_1235	59.876287482423145	1	1
29	62	FALSE	NN	v	['B', 'W', 'T', 'S', 'M', 'U', 'J', 'C', 'A', 'H', 'E', 'N', 'R', 'G', 'Z', 'V']	[760, 2448, 1888, 1731, 1224, 2059, 1029, 829, 697, 986, 904, 1335, 1587, 944, 2911, 2245]	9	Absent	NA	NA	ABSENT	0.4559621810913086	373.0936858654022	375.09929895401	375.79967403411865	376.14963603019714	379.2022359371186	4.1029369831085205	[373.09950399398804, 373.21625089645386, 374.20054292678833, 374.3674318790436, 375.1184809207916, 375.23501896858215, 375.3519358634949, 375.4687440395355, 375.5854959487915, 375.7021629810333, 375.8191668987274, 375.93590688705444, 376.0529339313507, 376.169371843338, 376.286269903183, 376.4028949737549, 376.51978302001953, 376.63653683662415, 376.75330901145935, 376.8700759410858, 376.98678493499756, 377.20223593711853]	[373.09836762034496, 373.21503428701163, 374.19803428701164, 374.36473428701163, 375.11473428701163, 375.2314009536783, 375.348067620345, 375.46473428701165, 375.5814009536783, 375.698067620345, 375.8147342870117, 375.93140095367835, 376.048067620345, 376.1647342870117, 376.28140095367837, 376.39806762034505, 376.5147342870117, 376.6314009536784, 376.74806762034507, 376.86473428701174, 376.9814009536784, 377.21473428701177]	2021_Feb_10_1235	59.876287482423145	1	1
29	63	FALSE	NA	v	['Y', 'E', 'S', 'P', 'Z', 'H', 'W', 'T', 'J', 'R', 'M', 'V', 'X', 'G', 'C', 'B']	[2670, 904, 1731, 1456, 2911, 986, 2448, 1888, 1029, 1587, 1224, 2245, 4000, 944, 829, 760]	13	Present	NA	NA	PRESENT	0.3493611812591553	379.2167809009552	381.2155909538269	382.3825240135193	382.73287200927734	385.31860399246216	4.103013038635254	[379.22260093688965, 379.33951687812805, 380.3069200515747, 380.47380685806274, 381.24144101142883, 381.35819387435913, 381.47512888908386, 381.5917558670044, 381.7086868286133, 381.8254828453064, 381.94232201576233, 382.0588958263397, 382.17566895484924, 382.2928030490875, 382.40920400619507, 382.5261130332947, 382.642853975296, 382.75973296165466, 382.859689950943, 382.9764358997345, 383.09327483177185, 383.31860303878784]	[379.21473428701177, 379.33140095367844, 380.31440095367844, 380.48110095367844, 381.23110095367844, 381.3477676203451, 381.4644342870118, 381.58110095367846, 381.69776762034513, 381.8144342870118, 381.9311009536785, 382.04776762034516, 382.16443428701183, 382.2811009536785, 382.3977676203452, 382.51443428701185, 382.6311009536785, 382.7477676203452, 382.8644342870119, 382.98110095367855, 383.0977676203452, 383.3311009536786]	2021_Feb_10_1235	59.876287482423145	1	1
29	64	FALSE	NV	v	['V', 'M', 'H', 'N', 'P', 'J', 'T', 'R', 'W', 'Z', 'C', 'E', 'K', 'X', 'U', 'Y']	[2245, 1224, 986, 1335, 1456, 1029, 1888, 1587, 2448, 2911, 829, 904, 1122, 4000, 2059, 2670]	14	Present	NA	NA	PRESENT	0.4418160915374756	385.32349491119385	387.331738948822	388.6158409118652	388.9655878543854	391.43496894836426	4.103229999542236	[385.3293149471283, 385.44593596458435, 386.4300260543823, 386.59696984291077, 387.34777092933655, 387.4647488594055, 387.5814800262451, 387.69814896583557, 387.8150198459625, 387.9317400455475, 388.04864382743835, 388.16553688049316, 388.2823438644409, 388.39890599250793, 388.51575994491577, 388.6325058937073, 388.74927282333374, 388.8661630153656, 388.9828870296478, 389.0996618270874, 389.2165138721466, 389.43496894836426]	[385.3311009536786, 385.44776762034525, 386.43076762034525, 386.59746762034524, 387.34746762034524, 387.4641342870119, 387.5808009536786, 387.69746762034526, 387.81413428701194, 387.9308009536786, 388.0474676203453, 388.16413428701196, 388.28080095367864, 388.3974676203453, 388.514134287012, 388.63080095367866, 388.74746762034533, 388.864134287012, 388.9808009536787, 389.09746762034536, 389.21413428701203, 389.4474676203454]	2021_Feb_10_1235	59.876287482423145	1	1
29	65	FALSE	NA	v	['P', 'G', 'W', 'N', 'T', 'J', 'A', 'V', 'X', 'R', 'S', 'H', 'U', 'E', 'C', 'M']	[1456, 944, 2448, 1335, 1888, 1029, 697, 2245, 4000, 1587, 1731, 986, 2059, 904, 829, 1224]	9	Present	NA	NA	PRESENT	0.5673208236694336	391.44645285606384	393.4481530189514	394.1486179828644	394.4986388683319	397.5513370037079	4.10318398475647	[391.452271938324, 391.56894397735596, 392.5533058643341, 392.7201669216156, 393.47094893455505, 393.5878200531006, 393.70443296432495, 393.8214638233185, 393.9381990432739, 394.05480003356934, 394.1718158721924, 394.2885420322418, 394.4054310321808, 394.52224683761597, 394.6391839981079, 394.7555568218231, 394.8723030090332, 394.98933601379395, 395.1059408187866, 395.2227020263672, 395.32275199890137, 395.55133605003357]	[391.4474676203454, 391.56413428701205, 392.54713428701206, 392.71383428701205, 393.46383428701205, 393.5805009536787, 393.6971676203454, 393.81383428701207, 393.93050095367875, 394.0471676203454, 394.1638342870121, 394.28050095367877, 394.39716762034544, 394.5138342870121, 394.6305009536788, 394.74716762034546, 394.86383428701214, 394.9805009536788, 395.0971676203455, 395.21383428701216, 395.33050095367884, 395.5638342870122]	2021_Feb_10_1235	59.876287482423145	1	1
29	66	FALSE	AA	v	['J', 'B', 'W', 'C', 'Y', 'R', 'surprise', 'E', 'H', 'X', 'K', 'U', 'N', 'P', 'A', 'V']	[1029, 760, 2448, 829, 2670, 1587, 'stimAuditory/all_stimAuditory/115.wav', 904, 986, 4000, 1122, 2059, 1335, 1456, 697, 2245]	10	Present	stimAuditory/all_stimAuditory/210.wav	stimVisual/all_stimVisual/206.jpg	PRESENT	0.403691053390503	397.5526769161224	399.56473684310913	400.38177394866943	400.73177695274353	403.6677029132843	4.102966070175171	[397.55849504470825, 397.67546701431274, 398.6599178314209, 398.8264169692993, 399.5940639972687, 399.6942780017853, 399.8109610080719, 399.92761993408203, 400.04450392723083, 400.1614420413971, 400.29493403434753, 400.39501786231995, 400.5117778778076, 400.62856888771057, 400.7454319000244, 400.86187982559204, 400.97901582717896, 401.0957510471344, 401.2124779224396, 401.32911491394043, 401.44601798057556, 401.66770195961]	[397.5638342870122, 397.68050095367886, 398.66350095367886, 398.83020095367885, 399.58020095367885, 399.69686762034553, 399.8135342870122, 399.9302009536789, 400.04686762034555, 400.1635342870122, 400.2802009536789, 400.3968676203456, 400.51353428701225, 400.6302009536789, 400.7468676203456, 400.86353428701227, 400.98020095367895, 401.0968676203456, 401.2135342870123, 401.33020095367897, 401.44686762034564, 401.680200953679]	2021_Feb_10_1235	59.876287482423145	1	1
29	67	FALSE	NN	v	['U', 'A', 'C', 'B', 'P', 'M', 'K', 'Z', 'J', 'W', 'V', 'E', 'H', 'S', 'G', 'R']	[2059, 697, 829, 760, 1456, 1224, 1122, 2911, 1029, 2448, 2245, 904, 986, 1731, 944, 1587]	14	Absent	NA	NA	ABSENT	0.39245104789733887	403.6759898662567	405.6813259124756	406.9646809101105	407.31466484069824	409.7840700149536	4.102744102478027	[403.68180894851685, 403.7986319065094, 404.7833378314972, 404.94960594177246, 405.70050501823425, 405.8172199726105, 405.9341809749603, 406.0509920120239, 406.1677830219269, 406.2844669818878, 406.4013419151306, 406.51808285713196, 406.6349618434906, 406.7516748905182, 406.86850595474243, 406.98508501052856, 407.10178685188293, 407.21871304512024, 407.33541989326477, 407.4523959159851, 407.5691809654236, 407.7840700149536]	[403.680200953679, 403.79686762034567, 404.77986762034567, 404.94656762034566, 405.69656762034566, 405.81323428701234, 405.929900953679, 406.0465676203457, 406.16323428701236, 406.27990095367903, 406.3965676203457, 406.5132342870124, 406.62990095367905, 406.74656762034573, 406.8632342870124, 406.9799009536791, 407.09656762034575, 407.2132342870124, 407.3299009536791, 407.4465676203458, 407.56323428701245, 407.7965676203458]	2021_Feb_10_1235	59.876287482423145	1	1
29	68	FALSE	NN	v	['J', 'T', 'M', 'C', 'S', 'U', 'W', 'E', 'P', 'K', 'V', 'R', 'Z', 'N', 'H', 'G']	[1029, 1888, 1224, 829, 1731, 2059, 2448, 904, 1456, 1122, 2245, 1587, 2911, 1335, 986, 944]	11	Absent	NA	NA	ABSENT	0.4135820865631103	409.799103975296	411.79768896102905	412.731027841568	413.0811939239502	415.90043687820435	4.102747917175293	[409.80492186546326, 409.92147493362427, 410.88920998573303, 411.0560369491577, 411.82366704940796, 411.940407037735, 412.05739998817444, 412.174015045166, 412.29104495048523, 412.4074618816376, 412.5243158340454, 412.6413059234619, 412.7410879135132, 412.85802602767944, 412.97476983070374, 413.0915529727936, 413.2082259654999, 413.32505989074707, 413.44185090065, 413.5586268901825, 413.6755928993225, 413.90043687820435]	[409.7965676203458, 409.9132342870125, 410.8962342870125, 411.06293428701247, 411.81293428701247, 411.92960095367914, 412.0462676203458, 412.1629342870125, 412.27960095367916, 412.39626762034584, 412.5129342870125, 412.6296009536792, 412.74626762034586, 412.86293428701254, 412.9796009536792, 413.0962676203459, 413.21293428701256, 413.32960095367923, 413.4462676203459, 413.5629342870126, 413.67960095367926, 413.9129342870126]	2021_Feb_10_1235	59.876287482423145	1	1
29	69	FALSE	NN	v	['P', 'W', 'R', 'J', 'M', 'K', 'E', 'U', 'N', 'A', 'H', 'Z', 'S', 'C', 'G', 'B']	[1456, 2448, 1587, 1029, 1224, 1122, 904, 2059, 1335, 697, 986, 2911, 1731, 829, 944, 760]	12	Absent	NA	NA	ABSENT	0.4502110481262207	415.90577387809753	417.91381096839905	418.9641180038452	419.3142728805542	422.01680302619934	4.102992057800293	[415.91159296035767, 416.02805399894714, 417.01252484321594, 417.1792550086975, 417.93005204200745, 418.0467720031738, 418.16363883018494, 418.2805550098419, 418.39729499816895, 418.5139148235321, 418.6309108734131, 418.7476420402527, 418.864511013031, 418.98110604286194, 419.09804701805115, 419.21480083465576, 419.3314518928528, 419.4482979774475, 419.5650899410248, 419.68188190460205, 419.7987320423126, 420.01680397987366]	[415.9129342870126, 416.0296009536793, 417.0126009536793, 417.1793009536793, 417.9293009536793, 418.04596762034595, 418.1626342870126, 418.2793009536793, 418.39596762034597, 418.51263428701265, 418.6293009536793, 418.745967620346, 418.86263428701267, 418.97930095367934, 419.095967620346, 419.2126342870127, 419.32930095367936, 419.44596762034604, 419.5626342870127, 419.6793009536794, 419.79596762034606, 420.0293009536794]	2021_Feb_10_1235	59.876287482423145	1	1
29	70	FALSE	NN	v	['W', 'K', 'B', 'H', 'M', 'V', 'N', 'P', 'C', 'G', 'Z', 'Y', 'U', 'A', 'R', 'J']	[2448, 1122, 760, 986, 1224, 2245, 1335, 1456, 829, 944, 2911, 2670, 2059, 697, 1587, 1029]	13	Absent	NA	NA	ABSENT	0.3917789459228515	422.0287630558014	424.03030705451965	425.1975259780884	425.5471248626709	428.1331698894501	4.10286283493042	[422.03458189964294, 422.15126395225525, 423.13555097579956, 423.30251598358154, 424.05315589904785, 424.1700258255005, 424.28681993484497, 424.40359687805176, 424.5204348564148, 424.63718700408936, 424.7540559768677, 424.8708498477936, 424.9874019622803, 425.10429883003235, 425.2212338447571, 425.33798599243164, 425.45471000671387, 425.57173204421997, 425.68825697898865, 425.8048770427704, 425.9050199985504, 426.13316893577576]	[422.0293009536794, 422.1459676203461, 423.1289676203461, 423.2956676203461, 424.0456676203461, 424.16233428701275, 424.27900095367943, 424.3956676203461, 424.5123342870128, 424.62900095367945, 424.7456676203461, 424.8623342870128, 424.9790009536795, 425.09566762034615, 425.2123342870128, 425.3290009536795, 425.44566762034617, 425.56233428701285, 425.6790009536795, 425.7956676203462, 425.91233428701287, 426.1456676203462]	2021_Feb_10_1235	59.876287482423145	1	1
29	71	FALSE	VN	v	['R', 'H', 'G', 'V', 'M', 'N', 'Z', 'U', 'surprise', 'E', 'S', 'A', 'J', 'T', 'K', 'Y']	[1587, 986, 944, 2245, 1224, 1335, 2911, 2059, 'stimAuditory/all_stimAuditory/116.wav', 904, 1731, 697, 1029, 1888, 1122, 2670]	12	Absent	NA	stimVisual/all_stimVisual/115.jpg	ABSENT	0.39609313011169434	428.13505387306213	430.1463589668274	431.19698190689087	431.54711389541626	434.2495369911194	4.103178024291992	[428.14087200164795, 428.2576789855957, 429.2421100139618, 429.40892004966736, 430.15938091278076, 430.27636098861694, 430.3931930065155, 430.50987100601196, 430.6268289089203, 430.74348402023315, 430.860543012619, 430.97704887390137, 431.1107008457184, 431.21071887016296, 431.32768201828003, 431.44433999061584, 431.5612750053406, 431.67782187461853, 431.7945189476013, 431.9114019870758, 432.0283010005951, 432.2495369911194]	[428.1456676203462, 428.2623342870129, 429.2453342870129, 429.4120342870129, 430.1620342870129, 430.27870095367956, 430.39536762034624, 430.5120342870129, 430.6287009536796, 430.74536762034626, 430.86203428701293, 430.9787009536796, 431.0953676203463, 431.21203428701295, 431.32870095367963, 431.4453676203463, 431.562034287013, 431.67870095367965, 431.7953676203463, 431.912034287013, 432.0287009536797, 432.262034287013]	2021_Feb_10_1235	59.876287482423145	1	1
29	72	FALSE	NV	v	['B', 'E', 'G', 'K', 'N', 'R', 'S', 'T', 'P', 'X', 'A', 'C', 'H', 'Y', 'J', 'Z']	[760, 904, 944, 1122, 1335, 1587, 1731, 1888, 1456, 4000, 697, 829, 986, 2670, 1029, 2911]	10	Present	NA	NA	PRESENT	0.3286468982696533	434.2582628726959	436.2629539966583	437.0800549983978	437.4298808574677	440.3659019470215	4.102947950363159	[434.26408195495605, 434.38079595565796, 435.365042924881, 435.5320818424225, 436.28305983543396, 436.39952301979065, 436.5164258480072, 436.6331720352173, 436.74984884262085, 436.8666830062866, 436.98357701301575, 437.100261926651, 437.2172019481659, 437.33394289016724, 437.450621843338, 437.5673780441284, 437.6841690540314, 437.8009970188141, 437.9179220199585, 438.03483295440674, 438.1513240337372, 438.3659029006958]	[434.262034287013, 434.3787009536797, 435.3617009536797, 435.5284009536797, 436.2784009536797, 436.39506762034637, 436.51173428701304, 436.6284009536797, 436.7450676203464, 436.86173428701306, 436.97840095367974, 437.0950676203464, 437.2117342870131, 437.32840095367976, 437.44506762034644, 437.5617342870131, 437.6784009536798, 437.79506762034646, 437.91173428701313, 438.0284009536798, 438.1450676203465, 438.37840095367983]	2021_Feb_10_1235	59.876287482423145	1	1
29	73	FALSE	NA	v	['C', 'T', 'V', 'G', 'Z', 'E', 'Y', 'R', 'H', 'X', 'P', 'S', 'B', 'W', 'N', 'K']	[829, 1888, 2245, 944, 2911, 904, 2670, 1587, 986, 4000, 1456, 1731, 760, 2448, 1335, 1122]	10	Present	NA	NA	PRESENT	0.7738981246948242	440.3813259601593	442.3790600299835	443.196161031723	443.5462489128113	446.4822700023651	4.103209972381592	[440.38714504241943, 440.50390005111694, 441.47153782844543, 441.63838481903076, 442.40575194358826, 442.52282881736755, 442.63949704170227, 442.7564220428467, 442.87304282188416, 442.97301197052, 443.08984994888306, 443.20669388771057, 443.3233540058136, 443.44022393226624, 443.5569908618927, 443.6737689971924, 443.79058599472046, 443.90732502937317, 444.0240800380707, 444.14087295532227, 444.25767397880554, 444.4822678565979]	[440.37840095367983, 440.4950676203465, 441.4780676203465, 441.6447676203465, 442.3947676203465, 442.5114342870132, 442.62810095367985, 442.7447676203465, 442.8614342870132, 442.97810095367987, 443.09476762034654, 443.2114342870132, 443.3281009536799, 443.44476762034657, 443.56143428701324, 443.6781009536799, 443.7947676203466, 443.91143428701326, 444.02810095367994, 444.1447676203466, 444.2614342870133, 444.49476762034664]	2021_Feb_10_1235	59.876287482423145	1	1
29	74	FALSE	NA	v	['C', 'G', 'N', 'A', 'M', 'J', 'P', 'H', 'K', 'X', 'Y', 'E', 'R', 'V', 'S', 'B']	[829, 944, 1335, 697, 1224, 1029, 1456, 986, 1122, 4000, 2670, 904, 1587, 2245, 1731, 760]	10	Present	NA	NA	PRESENT	0.45047998428344727	446.48803091049194	448.4957418441773	449.3127269744873	449.66308093070984	452.59863591194153	4.102894067764282	[446.4938499927521, 446.61015582084656, 447.59484696388245, 447.76157999038696, 448.5122890472412, 448.6290669441223, 448.74604082107544, 448.862646818161, 448.9795289039612, 449.09623193740845, 449.2130718231201, 449.3298828601837, 449.446781873703, 449.5633590221405, 449.6803798675537, 449.79697585105896, 449.91378593444824, 450.0306990146637, 450.14742493629456, 450.26413583755493, 450.3809518814087, 450.59863781929016]	[446.49476762034664, 446.6114342870133, 447.5944342870133, 447.7611342870133, 448.5111342870133, 448.62780095368, 448.74446762034665, 448.86113428701333, 448.97780095368, 449.0944676203467, 449.21113428701335, 449.32780095368, 449.4444676203467, 449.5611342870134, 449.67780095368005, 449.7944676203467, 449.9111342870134, 450.02780095368007, 450.14446762034675, 450.2611342870134, 450.3778009536801, 450.61113428701344]	2021_Feb_10_1235	59.876287482423145	1	1
29	75	FALSE	NA	v	['C', 'A', 'Y', 'U', 'B', 'H', 'T', 'X', 'K', 'W', 'M', 'S', 'P', 'N', 'G', 'E']	[829, 697, 2670, 2059, 760, 986, 1888, 4000, 1122, 2448, 1224, 1731, 1456, 1335, 944, 904]	8	Present	NA	NA	PRESENT	0.39974308013916016	452.61091804504395	454.6120948791504	455.19584584236145	455.54562401771545	458.7150039672851	4.102909088134766	[452.6167359352112, 452.73346400260925, 453.7179799079895, 453.8847620487213, 454.6354548931122, 454.75221705436707, 454.86894702911377, 454.9858498573303, 455.1025619506836, 455.2195110321045, 455.33629083633423, 455.4530689716339, 455.5701439380646, 455.68673300743103, 455.8033549785614, 455.9202609062195, 456.03688788414, 456.153902053833, 456.2703649997711, 456.3873510360718, 456.48725485801697, 456.71500396728516]	[452.61113428701344, 452.7278009536801, 453.7108009536801, 453.8775009536801, 454.6275009536801, 454.7441676203468, 454.86083428701346, 454.97750095368013, 455.0941676203468, 455.2108342870135, 455.32750095368016, 455.44416762034683, 455.5608342870135, 455.6775009536802, 455.79416762034685, 455.91083428701353, 456.0275009536802, 456.1441676203469, 456.26083428701355, 456.3775009536802, 456.4941676203469, 456.72750095368025]	2021_Feb_10_1235	59.876287482423145	1	1
29	76	FALSE	NA	v	['H', 'G', 'S', 'N', 'Y', 'M', 'J', 'R', 'X', 'B', 'E', 'Z', 'A', 'V', 'T', 'C']	[986, 944, 1731, 1335, 2670, 1224, 1029, 1587, 4000, 760, 904, 2911, 697, 2245, 1888, 829]	9	Present	NA	NA	PRESENT	0.4362039566040039	458.71727204322815	460.72828102111816	461.4287989139557	461.7788019180298	464.8313698768616	4.103088855743408	[458.7230899333954, 458.8400318622589, 459.82437801361084, 459.9912040233612, 460.741672039032, 460.8585329055786, 460.97556591033936, 461.0923149585724, 461.20913791656494, 461.32576084136963, 461.4427478313446, 461.5594279766083, 461.6761989593506, 461.79295897483826, 461.9098708629608, 462.02654504776, 462.1435170173645, 462.26017594337463, 462.3768129348755, 462.4936878681183, 462.61039996147156, 462.83136892318726]	[458.72750095368025, 458.8441676203469, 459.8271676203469, 459.9938676203469, 460.7438676203469, 460.8605342870136, 460.97720095368027, 461.09386762034694, 461.2105342870136, 461.3272009536803, 461.44386762034696, 461.56053428701364, 461.6772009536803, 461.793867620347, 461.91053428701366, 462.02720095368034, 462.143867620347, 462.2605342870137, 462.37720095368036, 462.49386762034703, 462.6105342870137, 462.84386762034705]	2021_Feb_10_1235	59.876287482423145	1	1
29	77	FALSE	AV	v	['V', 'R', 'S', 'Z', 'surprise', 'C', 'B', 'X', 'Y', 'T', 'A', 'K', 'H', 'J', 'M', 'N']	[2245, 1587, 1731, 2911, 'stimAuditory/all_stimAuditory/106.wav', 829, 760, 4000, 2670, 1888, 697, 1122, 986, 1029, 1224, 1335]	8	Present	stimAuditory/all_stimAuditory/124.wav	stimVisual/all_stimVisual/200.jpg	PRESENT	0.3849809169769287	464.8404378890991	466.84450602531433	467.4285650253296	467.7790699005127	470.9477369785309	4.103230953216553	[464.84625697135925, 464.96285605430603, 465.9477038383484, 466.1143219470978, 466.8650209903717, 466.9817440509796, 467.0986099243164, 467.215402841568, 467.3322768211365, 467.4489278793335, 467.5657558441162, 467.682590007782, 467.79938793182373, 467.91615295410156, 468.03304505348206, 468.1498508453369, 468.26647901535034, 468.3835189342499, 468.50021982192993, 468.61693596839905, 468.7335879802704, 468.94773602485657]	[464.84386762034705, 464.96053428701373, 465.94353428701373, 466.1102342870137, 466.8602342870137, 466.9769009536804, 467.0935676203471, 467.21023428701375, 467.3269009536804, 467.4435676203471, 467.56023428701377, 467.67690095368044, 467.7935676203471, 467.9102342870138, 468.02690095368047, 468.14356762034714, 468.2602342870138, 468.3769009536805, 468.49356762034716, 468.61023428701384, 468.7269009536805, 468.96023428701386]	2021_Feb_10_1235	59.876287482423145	1	1
29	78	FALSE	NN	v	['V', 'K', 'C', 'N', 'G', 'T', 'E', 'B', 'M', 'Z', 'R', 'P', 'H', 'S', 'Y', 'W']	[2245, 1122, 829, 1335, 944, 1888, 904, 760, 1224, 2911, 1587, 1456, 986, 1731, 2670, 2448]	10	Absent	NA	NA	ABSENT	0.44606995582580566	470.9636099338531	472.9609570503235	473.7782049179077	474.12859201431274	477.0641028881073	4.1031458377838135	[470.9694278240204, 471.0692868232727, 472.05374097824097, 472.22071599960327, 472.988068819046, 473.10498094558716, 473.20480489730835, 473.32167291641235, 473.43843483924866, 473.5552899837494, 473.67204999923706, 473.7889039516449, 473.9056348800659, 474.0224368572235, 474.13925790786743, 474.2560238838196, 474.37282705307007, 474.48961091041565, 474.60650181770325, 474.72317385673523, 474.8401458263397, 475.0641038417816]	[470.96023428701386, 471.07690095368054, 472.05990095368054, 472.22660095368053, 472.97660095368053, 473.0932676203472, 473.2099342870139, 473.32660095368055, 473.4432676203472, 473.5599342870139, 473.6766009536806, 473.79326762034725, 473.9099342870139, 474.0266009536806, 474.1432676203473, 474.25993428701395, 474.3766009536806, 474.4932676203473, 474.60993428701397, 474.72660095368065, 474.8432676203473, 475.07660095368067]	2021_Feb_10_1235	59.876287482423145	1	1
29	79	FALSE	NN	v	['V', 'M', 'A', 'N', 'G', 'B', 'K', 'J', 'C', 'P', 'H', 'U', 'Z', 'Y', 'R', 'T']	[2245, 1224, 697, 1335, 944, 760, 1122, 1029, 829, 1456, 986, 2059, 2911, 2670, 1587, 1888]	11	Absent	NA	NA	ABSENT	0.3306770324707031	477.0703339576721	479.0772118568421	480.011029958725	480.3610889911651	483.1804690361023	4.103257179260254	[477.07615303993225, 477.19248700141907, 478.1769230365753, 478.3439359664917, 479.0945780277252, 479.21123695373535, 479.3281898498535, 479.4449348449707, 479.56191182136536, 479.6785218715668, 479.79519295692444, 479.9120879173279, 480.02881383895874, 480.1456379890442, 480.26259303092957, 480.37928199768066, 480.49595403671265, 480.61288189888, 480.7295548915863, 480.84655499458313, 480.96303701400757, 481.1804699897766]	[477.07660095368067, 477.19326762034734, 478.17626762034735, 478.34296762034734, 479.09296762034734, 479.209634287014, 479.3263009536807, 479.44296762034736, 479.55963428701403, 479.6763009536807, 479.7929676203474, 479.90963428701406, 480.02630095368073, 480.1429676203474, 480.2596342870141, 480.37630095368075, 480.49296762034743, 480.6096342870141, 480.7263009536808, 480.84296762034745, 480.9596342870141, 481.1929676203475]	2021_Feb_10_1235	59.876287482423145	1	1
