participant	trial_num	practice	task	condition	RSVP	RAP	probePos	probe_presence	surprise_sound	surprise_img	probe_response	probe_resp_time	first_fixation_time	trial_start_time	surprise_start_time	probe_start_time	trial_end_time	trial_duration	actualEventTimes	plannedEventTimes	date	framerate	marker_vol	RAP_vol
22	1	FALSE	NV	a	['N', 'M', 'E', 'Y', 'V', 'C', 'R', 'K', 'T', 'P', 'X', 'U', 'G', 'J', 'H', 'S']	[1335, 1224, 904, 2670, 2245, 829, 1587, 1122, 1888, 1456, 4000, 2059, 944, 1029, 986, 1731]	11	Present	NA	NA	PRESENT	0.2842741012573242	2.86102294921875e-6	1.9910268783569336	2.9243692715429397	3.274371178871572	6.1038689613342285	4.112842082977295	[0.019071102142333984, 0.11948513984680176, 1.0871920585632324, 1.2699570655822754, 2.0207040309906006, 2.137601137161255, 2.2542481422424316, 2.3711929321289062, 2.487874984741211, 2.6047561168670654, 2.721369981765747, 2.838261127471924, 2.9549500942230225, 3.071674108505249, 3.1886661052703857, 3.305549144744873, 3.422182083129883, 3.5390899181365967, 3.6558570861816406, 3.7726171016693115, 3.8898041248321533, 4.103869915008545]	[9.5367431640625e-07, 0.11666762033431641, 1.0996676203343163, 1.2663676203343164, 2.016367620334316, 2.133034286994316, 2.249700953654316, 2.3663676203143162, 2.4830342869743163, 2.5997009536343163, 2.7163676202943163, 2.8330342869543164, 2.9497009536143164, 3.0663676202743164, 3.1830342869343164, 3.2997009535943165, 3.4163676202543165, 3.5330342869143165, 3.6497009535743166, 3.7663676202343166, 3.8830342868943166, 4.11636762022765]	2021_Feb_04_1116	59.91648869683225	1	0.375
22	2	FALSE	NV	a	['U', 'J', 'T', 'Y', 'R', 'E', 'A', 'N', 'B', 'X', 'K', 'W', 'H', 'G', 'M', 'C']	[2059, 1029, 1888, 2670, 1587, 904, 697, 1335, 760, 4000, 1122, 2448, 986, 944, 1224, 829]	10	Present	NA	NA	PRESENT	0.7377810478210449	6.105939865112305	8.103616952896118	8.920290533654912	9.270292440983544	12.22023606300354	4.116619110107422	[6.125006914138794, 6.241599082946777, 7.203558921813965, 7.376120090484619, 8.143708944320679, 8.243627071380615, 8.360734939575195, 8.477354049682617, 8.594316959381104, 8.710937976837158, 8.827774047851562, 8.944500923156738, 9.061402082443237, 9.178045988082886, 9.294740915298462, 9.411541938781738, 9.528337001800537, 9.645226955413818, 9.761940956115723, 9.879179000854492, 9.995585918426514, 10.220237016677856]	[6.11636762022765, 6.23303428688765, 7.216034286887649, 7.382734286887649, 8.132734286887649, 8.24940095354765, 8.36606762020765, 8.48273428686765, 8.59940095352765, 8.716067620187651, 8.832734286847652, 8.949400953507652, 9.066067620167653, 9.182734286827653, 9.299400953487654, 9.416067620147654, 9.532734286807655, 9.649400953467655, 9.766067620127656, 9.882734286787656, 9.999400953447656, 10.232734286780989]	2021_Feb_04_1116	59.91648869683225	1	0.375
22	3	FALSE	NV	a	['G', 'P', 'R', 'Z', 'T', 'K', 'M', 'W', 'V', 'Y', 'E', 'C', 'X', 'U', 'J', 'H']	[944, 1456, 1587, 2911, 1888, 1122, 1224, 2448, 2245, 2670, 904, 829, 4000, 2059, 1029, 986]	13	Present	NA	NA	PRESENT	0.96596097946167	12.212034940719604	14.220186948776243	15.386861483189357	15.736863628936568	18.336601972579956	4.116415023803711	[12.231101989746094, 12.347890138626099, 13.31992506980896, 13.499249935150146, 14.249974012374878, 14.366833925247192, 14.483407020568848, 14.600352048873901, 14.717041969299316, 14.833997011184692, 14.950737953186035, 15.067625999450684, 15.18419599533081, 15.30116605758667, 15.417781114578247, 15.534466981887817, 15.651340961456299, 15.768279075622559, 15.884819984436035, 16.001914024353027, 16.11853814125061, 16.336601972579956]	[12.232734286780989, 12.34940095344099, 13.33240095344099, 13.49910095344099, 14.24910095344099, 14.365767620100991, 14.482434286760991, 14.599100953420992, 14.715767620080992, 14.832434286740993, 14.949100953400993, 15.065767620060994, 15.182434286720994, 15.299100953380995, 15.415767620040995, 15.532434286700996, 15.649100953360996, 15.765767620020997, 15.882434286680997, 15.999100953340998, 16.115767620000998, 16.349100953334332]	2021_Feb_04_1116	59.91648869683225	1	0.375
22	4	FALSE	NV	a	['G', 'U', 'W', 'S', 'N', 'C', 'V', 'Z', 'X', 'K', 'A', 'T', 'H', 'J', 'M', 'Y']	[944, 2059, 2448, 1731, 1335, 829, 2245, 2911, 4000, 1122, 697, 1888, 986, 1029, 1224, 2670]	9	Present	NA	NA	PRESENT	1.1155998706817627	18.335065841674805	20.336650848388672	21.03665895458036	21.386660861908993	24.452970027923584	4.116319179534912	[18.35413408279419, 18.47098398208618, 19.436293125152588, 19.62209391593933, 20.373183965682983, 20.489793062210083, 20.60655903816223, 20.72344994544983, 20.84006690979004, 20.95690608024597, 21.073697090148926, 21.190309047698975, 21.307158946990967, 21.423967123031616, 21.540760040283203, 21.640856981277466, 21.757601022720337, 21.87441396713257, 21.991158962249756, 22.10788106918335, 22.224695920944214, 22.452970027923584]	[18.349100953334332, 18.46576761999433, 19.44876761999433, 19.61546761999433, 20.36546761999433, 20.48213428665433, 20.598800953314328, 20.715467619974326, 20.832134286634325, 20.948800953294324, 21.065467619954322, 21.18213428661432, 21.29880095327432, 21.41546761993432, 21.532134286594317, 21.648800953254316, 21.765467619914315, 21.882134286574313, 21.998800953234312, 22.11546761989431, 22.23213428655431, 22.465467619887644]	2021_Feb_04_1116	59.91648869683225	1	0.375
22	5	FALSE	NV	a	['W', 'T', 'A', 'S', 'U', 'C', 'V', 'N', 'X', 'G', 'M', 'P', 'K', 'Z', 'E', 'B']	[2448, 1888, 697, 1731, 2059, 829, 2245, 1335, 4000, 944, 1224, 1456, 1122, 2911, 904, 760]	9	Present	NA	NA	PRESENT	0.8078858852386475	24.441508769989017	26.45292091369629	27.15292782779508	27.502929973542297	30.5693359375	4.116415023803711	[24.460576057434082, 24.577157020568848, 25.552659034729004, 25.728477001190186, 26.479047060012817, 26.59597110748291, 26.71262502670288, 26.82956600189209, 26.94626212120056, 27.063168048858643, 27.18004012107849, 27.29672908782959, 27.413315057754517, 27.530285120010376, 27.64707612991333, 27.763910055160522, 27.88055396080017, 27.99749207496643, 28.114129066467285, 28.23101806640625, 28.34781813621521, 28.569337129592896]	[24.465467619887644, 24.582134286547642, 25.565134286547643, 25.73183428654764, 26.48183428654764, 26.59850095320764, 26.71516761986764, 26.831834286527638, 26.948500953187636, 27.065167619847635, 27.181834286507634, 27.298500953167633, 27.41516761982763, 27.53183428648763, 27.64850095314763, 27.765167619807627, 27.881834286467626, 27.998500953127625, 28.115167619787623, 28.231834286447622, 28.34850095310762, 28.581834286440955]	2021_Feb_04_1116	59.91648869683225	1	0.375
22	6	FALSE	NA	a	['Y', 'V', 'H', 'N', 'S', 'R', 'Z', 'P', 'E', 'M', 'W', 'A', 'J', 'X', 'G', 'T']	[2670, 2245, 986, 1335, 1731, 1587, 2911, 1456, 904, 1224, 2448, 697, 1029, 4000, 944, 1888]	14	Present	NA	NA	PRESENT	0.74869704246521	30.564464807510376	32.56917190551758	33.852512152916375	34.20251429866359	36.68570303916931	4.116531133651733	[30.58353304862976, 30.70017695426941, 31.669023036956787, 31.85140299797058, 32.602030992507935, 32.71889591217041, 32.83562898635864, 32.95235300064087, 33.069299936294556, 33.18616604804993, 33.30290603637695, 33.419503927230835, 33.536478996276855, 33.65315294265747, 33.770029067993164, 33.88672399520874, 34.00372314453125, 34.120288133621216, 34.23727202415466, 34.35388207435608, 34.4707670211792, 34.68570303916931]	[30.581834286440955, 30.698500953100954, 31.681500953100954, 31.848200953100953, 32.59820095310096, 32.71486761976096, 32.83153428642096, 32.94820095308096, 33.064867619740966, 33.18153428640097, 33.29820095306097, 33.41486761972097, 33.531534286380975, 33.64820095304098, 33.76486761970098, 33.88153428636098, 33.998200953020984, 34.114867619680986, 34.23153428634099, 34.34820095300099, 34.46486761966099, 34.69820095299433]	2021_Feb_04_1116	59.91648869683225	1	0.375
22	7	FALSE	NA	a	['N', 'V', 'B', 'Y', 'J', 'S', 'M', 'H', 'P', 'Z', 'G', 'T', 'E', 'X', 'A', 'K']	[1335, 2245, 760, 2670, 1029, 1731, 1224, 986, 1456, 2911, 944, 1888, 904, 4000, 697, 1122]	14	Present	NA	NA	PRESENT	0.6177740097045898	36.687232971191406	38.68546485900879	39.96880629850048	40.318808205829114	42.80207014083862	4.116605281829834	[36.70632195472717, 36.823275089263916, 37.785391092300415, 37.95742106437683, 38.72514009475708, 38.82523703575134, 38.94183611869812, 39.05878496170044, 39.175365924835205, 39.292256116867065, 39.40897607803345, 39.52586913108826, 39.64274597167969, 39.75956702232361, 39.87652397155762, 39.993135929107666, 40.1097309589386, 40.22673797607422, 40.34322500228882, 40.46036195755005, 40.577001094818115, 40.80206894874573]	[36.69820095299433, 36.81486761965433, 37.797867619654326, 37.964567619654325, 38.714567619654325, 38.83123428631433, 38.94790095297433, 39.06456761963433, 39.181234286294334, 39.297900952954336, 39.41456761961434, 39.53123428627434, 39.64790095293434, 39.764567619594345, 39.88123428625435, 39.99790095291435, 40.11456761957435, 40.231234286234354, 40.347900952894356, 40.46456761955436, 40.58123428621436, 40.814567619547695]	2021_Feb_04_1116	59.91648869683225	1	0.375
22	8	FALSE	NV	a	['K', 'A', 'E', 'Y', 'H', 'N', 'U', 'V', 'G', 'M', 'Z', 'R', 'X', 'J', 'C', 'P']	[1122, 697, 904, 2670, 986, 1335, 2059, 2245, 944, 1224, 2911, 1587, 4000, 1029, 829, 1456]	13	Present	NA	NA	PRESENT	0.7423751354217529	42.79369783401489	44.80193495750427	45.968609491917384	46.318611637664596	48.918437004089355	4.116502046585083	[42.81276512145996, 42.929386138916016, 43.90176200866699, 44.08073306083679, 44.83130407333374, 44.94830799102783, 45.06502103805542, 45.181828022003174, 45.29839611053467, 45.4152410030365, 45.53197693824768, 45.64891600608826, 45.765501976013184, 45.88254714012146, 45.99930000305176, 46.115843057632446, 46.232763051986694, 46.34966707229614, 46.46642708778381, 46.5829861164093, 46.69991397857666, 46.918437004089355]	[42.814567619547695, 42.9312342862077, 43.914234286207694, 44.08093428620769, 44.83093428620769, 44.947600952867695, 45.0642676195277, 45.1809342861877, 45.2976009528477, 45.414267619507704, 45.53093428616771, 45.64760095282771, 45.76426761948771, 45.88093428614771, 45.997600952807716, 46.11426761946772, 46.23093428612772, 46.34760095278772, 46.464267619447725, 46.58093428610773, 46.69760095276773, 46.93093428610106]	2021_Feb_04_1116	59.91648869683225	1	0.375
22	9	FALSE	NN	a	['G', 'Z', 'S', 'J', 'P', 'V', 'E', 'W', 'R', 'B', 'H', 'M', 'Y', 'T', 'N', 'K']	[944, 2911, 1731, 1029, 1456, 2245, 904, 2448, 1587, 760, 986, 1224, 2670, 1888, 1335, 1122]	11	Absent	NA	NA	ABSENT	1.1239280700683594	48.916441917419434	50.918110847473145	51.85145228698483	52.20145419431347	55.03480291366577	4.116692066192627	[48.93550992012024, 49.05244708061218, 50.018126010894775, 50.20378303527832, 50.954230070114136, 51.07103395462036, 51.1879301071167, 51.304638147354126, 51.42147397994995, 51.53803610801697, 51.65509009361267, 51.77169704437256, 51.8884711265564, 52.00542902946472, 52.12220907211304, 52.238970041275024, 52.35582113265991, 52.47245693206787, 52.58934211730957, 52.689186096191406, 52.80606007575989, 53.034801959991455]	[48.93093428610106, 49.047600952761066, 50.03060095276106, 50.19730095276106, 50.94730095276106, 51.063967619421064, 51.180634286081066, 51.29730095274107, 51.41396761940107, 51.53063428606107, 51.647300952721075, 51.76396761938108, 51.88063428604108, 51.99730095270108, 52.113967619361084, 52.230634286021086, 52.34730095268109, 52.46396761934109, 52.58063428600109, 52.697300952661095, 52.8139676193211, 53.04730095265443]	2021_Feb_04_1116	59.91648869683225	1	0.375
22	10	FALSE	NA	a	['K', 'A', 'B', 'C', 'N', 'Z', 'V', 'X', 'R', 'P', 'W', 'S', 'E', 'T', 'J', 'U']	[1122, 697, 760, 829, 1335, 2911, 2245, 4000, 1587, 1456, 2448, 1731, 904, 1888, 1029, 2059]	8	Present	NA	NA	ABSENT	0.9680719375610352	55.022634983062744	57.03460383415222	57.61794432000959	57.967946227338224	61.15117001533508	4.116566181182861	[55.04170203208923, 55.15841007232666, 56.1344940662384, 56.30957913398743, 57.06040596961975, 57.17739796638489, 57.29399609565735, 57.41093611717224, 57.52756214141846, 57.64450693130493, 57.76127004623413, 57.87817192077637, 57.99479007720947, 58.11164903640747, 58.228485107421875, 58.34524893760681, 58.461862087249756, 58.57886505126953, 58.69550895690918, 58.81217813491821, 58.92919111251831, 59.15116906166077]	[55.04730095265443, 55.163967619314434, 56.14696761931443, 56.31366761931443, 57.06366761931443, 57.18033428597443, 57.297000952634434, 57.413667619294436, 57.53033428595444, 57.64700095261444, 57.76366761927444, 57.880334285934445, 57.99700095259445, 58.11366761925445, 58.23033428591445, 58.347000952574454, 58.46366761923446, 58.58033428589446, 58.69700095255446, 58.81366761921446, 58.930334285874466, 59.1636676192078]	2021_Feb_04_1116	59.91648869683225	1	0.375
22	11	FALSE	NA	a	['V', 'P', 'B', 'U', 'A', 'T', 'M', 'J', 'H', 'E', 'R', 'Y', 'N', 'X', 'G', 'Z']	[2245, 1456, 760, 2059, 697, 1888, 1224, 1029, 986, 904, 1587, 2670, 1335, 4000, 944, 2911]	14	Present	NA	NA	PRESENT	0.6848039627075195	61.14575099945069	63.15112781524658	64.43446830106396	64.78447020839259	67.2675371170044	4.1164093017578125	[61.164817094802856, 61.28165793418884, 62.250860929489136, 62.432718992233276, 63.18346905708313, 63.30043911933899, 63.41696906089783, 63.53397512435913, 63.65057706832886, 63.76748299598694, 63.884196043014526, 64.00106501579285, 64.11790609359741, 64.23466897010803, 64.35143709182739, 64.46810412406921, 64.58500814437866, 64.70166611671448, 64.81869101524353, 64.93516206741333, 65.05208611488342, 65.2675359249115]	[61.1636676192078, 61.2803342858678, 62.2633342858678, 62.4300342858678, 63.1800342858678, 63.2967009525278, 63.4133676191878, 63.530034285847805, 63.64670095250781, 63.76336761916781, 63.88003428582781, 63.996700952487814, 64.11336761914781, 64.2300342858078, 64.3467009524678, 64.4633676191278, 64.58003428578779, 64.69670095244778, 64.81336761910778, 64.93003428576777, 65.04670095242777, 65.2800342857611]	2021_Feb_04_1116	59.91648869683225	1	0.375
22	12	FALSE	AA	a	['U', 'H', 'N', 'C', 'E', 'K', 'W', 'P', 'surprise', 'B', 'S', 'X', 'Y', 'G', 'M', 'R']	[2059, 986, 1335, 829, 904, 1122, 2448, 1456, 'stimAuditory/all_stimAuditory/204.wav', 760, 1731, 4000, 2670, 944, 1224, 1587]	12	Present	stimAuditory/all_stimAuditory/204.wav	NA	PRESENT	0.8900721073150635	67.26875686645508	69.26742792129517	70.31743483537396	70.66743793479549	73.38390302658081	4.1164751052856445	[67.2878360748291, 67.40452194213867, 68.36722493171692, 68.53890109062195, 69.30632209777832, 69.40640306472778, 69.52315998077393, 69.63998103141785, 69.75699806213379, 69.87391805648804, 69.99031209945679, 70.1073579788208, 70.22395300865173, 70.34086799621582, 70.45747303962708, 70.57454705238342, 70.6911370754242, 70.80802607536316, 70.92486596107483, 71.04135704040527, 71.15823698043823, 71.38390302658081]	[67.2800342857611, 67.3967009524211, 68.3797009524211, 68.54640095242111, 69.29640095242111, 69.4130676190811, 69.5297342857411, 69.6464009524011, 69.76306761906109, 69.87973428572109, 69.99640095238108, 70.11306761904108, 70.22973428570107, 70.34640095236107, 70.46306761902106, 70.57973428568106, 70.69640095234105, 70.81306761900105, 70.92973428566104, 71.04640095232104, 71.16306761898103, 71.39640095231437]	2021_Feb_04_1116	59.91648869683225	1	0.375
22	13	FALSE	NV	a	['N', 'H', 'E', 'W', 'M', 'A', 'G', 'P', 'V', 'S', 'T', 'U', 'K', 'X', 'J', 'C']	[1335, 986, 904, 2448, 1224, 697, 944, 1456, 2245, 1731, 1888, 2059, 1122, 4000, 1029, 829]	14	Present	NA	NA	PRESENT	0.6225831508636475	73.37498688697815	75.38390493392944	76.66724613500256	77.01724828074977	79.50027012825012	4.116365194320679	[73.39405512809753, 73.51075911521912, 74.48359203338623, 74.66179704666138, 75.41250896453857, 75.52959394454956, 75.64621591567993, 75.76317811012268, 75.87980794906616, 75.99675798416138, 76.11334705352783, 76.23009896278381, 76.3469910621643, 76.46391701698303, 76.58057594299316, 76.69738602638245, 76.81416296958923, 76.93080997467041, 77.04764199256897, 77.16438412666321, 77.28128695487976, 77.50027012825012]	[73.39640095231437, 73.51306761897436, 74.49606761897437, 74.66276761897437, 75.41276761897437, 75.52943428563437, 75.64610095229436, 75.76276761895436, 75.87943428561435, 75.99610095227435, 76.11276761893434, 76.22943428559434, 76.34610095225433, 76.46276761891433, 76.57943428557432, 76.69610095223432, 76.81276761889431, 76.92943428555431, 77.0461009522143, 77.1627676188743, 77.2794342855343, 77.51276761886763]	2021_Feb_04_1116	59.91648869683225	1	0.375
22	14	FALSE	NA	a	['M', 'K', 'S', 'W', 'P', 'Y', 'A', 'X', 'C', 'H', 'V', 'T', 'E', 'N', 'R', 'U']	[1224, 1122, 1731, 2448, 1456, 2670, 697, 4000, 829, 986, 2245, 1888, 904, 1335, 1587, 2059]	8	Present	NA	NA	PRESENT	0.7632360458374023	79.49783182144165	81.50034594535828	82.08368619279707	82.43368833854429	85.61663699150085	4.116291046142578	[79.51690006256104, 79.63361811637878, 80.59996199607849, 80.78510594367981, 81.53557205200195, 81.65255808830261, 81.76920104026794, 81.88595509529114, 82.0028121471405, 82.1195969581604, 82.23638892173767, 82.35329914093018, 82.4700710773468, 82.58672499656677, 82.70351791381836, 82.82026100158691, 82.93713402748108, 83.05372405052185, 83.17056512832642, 83.28747797012329, 83.40409398078918, 83.61663603782654]	[79.51276761886763, 79.62943428552762, 80.61243428552763, 80.77913428552763, 81.52913428552763, 81.64580095218763, 81.76246761884762, 81.87913428550762, 81.99580095216761, 82.11246761882761, 82.2291342854876, 82.3458009521476, 82.4624676188076, 82.57913428546759, 82.69580095212758, 82.81246761878758, 82.92913428544757, 83.04580095210757, 83.16246761876756, 83.27913428542756, 83.39580095208755, 83.62913428542089]	2021_Feb_04_1116	59.91648869683225	1	0.375
22	15	FALSE	VA	a	['G', 'Z', 'S', 'W', 'A', 'N', 'E', 'Y', 'T', 'H', 'surprise', 'R', 'B', 'X', 'M', 'J']	[944, 2911, 1731, 2448, 697, 1335, 904, 2670, 1888, 986, 'stimAuditory/all_stimAuditory/219.wav', 1587, 760, 4000, 1224, 1029]	14	Present	NA	NA	PRESENT	0.7604160308837891	85.6041808128357	87.6164608001709	88.89980223966259	89.24980414699122	91.73300313949584	4.116542339324951	[85.62324810028076, 85.73997402191162, 86.71632695198059, 86.89107704162598, 87.64179396629333, 87.75882911682129, 87.87553906440735, 87.99239802360535, 88.10916304588318, 88.22579407691956, 88.34244704246521, 88.45941710472107, 88.57615113258362, 88.69288396835327, 88.80962610244751, 88.92666602134705, 89.0434160232544, 89.16004014015198, 89.2769341468811, 89.39395499229431, 89.51050996780396, 89.73300194740295]	[85.62913428542089, 85.74580095208088, 86.72880095208089, 86.8955009520809, 87.6455009520809, 87.76216761874089, 87.87883428540088, 87.99550095206088, 88.11216761872087, 88.22883428538087, 88.34550095204087, 88.46216761870086, 88.57883428536086, 88.69550095202085, 88.81216761868085, 88.92883428534084, 89.04550095200084, 89.16216761866083, 89.27883428532083, 89.39550095198082, 89.51216761864082, 89.74550095197415]	2021_Feb_04_1116	59.91648869683225	1	0.375
22	16	FALSE	NV	a	['R', 'T', 'J', 'E', 'P', 'A', 'M', 'C', 'H', 'G', 'Y', 'X', 'W', 'V', 'B', 'N']	[1587, 1888, 1029, 904, 1456, 697, 1224, 829, 986, 944, 2670, 4000, 2448, 2245, 760, 1335]	12	Present	NA	NA	ABSENT	0.7057039737701416	91.73147678375244	93.7329487800598	94.7829559325572	95.13295783988582	97.84937000274658	4.116421222686768	[91.75054407119751, 91.86721301078796, 92.83269500732422, 93.01854014396667, 93.7691171169281, 93.88623213768005, 94.00292706489563, 94.11970806121826, 94.23641204833984, 94.35322213172913, 94.46984601020813, 94.58684492111206, 94.70359301567078, 94.82041192054749, 94.92023491859436, 95.0540120601654, 95.17068004608154, 95.27066612243652, 95.38742113113403, 95.50422406196594, 95.62109613418579, 95.84936904907227]	[91.74550095197415, 91.86216761863415, 92.84516761863415, 93.01186761863416, 93.76186761863416, 93.87853428529415, 93.99520095195415, 94.11186761861414, 94.22853428527414, 94.34520095193413, 94.46186761859413, 94.57853428525412, 94.69520095191412, 94.81186761857411, 94.92853428523411, 95.0452009518941, 95.1618676185541, 95.27853428521409, 95.39520095187409, 95.51186761853408, 95.62853428519408, 95.86186761852741]	2021_Feb_04_1116	59.91648869683225	1	0.375
22	17	FALSE	NV	a	['G', 'K', 'Y', 'C', 'B', 'T', 'N', 'E', 'S', 'J', 'U', 'W', 'Z', 'X', 'P', 'M']	[944, 1122, 2670, 829, 760, 1888, 1335, 904, 1731, 1029, 2059, 2448, 2911, 4000, 1456, 1224]	14	Present	NA	NA	PRESENT	0.9823050498962402	97.83786296844482	99.8490948677063	101.132436307198	101.48243821452662	103.965735912323	4.116641044616699	[97.85693001747131, 97.97380900382996, 98.949059009552, 99.12496709823608, 99.87610793113708, 99.99252009391785, 100.10939311981201, 100.22601795196533, 100.34298992156982, 100.45962905883789, 100.57637906074524, 100.69335603713989, 100.80989408493042, 100.92674493789673, 101.04375696182251, 101.16029000282288, 101.27725601196289, 101.39407396316528, 101.51063895225525, 101.62768292427063, 101.74443292617798, 101.9657371044159]	[97.86186761852741, 97.97853428518741, 98.96153428518741, 99.12823428518742, 99.87823428518742, 99.99490095184741, 100.11156761850741, 100.2282342851674, 100.3449009518274, 100.4615676184874, 100.57823428514739, 100.69490095180738, 100.81156761846738, 100.92823428512737, 101.04490095178737, 101.16156761844736, 101.27823428510736, 101.39490095176735, 101.51156761842735, 101.62823428508734, 101.74490095174734, 101.97823428508067]	2021_Feb_04_1116	59.91648869683225	1	0.375
22	18	FALSE	NN	a	['M', 'B', 'W', 'V', 'H', 'G', 'P', 'Z', 'S', 'Y', 'N', 'U', 'E', 'C', 'A', 'J']	[1224, 760, 2448, 2245, 986, 944, 1456, 2911, 1731, 2670, 1335, 2059, 904, 829, 697, 1029]	10	Absent	NA	NA	ABSENT	0.7783010005950928	103.96111798286438	105.96556997299194	106.78224450742503	107.13224665317226	110.08210301399232	4.116533041000366	[103.98018503189087, 104.096755027771, 105.06542611122131, 105.24791097640991, 105.99893498420715, 106.11554503440857, 106.23238801956177, 106.34935903549194, 106.46596312522888, 106.58292698860168, 106.69962096214294, 106.816477060318, 106.93322706222534, 107.05001902580261, 107.16665410995483, 107.2836799621582, 107.40041399002075, 107.51727509498596, 107.63393807411194, 107.75078296661377, 107.86752200126648, 108.08210301399231]	[103.97823428508067, 104.09490095174067, 105.07790095174067, 105.24460095174068, 105.99460095174068, 106.11126761840067, 106.22793428506067, 106.34460095172066, 106.46126761838066, 106.57793428504066, 106.69460095170065, 106.81126761836065, 106.92793428502064, 107.04460095168064, 107.16126761834063, 107.27793428500063, 107.39460095166062, 107.51126761832062, 107.62793428498061, 107.7446009516406, 107.8612676183006, 108.09460095163394]	2021_Feb_04_1116	59.91648869683225	1	0.375
22	19	FALSE	AV	a	['Z', 'U', 'C', 'S', 'N', 'H', 'B', 'surprise', 'T', 'W', 'X', 'R', 'V', 'Y', 'K', 'J']	[2911, 2059, 829, 1731, 1335, 986, 760, 'stimAuditory/all_stimAuditory/215.wav', 1888, 2448, 4000, 1587, 2245, 2670, 1122, 1029]	11	Present	stimAuditory/all_stimAuditory/219.wav	NA	PRESENT	0.7039129734039307	110.084538936615	112.08188486099245	113.01522630050412	113.36522820783276	116.19846892356873	4.116584062576294	[110.1036069393158, 110.22012495994568, 111.18179202079773, 111.35441613197327, 112.12195897102356, 112.22206807136536, 112.33903312683105, 112.4556770324707, 112.57262301445007, 112.68926310539246, 112.80612897872925, 112.92273211479187, 113.03948903083801, 113.15636706352234, 113.27312207221985, 113.38994097709656, 113.5069010257721, 113.6236219406128, 113.74053597450256, 113.85733795166016, 113.9739739894867, 114.19847011566162]	[110.09460095163394, 110.21126761829393, 111.19426761829394, 111.36096761829394, 112.11096761829394, 112.22763428495394, 112.34430095161393, 112.46096761827393, 112.57763428493392, 112.69430095159392, 112.81096761825391, 112.9276342849139, 113.0443009515739, 113.1609676182339, 113.27763428489389, 113.39430095155389, 113.51096761821388, 113.62763428487388, 113.74430095153387, 113.86096761819387, 113.97763428485386, 114.2109676181872]	2021_Feb_04_1116	59.91648869683225	1	0.375
22	20	FALSE	NA	a	['B', 'W', 'J', 'A', 'N', 'U', 'H', 'S', 'Z', 'M', 'T', 'X', 'Y', 'P', 'G', 'R']	[760, 2448, 1029, 697, 1335, 2059, 986, 1731, 2911, 1224, 1888, 4000, 2670, 1456, 944, 1587]	12	Present	NA	NA	PRESENT	0.5006821155548096	116.19072890281676	118.1983449459076	119.2483528136607	119.59835495940791	122.31483697891235	4.116492033004761	[116.20979595184326, 116.3264229297638, 117.29816198348999, 117.477872133255, 118.22846698760986, 118.34547805786133, 118.46218705177307, 118.57884001731873, 118.69577813148499, 118.8124840259552, 118.92935705184937, 119.04617500305176, 119.16276097297668, 119.2796881198883, 119.39633893966675, 119.51333093643188, 119.62992191314697, 119.74686193466187, 119.86376714706421, 119.98036599159241, 120.09726309776306, 120.31483507156372]	[116.2109676181872, 116.32763428484719, 117.3106342848472, 117.4773342848472, 118.2273342848472, 118.3440009515072, 118.4606676181672, 118.57733428482719, 118.69400095148718, 118.81066761814718, 118.92733428480717, 119.04400095146717, 119.16066761812716, 119.27733428478716, 119.39400095144715, 119.51066761810715, 119.62733428476714, 119.74400095142714, 119.86066761808713, 119.97733428474713, 120.09400095140712, 120.32733428474046]	2021_Feb_04_1116	59.91648869683225	1	0.375
22	21	FALSE	NV	a	['H', 'K', 'T', 'B', 'A', 'W', 'C', 'R', 'J', 'G', 'M', 'X', 'N', 'E', 'Z', 'P']	[986, 1122, 1888, 760, 697, 2448, 829, 1587, 1029, 944, 1224, 4000, 1335, 904, 2911, 1456]	12	Present	NA	NA	PRESENT	0.417755126953125	122.31401777267456	124.31506991386414	125.36507682794291	125.71507992736446	128.43120312690735	4.116133213043213	[122.3330979347229, 122.44963002204895, 123.41452598571777, 123.6008050441742, 124.35164594650269, 124.46864414215088, 124.58533191680908, 124.7022340297699, 124.81900811195374, 124.93559193611145, 125.03570103645325, 125.15230298042297, 125.26923108100891, 125.38604712486267, 125.50281596183777, 125.61960411071777, 125.73635411262512, 125.85323810577393, 125.96996402740479, 126.0867280960083, 126.20377397537231, 126.43120193481445]	[122.32733428474046, 122.44400095140045, 123.42700095140046, 123.59370095140046, 124.34370095140046, 124.46036761806046, 124.57703428472045, 124.69370095138045, 124.81036761804044, 124.92703428470044, 125.04370095136044, 125.16036761802043, 125.27703428468043, 125.39370095134042, 125.51036761800042, 125.62703428466041, 125.7437009513204, 125.8603676179804, 125.9770342846404, 126.09370095130039, 126.21036761796039, 126.44370095129372]	2021_Feb_04_1116	59.91648869683225	1	0.375
22	22	FALSE	NV	a	['S', 'R', 'K', 'B', 'Z', 'U', 'W', 'X', 'T', 'C', 'E', 'M', 'G', 'P', 'V', 'N']	[1731, 1587, 1122, 760, 2911, 2059, 2448, 4000, 1888, 829, 904, 1224, 944, 1456, 2245, 1335]	8	Present	NA	NA	PRESENT	0.39829492568969727	128.4204399585724	130.43101596832275	131.01435621576155	131.3643593151831	134.54756999015808	4.116554021835327	[128.43950700759888, 128.55601692199707, 129.53089213371277, 129.70750904083252, 130.45858001708984, 130.57497310638428, 130.69188904762268, 130.8085479736328, 130.92554998397827, 131.04218792915344, 131.15893006324768, 131.2757749557495, 131.39234113693237, 131.5093960762024, 131.6258840560913, 131.74298405647278, 131.85954999923706, 131.97649812698364, 132.09316897392273, 132.21017503738403, 132.3267650604248, 132.54756903648376]	[128.44370095129372, 128.56036761795372, 129.54336761795372, 129.7100676179537, 130.4600676179537, 130.5767342846137, 130.6934009512737, 130.8100676179337, 130.9267342845937, 131.0434009512537, 131.16006761791368, 131.27673428457368, 131.39340095123367, 131.51006761789367, 131.62673428455366, 131.74340095121366, 131.86006761787365, 131.97673428453365, 132.09340095119364, 132.21006761785364, 132.32673428451363, 132.56006761784695]	2021_Feb_04_1116	59.91648869683225	1	0.375
22	23	FALSE	NV	a	['N', 'U', 'W', 'V', 'A', 'H', 'R', 'E', 'Z', 'M', 'T', 'S', 'B', 'X', 'P', 'C']	[1335, 2059, 2448, 2245, 697, 986, 1587, 904, 2911, 1224, 1888, 1731, 760, 4000, 1456, 829]	14	Present	NA	NA	PRESENT	0.32257699966430664	134.5436668395996	136.5476758480072	137.83101633382458	138.1810182411532	140.6639370918274	4.11626124382019	[134.56273293495178, 134.67934012413025, 135.64725995063782, 135.83044600486755, 136.58122491836548, 136.6982741355896, 136.81496810913086, 136.93180012702942, 137.04864501953125, 137.1655089855194, 137.28206706047058, 137.39904808998108, 137.51585292816162, 137.6324279308319, 137.74922895431519, 137.86598205566406, 137.98280811309814, 138.0996789932251, 138.21636509895325, 138.33342909812927, 138.45006108283997, 138.6639380455017]	[134.56006761784695, 134.67673428450695, 135.65973428450695, 135.82643428450695, 136.57643428450695, 136.69310095116694, 136.80976761782694, 136.92643428448693, 137.04310095114693, 137.15976761780692, 137.27643428446692, 137.3931009511269, 137.5097676177869, 137.6264342844469, 137.7431009511069, 137.8597676177669, 137.9764342844269, 138.09310095108688, 138.20976761774688, 138.32643428440687, 138.44310095106687, 138.6764342844002]	2021_Feb_04_1116	59.91648869683225	1	0.375
22	24	FALSE	NA	a	['W', 'K', 'P', 'H', 'S', 'C', 'V', 'A', 'X', 'B', 'Y', 'J', 'N', 'G', 'E', 'Z']	[2448, 1122, 1456, 986, 1731, 829, 2245, 697, 4000, 760, 2670, 1029, 1335, 944, 904, 2911]	9	Present	NA	NA	PRESENT	0.4322471618652344	140.6670708656311	142.663959980011	143.36396689410978	143.71396999353132	146.7803030014038	4.116343021392822	[140.6861391067505, 140.78570008277893, 141.7636260986328, 141.93708205223083, 142.68770098686218, 142.80448412895203, 142.92128491401672, 143.03812909126282, 143.15498113632202, 143.2717730998993, 143.38876605033875, 143.50541496276855, 143.62224102020264, 143.73902106285095, 143.8556170463562, 143.97262692451477, 144.08921694755554, 144.20617413520813, 144.32286310195923, 144.43981504440308, 144.55637001991272, 144.7803020477295]	[140.6764342844002, 140.79310095106018, 141.7761009510602, 141.94280095106018, 142.69280095106018, 142.80946761772017, 142.92613428438017, 143.04280095104016, 143.15946761770016, 143.27613428436015, 143.39280095102015, 143.50946761768014, 143.62613428434014, 143.74280095100013, 143.85946761766013, 143.97613428432012, 144.09280095098012, 144.20946761764012, 144.3261342843001, 144.4428009509601, 144.5594676176201, 144.79280095095342]	2021_Feb_04_1116	59.91648869683225	1	0.375
22	25	FALSE	VV	a	['B', 'E', 'M', 'W', 'S', 'N', 'R', 'P', 'V', 'U', 'surprise', 'A', 'K', 'X', 'J', 'Y']	[760, 904, 1224, 2448, 1731, 1335, 1587, 1456, 2245, 2059, 'stimAuditory/all_stimAuditory/118.wav', 697, 1122, 4000, 1029, 2670]	14	Present	NA	NA	PRESENT	0.5886631011962891	146.77309799194336	148.78040885925293	150.06374910665173	150.41375125239892	152.89667010307312	4.11626124382019	[146.79216504096985, 146.9089810848236, 147.8799910545349, 148.06013298034668, 148.81090998649597, 148.92786693572998, 149.04452800750732, 149.16153192520142, 149.27829813957214, 149.39514303207397, 149.51172804832458, 149.62876796722412, 149.74528098106384, 149.86247611045837, 149.9789960384369, 150.09577107429504, 150.2125699520111, 150.3293571472168, 150.44596195220947, 150.56299996376038, 150.67967295646667, 150.89666891098022]	[146.79280095095342, 146.90946761761342, 147.89246761761342, 148.0591676176134, 148.8091676176134, 148.9258342842734, 149.0425009509334, 149.1591676175934, 149.2758342842534, 149.3925009509134, 149.50916761757338, 149.62583428423338, 149.74250095089337, 149.85916761755337, 149.97583428421336, 150.09250095087336, 150.20916761753335, 150.32583428419335, 150.44250095085334, 150.55916761751334, 150.67583428417333, 150.90916761750665]	2021_Feb_04_1116	59.91648869683225	1	0.375
22	26	FALSE	NV	a	['N', 'S', 'R', 'C', 'B', 'G', 'Z', 'K', 'E', 'X', 'H', 'A', 'W', 'M', 'T', 'V']	[1335, 1731, 1587, 829, 760, 944, 2911, 1122, 904, 4000, 986, 697, 2448, 1224, 1888, 2245]	10	Present	NA	NA	PRESENT	0.7062029838562012	152.8961730003357	154.8965198993683	155.71319348012707	156.0631956258743	159.01303601264954	4.11651611328125	[152.91523909568787, 153.0322229862213, 153.99636006355286, 154.18344402313232, 154.93407702445984, 155.03427910804749, 155.15097904205322, 155.26784491539001, 155.3845660686493, 155.50140500068665, 155.61817502975464, 155.73496508598328, 155.85182309150696, 155.96854209899902, 156.08536195755005, 156.20211911201477, 156.31882405281067, 156.43569612503052, 156.55244398117065, 156.6692669391632, 156.7861819267273, 157.01303601264954]	[152.90916761750665, 153.02583428416665, 154.00883428416665, 154.17553428416664, 154.92553428416664, 155.04220095082664, 155.15886761748664, 155.27553428414663, 155.39220095080663, 155.50886761746662, 155.62553428412662, 155.7422009507866, 155.8588676174466, 155.9755342841066, 156.0922009507666, 156.2088676174266, 156.3255342840866, 156.44220095074658, 156.55886761740658, 156.67553428406657, 156.79220095072657, 157.0255342840599]	2021_Feb_04_1116	59.91648869683225	1	0.375
22	27	FALSE	NV	a	['H', 'B', 'Z', 'U', 'C', 'R', 'T', 'N', 'Y', 'A', 'X', 'K', 'W', 'E', 'S', 'V']	[986, 760, 2911, 2059, 829, 1587, 1888, 1335, 2670, 697, 4000, 1122, 2448, 904, 1731, 2245]	11	Present	NA	NA	PRESENT	0.9507019519805908	159.00287199020386	161.0132179260254	161.9465591271185	162.29656222654003	165.12940311431885	4.116185188293457	[159.02193903923035, 159.1385841369629, 160.1127290725708, 160.29019904136658, 161.0406050682068, 161.1575391292572, 161.27418613433838, 161.3911759853363, 161.50786209106445, 161.62478494644165, 161.74154210090637, 161.85827898979187, 161.97490000724792, 162.0919849872589, 162.20880699157715, 162.32535314559937, 162.4422550201416, 162.558856010437, 162.675714969635, 162.79269909858704, 162.90937614440918, 163.12940406799316]	[159.0255342840599, 159.14220095071988, 160.1252009507199, 160.29190095071988, 161.04190095071988, 161.15856761737987, 161.27523428403987, 161.39190095069986, 161.50856761735986, 161.62523428401985, 161.74190095067985, 161.85856761733984, 161.97523428399984, 162.09190095065983, 162.20856761731983, 162.32523428397982, 162.44190095063982, 162.55856761729981, 162.6752342839598, 162.7919009506198, 162.9085676172798, 163.14190095061312]	2021_Feb_04_1116	59.91648869683225	1	0.375
22	28	FALSE	NV	a	['A', 'K', 'U', 'S', 'H', 'Y', 'Z', 'X', 'C', 'B', 'N', 'T', 'V', 'R', 'J', 'P']	[697, 1122, 2059, 1731, 986, 2670, 2911, 4000, 829, 760, 1335, 1888, 2245, 1587, 1029, 1456]	8	Present	NA	NA	PRESENT	0.5790979862213135	165.12586188316345	167.12933778762817	167.71267922715987	168.06268113448849	171.24576902389526	4.11643123626709	[165.14492893218994, 165.26199412345886, 166.22909498214722, 166.4130449295044, 167.16382312774658, 167.2807891368866, 167.3975510597229, 167.51418900489807, 167.63101196289062, 167.74793791770935, 167.86458110809326, 167.9814751148224, 168.09832310676575, 168.21494007110596, 168.33189296722412, 168.44853401184082, 168.5653431415558, 168.6820249557495, 168.79905605316162, 168.91568207740784, 169.03257608413696, 169.24576997756958]	[165.14190095061312, 165.25856761727312, 166.24156761727312, 166.4082676172731, 167.1582676172731, 167.2749342839331, 167.3916009505931, 167.5082676172531, 167.6249342839131, 167.7416009505731, 167.85826761723308, 167.97493428389308, 168.09160095055307, 168.20826761721307, 168.32493428387306, 168.44160095053306, 168.55826761719305, 168.67493428385305, 168.79160095051304, 168.90826761717304, 169.02493428383303, 169.25826761716635]	2021_Feb_04_1116	59.91648869683225	1	0.375
22	29	FALSE	AA	a	['T', 'A', 'S', 'Z', 'H', 'E', 'W', 'surprise', 'N', 'Y', 'X', 'P', 'K', 'J', 'M', 'U']	[1888, 697, 1731, 2911, 986, 904, 2448, 'stimAuditory/all_stimAuditory/104.wav', 1335, 2670, 4000, 1456, 1122, 1029, 1224, 2059]	11	Present	stimAuditory/all_stimAuditory/215.wav	NA	PRESENT	0.8085811138153076	171.23237800598145	173.24556398391724	174.17890518501034	174.52890733075756	177.3621370792389	4.116573095321655	[171.25145506858826, 171.3682119846344, 172.345458984375, 172.51971101760864, 173.27018308639526, 173.38709592819214, 173.50395894050598, 173.6207630634308, 173.737468957901, 173.8543200492859, 173.9712450504303, 174.08787512779236, 174.20465803146362, 174.32158398628235, 174.438246011734, 174.55522894859314, 174.67172193527222, 174.78875613212585, 174.90524101257324, 175.02218413352966, 175.13902711868286, 175.36213612556458]	[171.25826761716635, 171.37493428382635, 172.35793428382635, 172.52463428382634, 173.27463428382634, 173.39130095048634, 173.50796761714633, 173.62463428380633, 173.74130095046633, 173.85796761712632, 173.97463428378632, 174.0913009504463, 174.2079676171063, 174.3246342837663, 174.4413009504263, 174.5579676170863, 174.6746342837463, 174.79130095040628, 174.90796761706628, 175.02463428372627, 175.14130095038627, 175.3746342837196]	2021_Feb_04_1116	59.91648869683225	1	0.375
22	30	FALSE	NN	a	['T', 'A', 'N', 'H', 'K', 'M', 'U', 'C', 'G', 'P', 'R', 'Y', 'J', 'V', 'S', 'Z']	[1888, 697, 1335, 986, 1122, 1224, 2059, 829, 944, 1456, 1587, 2670, 1029, 2245, 1731, 2911]	13	Absent	NA	NA	ABSENT	0.3971478939056397	177.35557198524475	179.36217188835144	180.5288466611831	180.87884856851176	183.4785029888153	4.116331100463867	[177.3746509552002, 177.4915111064911, 178.46182703971863, 178.6428771018982, 179.3934690952301, 179.51045608520508, 179.62721800804138, 179.74403309822083, 179.8610110282898, 179.97751712799072, 180.09418511390686, 180.21118593215942, 180.32774806022644, 180.4446210861206, 180.56150102615356, 180.67833495140076, 180.79507994651794, 180.91173195838928, 181.0286500453949, 181.14529395103455, 181.26219010353088, 181.478502035141]	[177.3746342837196, 177.49130095037958, 178.4743009503796, 178.64100095037958, 179.39100095037958, 179.50766761703957, 179.62433428369957, 179.74100095035956, 179.85766761701956, 179.97433428367955, 180.09100095033955, 180.20766761699954, 180.32433428365954, 180.44100095031953, 180.55766761697953, 180.67433428363952, 180.79100095029952, 180.90766761695951, 181.0243342836195, 181.1410009502795, 181.2576676169395, 181.49100095027282]	2021_Feb_04_1116	59.91648869683225	1	0.375
22	31	FALSE	NV	a	['B', 'U', 'H', 'S', 'Y', 'W', 'M', 'T', 'P', 'G', 'R', 'E', 'X', 'A', 'K', 'N']	[760, 2059, 986, 1731, 2670, 2448, 1224, 1888, 1456, 944, 1587, 904, 4000, 697, 1122, 1335]	13	Present	NA	NA	PRESENT	0.5223898887634277	183.47872185707092	185.47850799560547	186.6451825300186	186.9951844373472	189.5948691368103	4.116361141204834	[183.4977900981903, 183.6147859096527, 184.57819414138794, 184.76604509353638, 185.51658511161804, 185.61667704582214, 185.7334349155426, 185.85031700134277, 185.96714091300964, 186.08388495445251, 186.20092391967773, 186.31740999221802, 186.43451404571533, 186.55119109153748, 186.66787910461426, 186.78481698036194, 186.90149903297424, 187.0184109210968, 187.1349639892578, 187.25197410583496, 187.3687229156494, 187.5948691368103]	[183.49100095027282, 183.60766761693282, 184.59066761693282, 184.7573676169328, 185.5073676169328, 185.6240342835928, 185.7407009502528, 185.8573676169128, 185.9740342835728, 186.0907009502328, 186.20736761689278, 186.32403428355278, 186.44070095021277, 186.55736761687277, 186.67403428353276, 186.79070095019276, 186.90736761685275, 187.02403428351275, 187.14070095017274, 187.25736761683274, 187.37403428349273, 187.60736761682605]	2021_Feb_04_1116	59.91648869683225	1	0.375
22	32	FALSE	NA	a	['G', 'P', 'C', 'M', 'E', 'H', 'B', 'J', 'A', 'T', 'U', 'X', 'K', 'Y', 'V', 'S']	[944, 1456, 829, 1224, 904, 986, 760, 1029, 697, 1888, 2059, 4000, 1122, 2670, 2245, 1731]	12	Present	NA	NA	PRESENT	0.5348961353302002	189.58544182777405	191.5947449207306	192.6447518348094	192.9947549342309	195.71123695373535	4.116492033004761	[189.60451006889343, 189.72110795974731, 190.69456005096436, 190.87269496917725, 191.62313294410706, 191.74004292488098, 191.8568480014801, 191.97359800338745, 192.09038496017456, 192.20718002319336, 192.3240511417389, 192.44082713127136, 192.55750393867493, 192.674546957016, 192.79105591773987, 192.90805101394653, 193.02469205856323, 193.14157009124756, 193.2582619190216, 193.3751609325409, 193.49177813529968, 193.71123695373535]	[189.60736761682605, 189.72403428348605, 190.70703428348605, 190.87373428348604, 191.62373428348604, 191.74040095014604, 191.85706761680603, 191.97373428346603, 192.09040095012602, 192.20706761678602, 192.32373428344602, 192.440400950106, 192.557067616766, 192.673734283426, 192.790400950086, 192.907067616746, 193.023734283406, 193.14040095006598, 193.25706761672598, 193.37373428338597, 193.49040095004597, 193.7237342833793]	2021_Feb_04_1116	59.91648869683225	1	0.375
22	33	FALSE	NN	a	['G', 'T', 'U', 'H', 'C', 'E', 'A', 'S', 'Z', 'P', 'R', 'B', 'V', 'M', 'J', 'W']	[944, 1888, 2059, 986, 829, 904, 697, 1731, 2911, 1456, 1587, 760, 2245, 1224, 1029, 2448]	8	Absent	NA	NA	ABSENT	0.3875100612640381	195.70866084098816	197.71138381958008	198.29472525911177	198.6447271664404	201.82760310173035	4.1162192821502686	[195.72772812843323, 195.84441494941711, 196.81093001365662, 196.9955699443817, 197.74633812904358, 197.86309003829956, 197.97994899749756, 198.09683895111084, 198.21359705924988, 198.3304500579834, 198.44719791412354, 198.56392192840576, 198.680645942688, 198.79755401611328, 198.91445302963257, 199.03118205070496, 199.14798712730408, 199.26479697227478, 199.38158011436462, 199.49837613105774, 199.61517310142517, 199.82760190963745]	[195.7237342833793, 195.84040095003928, 196.8234009500393, 196.99010095003928, 197.74010095003928, 197.85676761669927, 197.97343428335927, 198.09010095001926, 198.20676761667926, 198.32343428333925, 198.44010094999925, 198.55676761665924, 198.67343428331924, 198.79010094997923, 198.90676761663923, 199.02343428329922, 199.14010094995922, 199.25676761661921, 199.3734342832792, 199.4901009499392, 199.6067676165992, 199.84010094993252]	2021_Feb_04_1116	59.91648869683225	1	0.375
22	34	FALSE	NN	a	['J', 'U', 'K', 'Y', 'B', 'T', 'A', 'W', 'S', 'Z', 'E', 'P', 'H', 'R', 'G', 'V']	[1029, 2059, 1122, 2670, 760, 1888, 697, 2448, 1731, 2911, 904, 1456, 986, 1587, 944, 2245]	12	Absent	NA	NA	ABSENT	0.5687410831451416	201.8151969909668	203.8276388645172	204.87764697068891	205.22764887801753	207.94396996498108	4.116331100463867	[201.8342649936676, 201.9507200717926, 202.92729496955872, 203.10216808319092, 203.8528380393982, 203.96963500976562, 204.08635997772217, 204.20327401161194, 204.3199770450592, 204.4368290901184, 204.5535590648651, 204.67050099372864, 204.78708696365356, 204.90411591529846, 205.02081608772278, 205.13771510124207, 205.2543330192566, 205.37127709388733, 205.48802495002747, 205.60480213165283, 205.7214229106903, 205.94396901130676]	[201.84010094993252, 201.95676761659251, 202.93976761659252, 203.1064676165925, 203.8564676165925, 203.9731342832525, 204.0898009499125, 204.2064676165725, 204.3231342832325, 204.4398009498925, 204.55646761655248, 204.67313428321248, 204.78980094987247, 204.90646761653247, 205.02313428319246, 205.13980094985246, 205.25646761651245, 205.37313428317245, 205.48980094983244, 205.60646761649244, 205.72313428315243, 205.95646761648575]	2021_Feb_04_1116	59.91648869683225	1	0.375
22	35	FALSE	AV	a	['S', 'Z', 'G', 'U', 'surprise', 'B', 'N', 'X', 'T', 'R', 'K', 'E', 'M', 'Y', 'C', 'A']	[1731, 2911, 944, 2059, 'stimAuditory/all_stimAuditory/217.wav', 760, 1335, 4000, 1888, 1587, 1122, 904, 1224, 2670, 829, 697]	8	Present	stimAuditory/all_stimAuditory/118.wav	NA	PRESENT	0.4370410442352295	207.93802094459537	209.9440999031067	210.5274401505455	210.87744229629268	214.06033611297607	4.116236209869385	[207.95708799362183, 208.07407808303833, 209.0436589717865, 209.2252869606018, 209.97600102424622, 210.09287905693054, 210.20967507362366, 210.32632207870483, 210.44320392608643, 210.5598599910736, 210.67686891555786, 210.79363012313843, 210.91040706634521, 211.02709102630615, 211.1440670490265, 211.26093912124634, 211.37757897377014, 211.4945011138916, 211.61107897758484, 211.72781205177307, 211.8451669216156, 212.06033611297607]	[207.95646761648575, 208.07313428314575, 209.05613428314575, 209.22283428314574, 209.97283428314574, 210.08950094980574, 210.20616761646573, 210.32283428312573, 210.43950094978572, 210.55616761644572, 210.67283428310571, 210.7895009497657, 210.9061676164257, 211.0228342830857, 211.1395009497457, 211.2561676164057, 211.37283428306569, 211.48950094972568, 211.60616761638568, 211.72283428304567, 211.83950094970567, 212.072834283039]	2021_Feb_04_1116	59.91648869683225	1	0.375
22	36	FALSE	NA	a	['P', 'Z', 'C', 'T', 'E', 'J', 'K', 'V', 'X', 'B', 'G', 'A', 'Y', 'N', 'U', 'R']	[1456, 2911, 829, 1888, 904, 1029, 1122, 2245, 4000, 760, 944, 697, 2670, 1335, 2059, 1587]	9	Present	NA	NA	PRESENT	0.40267300605773926	214.06141185760495	216.06018996238708	216.76019687648588	217.11019878381452	220.1767029762268	4.116513013839722	[214.08048105239868, 214.19728207588196, 215.1600260734558, 215.33164191246033, 216.0991690158844, 216.1992211341858, 216.31596207618713, 216.43280410766602, 216.54974508285522, 216.6664159297943, 216.7831530570984, 216.90013599395752, 217.0167269706726, 217.1337640285492, 217.25041604042053, 217.3672730922699, 217.48391699790955, 217.60084009170532, 217.7177619934082, 217.8344430923462, 217.95120692253113, 218.1767029762268]	[214.072834283039, 214.18950094969898, 215.17250094969899, 215.33920094969898, 216.08920094969898, 216.20586761635897, 216.32253428301897, 216.43920094967896, 216.55586761633896, 216.67253428299895, 216.78920094965895, 216.90586761631894, 217.02253428297894, 217.13920094963893, 217.25586761629893, 217.37253428295892, 217.48920094961892, 217.6058676162789, 217.7225342829389, 217.8392009495989, 217.9558676162589, 218.18920094959222]	2021_Feb_04_1116	59.91648869683225	1	0.375
22	37	FALSE	NA	a	['Y', 'W', 'S', 'B', 'C', 'V', 'G', 'Z', 'K', 'A', 'P', 'J', 'H', 'X', 'E', 'R']	[2670, 2448, 1731, 760, 829, 2245, 944, 2911, 1122, 697, 1456, 1029, 986, 4000, 904, 1587]	14	Present	NA	NA	PRESENT	0.31909799575805664	220.16757678985596	222.17650198936465	223.45984223676345	223.80984533618496	226.29307007789612	4.116568088531494	[220.18664407730103, 220.30365014076233, 221.27639293670654, 221.4548830986023, 222.20583510398865, 222.32256603240967, 222.43922114372253, 222.5562300682068, 222.6727979183197, 222.78976607322693, 222.9064109325409, 223.02335691452026, 223.14004492759705, 223.2569501399994, 223.3735179901123, 223.49039793014526, 223.60705995559692, 223.72411799430847, 223.84080004692078, 223.9575080871582, 224.07447504997253, 224.29307007789612]	[220.18920094959222, 220.30586761625221, 221.28886761625222, 221.4555676162522, 222.2055676162522, 222.3222342829122, 222.4389009495722, 222.5555676162322, 222.6722342828922, 222.7889009495522, 222.90556761621218, 223.02223428287218, 223.13890094953217, 223.25556761619217, 223.37223428285216, 223.48890094951216, 223.60556761617215, 223.72223428283215, 223.83890094949214, 223.95556761615214, 224.07223428281213, 224.30556761614545]	2021_Feb_04_1116	59.91648869683225	1	0.375
22	38	FALSE	VV	a	['V', 'J', 'Y', 'H', 'B', 'T', 'C', 'surprise', 'W', 'U', 'X', 'G', 'P', 'K', 'A', 'S']	[2245, 1029, 2670, 986, 760, 1888, 829, 'stimAuditory/all_stimAuditory/111.wav', 2448, 2059, 4000, 944, 1456, 1122, 697, 1731]	11	Present	NA	NA	PRESENT	0.6046299934387207	226.2910418510437	228.29277086257937	229.22611325576537	229.576115163094	232.40943598747253	4.1166651248931885	[226.3101100921631, 226.4269950389862, 227.39275813102722, 227.5786099433899, 228.32897901535034, 228.44568395614624, 228.56253099441528, 228.67928791046143, 228.79608511924744, 228.9126751422882, 229.02966213226318, 229.14659714698792, 229.2632040977478, 229.380038022995, 229.49687004089355, 229.6135721206665, 229.7304790019989, 229.84730505943298, 229.9638340473175, 230.06396913528442, 230.18073511123657, 230.40943598747253]	[226.30556761614545, 226.42223428280545, 227.40523428280545, 227.57193428280544, 228.32193428280544, 228.43860094946544, 228.55526761612543, 228.67193428278543, 228.78860094944542, 228.90526761610542, 229.02193428276541, 229.1386009494254, 229.2552676160854, 229.3719342827454, 229.4886009494054, 229.6052676160654, 229.72193428272539, 229.83860094938538, 229.95526761604538, 230.07193428270537, 230.18860094936537, 230.4219342826987]	2021_Feb_04_1116	59.91648869683225	1	0.375
22	39	FALSE	NV	a	['M', 'Z', 'G', 'W', 'P', 'R', 'N', 'Y', 'V', 'X', 'E', 'A', 'C', 'J', 'S', 'B']	[1224, 2911, 944, 2448, 1456, 1587, 1335, 2670, 2245, 4000, 904, 697, 829, 1029, 1731, 760]	10	Present	NA	NA	PRESENT	0.3849399089813232	232.3978729248047	234.4096028804779	235.2262764612367	235.57627956065824	238.52580404281616	4.116201162338257	[232.4169409275055, 232.53326201438904, 233.5091290473938, 233.68463492393494, 234.43536400794983, 234.55227303504944, 234.66888904571533, 234.78585505485535, 234.9025640487671, 235.0193169116974, 235.13600206375122, 235.25295901298523, 235.3696141242981, 235.4863600730896, 235.6031370162964, 235.72026991844177, 235.83685302734375, 235.95389604568481, 236.07044911384583, 236.18709111213684, 236.30416202545166, 236.52580308914185]	[232.4219342826987, 232.53860094935868, 233.52160094935869, 233.68830094935868, 234.43830094935868, 234.55496761601867, 234.67163428267867, 234.78830094933866, 234.90496761599866, 235.02163428265865, 235.13830094931865, 235.25496761597864, 235.37163428263864, 235.48830094929863, 235.60496761595863, 235.72163428261862, 235.83830094927862, 235.9549676159386, 236.0716342825986, 236.1883009492586, 236.3049676159186, 236.53830094925192]	2021_Feb_04_1116	59.91648869683225	1	0.375
22	40	FALSE	NV	a	['A', 'V', 'B', 'G', 'P', 'J', 'Y', 'X', 'Z', 'N', 'E', 'W', 'U', 'H', 'K', 'M']	[697, 2245, 760, 944, 1456, 1029, 2670, 4000, 2911, 1335, 904, 2448, 2059, 986, 1122, 1224]	8	Present	NA	NA	PRESENT	0.3172900676727295	238.52080297470093	240.525958776474	241.1093002160057	241.45930116966	244.64216995239255	4.116211175918579	[238.53987002372742, 238.6566081047058, 239.62549304962158, 239.80791592597961, 240.5584900379181, 240.6754550933838, 240.79208302497864, 240.90887212753296, 241.02564096450806, 241.1426019668579, 241.2592740058899, 241.37625098228455, 241.49292492866516, 241.60955905914307, 241.72657108306885, 241.8434979915619, 241.96021914482117, 242.0767629146576, 242.19383907318115, 242.31029295921326, 242.4272301197052, 242.64216995239258]	[238.53830094925192, 238.65496761591191, 239.63796761591192, 239.8046676159119, 240.5546676159119, 240.6713342825719, 240.7880009492319, 240.9046676158919, 241.0213342825519, 241.1380009492119, 241.25466761587188, 241.37133428253188, 241.48800094919187, 241.60466761585187, 241.72133428251186, 241.83800094917186, 241.95466761583185, 242.07133428249185, 242.18800094915184, 242.30466761581184, 242.42133428247183, 242.65466761580515]	2021_Feb_04_1116	59.91648869683225	1	0.375
22	41	FALSE	NN	a	['N', 'K', 'P', 'V', 'G', 'M', 'T', 'Y', 'H', 'B', 'S', 'Z', 'E', 'A', 'W', 'U']	[1335, 1122, 1456, 2245, 944, 1224, 1888, 2670, 986, 760, 1731, 2911, 904, 697, 2448, 2059]	10	Absent	NA	NA	ABSENT	0.3706471920013428	244.64402794837952	246.64197182655337	247.45864659940503	247.80864850673368	250.75853610038757	4.1165642738342285	[244.66309809684753, 244.77967309951782, 245.74186301231384, 245.9141891002655, 246.68181014060974, 246.7819640636444, 246.89855694770813, 247.01543593406677, 247.13208198547363, 247.24908208847046, 247.36567091941833, 247.48251295089722, 247.59928393363953, 247.71624994277954, 247.83285093307495, 247.94985103607178, 248.06643295288086, 248.18346095085144, 248.3000349998474, 248.41701292991638, 248.5336890220642, 248.7585370540619]	[244.65466761580515, 244.77133428246515, 245.75433428246515, 245.92103428246514, 246.67103428246514, 246.78770094912514, 246.90436761578513, 247.02103428244513, 247.13770094910512, 247.25436761576512, 247.37103428242511, 247.4877009490851, 247.6043676157451, 247.7210342824051, 247.8377009490651, 247.9543676157251, 248.07103428238509, 248.18770094904508, 248.30436761570508, 248.42103428236507, 248.53770094902507, 248.77103428235839]	2021_Feb_04_1116	59.91648869683225	1	0.375
22	42	FALSE	NV	a	['A', 'P', 'T', 'M', 'W', 'J', 'B', 'K', 'X', 'C', 'S', 'U', 'E', 'Y', 'V', 'N']	[697, 1456, 1888, 1224, 2448, 1029, 760, 1122, 4000, 829, 1731, 2059, 904, 2670, 2245, 1335]	9	Present	NA	NA	PRESENT	0.31928396224975586	250.7503068447113	252.75828289985657	253.45828981395536	253.8082919597026	256.8749029636383	4.116620063781738	[250.76938700675964, 250.8863251209259, 251.8582260608673, 252.03761792182922, 252.78822302818298, 252.90493607521057, 253.02175092697144, 253.13857507705688, 253.25534105300903, 253.37231707572937, 253.48883295059204, 253.60562300682068, 253.72247791290283, 253.83921313285828, 253.9561939239502, 254.07279801368713, 254.18976306915283, 254.30642294883728, 254.42337799072266, 254.54021096229553, 254.65694904327393, 254.874902009964]	[250.77103428235839, 250.88770094901838, 251.87070094901839, 252.03740094901838, 252.78740094901838, 252.90406761567837, 253.02073428233837, 253.13740094899836, 253.25406761565836, 253.37073428231835, 253.48740094897835, 253.60406761563834, 253.72073428229834, 253.83740094895833, 253.95406761561833, 254.07073428227832, 254.18740094893832, 254.3040676155983, 254.4207342822583, 254.5374009489183, 254.6540676155783, 254.88740094891162]	2021_Feb_04_1116	59.91648869683225	1	0.375
22	43	FALSE	NN	a	['Z', 'G', 'U', 'T', 'A', 'H', 'W', 'N', 'K', 'J', 'R', 'S', 'P', 'V', 'B', 'C']	[2911, 944, 2059, 1888, 697, 986, 2448, 1335, 1122, 1029, 1587, 1731, 1456, 2245, 760, 829]	12	Absent	NA	NA	ABSENT	0.3487730026245117	256.87347197532654	258.87485694885254	259.9248638629313	260.27486577025996	262.9912700653076	4.116413116455078	[256.892539024353, 257.00950813293457, 257.97459411621094, 258.16079592704773, 258.91132712364197, 259.02828907966614, 259.1449329853058, 259.2617681026459, 259.37865805625916, 259.49538111686707, 259.6120901107788, 259.7290871143341, 259.8458299636841, 259.9625370502472, 260.06244707107544, 260.179239988327, 260.29611110687256, 260.4129159450531, 260.529736995697, 260.64651012420654, 260.76324105262756, 260.9912691116333]	[256.8874009489116, 257.0040676155716, 257.9870676155716, 258.1537676155716, 258.9037676155716, 259.02043428223163, 259.13710094889166, 259.2537676155517, 259.3704342822117, 259.4871009488717, 259.60376761553175, 259.7204342821918, 259.8371009488518, 259.9537676155118, 260.07043428217185, 260.18710094883187, 260.3037676154919, 260.4204342821519, 260.53710094881194, 260.65376761547196, 260.770434282132, 261.00376761546534]	2021_Feb_04_1116	59.91648869683225	1	0.375
22	44	FALSE	NA	a	['K', 'J', 'C', 'B', 'R', 'P', 'Y', 'H', 'U', 'N', 'E', 'X', 'W', 'M', 'A', 'S']	[1122, 1029, 829, 760, 1587, 1456, 2670, 986, 2059, 1335, 904, 4000, 2448, 1224, 697, 1731]	12	Present	NA	NA	PRESENT	0.3372499942779541	262.9804289340973	264.9910159111023	266.0410237788554	266.3910249709283	269.10763692855835	4.116621017456055	[262.9994959831238, 263.11602210998535, 264.09095907211304, 264.2670419216156, 265.0177729129791, 265.1347539424896, 265.251403093338, 265.3683650493622, 265.48500204086304, 265.60186314582825, 265.71865010261536, 265.83554100990295, 265.9521999359131, 266.0688359737396, 266.1858401298523, 266.30251002311707, 266.4194071292877, 266.53609013557434, 266.6530759334564, 266.7696840763092, 266.8865559101105, 267.10763692855835]	[263.00376761546534, 263.12043428212536, 264.10343428212536, 264.27013428212535, 265.02013428212535, 265.1368009487854, 265.2534676154454, 265.3701342821054, 265.48680094876545, 265.6034676154255, 265.7201342820855, 265.8368009487455, 265.95346761540554, 266.07013428206557, 266.1868009487256, 266.3034676153856, 266.42013428204564, 266.53680094870566, 266.6534676153657, 266.7701342820257, 266.88680094868573, 267.1201342820191]	2021_Feb_04_1116	59.91648869683225	1	0.375
22	45	FALSE	NV	a	['N', 'S', 'V', 'P', 'C', 'A', 'R', 'Y', 'H', 'K', 'U', 'X', 'G', 'Z', 'M', 'J']	[1335, 1731, 2245, 1456, 829, 697, 1587, 2670, 986, 1122, 2059, 4000, 944, 2911, 1224, 1029]	12	Present	NA	NA	PRESENT	0.3177659511566162	269.1030697822571	271.1074469089508	272.1574547767039	272.5074569224511	275.22400403022766	4.1165571212768555	[269.12213802337646, 269.2391929626465, 270.20732593536377, 270.3903880119324, 271.14101004600525, 271.25803995132446, 271.3747410774231, 271.49153304100037, 271.60828614234924, 271.72493410110474, 271.8418049812317, 271.95865297317505, 272.0754179954529, 272.1921420097351, 272.3092119693756, 272.4258711338043, 272.5426559448242, 272.6594591140747, 272.77628207206726, 272.89336109161377, 273.00983214378357, 273.22400403022766]	[269.1201342820191, 269.2368009486791, 270.2198009486791, 270.3865009486791, 271.1365009486791, 271.2531676153391, 271.36983428199915, 271.48650094865917, 271.6031676153192, 271.7198342819792, 271.83650094863924, 271.95316761529926, 272.0698342819593, 272.1865009486193, 272.30316761527934, 272.41983428193936, 272.5365009485994, 272.6531676152594, 272.76983428191943, 272.88650094857945, 273.0031676152395, 273.2365009485728]	2021_Feb_04_1116	59.91648869683225	1	0.375
22	46	FALSE	NA	a	['W', 'E', 'S', 'K', 'H', 'G', 'R', 'N', 'J', 'P', 'X', 'V', 'B', 'Z', 'A', 'T']	[2448, 904, 1731, 1122, 986, 944, 1587, 1335, 1029, 1456, 4000, 2245, 760, 2911, 697, 1888]	11	Present	NA	NA	PRESENT	0.29102396965026855	275.2263708114624	277.22421979904175	278.15756028487914	278.50756219220773	281.3403699398041	4.116150140762329	[275.24543809890747, 275.3454089164734, 276.3236930370331, 276.4966490268707, 277.26429200172424, 277.36441802978516, 277.4810609817505, 277.5980370044708, 277.71460795402527, 277.8316731452942, 277.9481589794159, 278.06513810157776, 278.18176198005676, 278.2987389564514, 278.4154989719391, 278.53227496147156, 278.64903497695923, 278.7656600475311, 278.88255500793457, 278.99957299232483, 279.1161251068115, 279.34036898612976]	[275.2365009485728, 275.35316761523285, 276.33616761523285, 276.50286761523284, 277.25286761523284, 277.36953428189287, 277.4862009485529, 277.6028676152129, 277.71953428187294, 277.83620094853296, 277.952867615193, 278.069534281853, 278.18620094851303, 278.30286761517306, 278.4195342818331, 278.5362009484931, 278.6528676151531, 278.76953428181315, 278.8862009484732, 279.0028676151332, 279.1195342817932, 279.35286761512657]	2021_Feb_04_1116	59.91648869683225	1	0.375
22	47	FALSE	NV	a	['N', 'S', 'U', 'P', 'H', 'R', 'G', 'T', 'Y', 'E', 'C', 'V', 'A', 'X', 'K', 'M']	[1335, 1731, 2059, 1456, 986, 1587, 944, 1888, 2670, 904, 829, 2245, 697, 4000, 1122, 1224]	14	Present	NA	NA	PRESENT	0.28781700134277344	281.332722902298	283.34029388427734	284.623635323769	284.97363723109765	287.4567370414734	4.116443157196045	[281.35178995132446, 281.4687559604645, 282.4400579929352, 282.6199131011963, 283.37102913856506, 283.48766708374023, 283.60430812835693, 283.7210109233856, 283.8380241394043, 283.95475912094116, 284.07155108451843, 284.1881251335144, 284.3051669597626, 284.4219551086426, 284.5386779308319, 284.65554213523865, 284.7721951007843, 284.8889379501343, 285.0058979988098, 285.12245202064514, 285.23934292793274, 285.45673513412476]	[281.35286761512657, 281.4695342817866, 282.4525342817866, 282.6192342817866, 283.3692342817866, 283.4859009484466, 283.60256761510664, 283.71923428176666, 283.8359009484267, 283.9525676150867, 284.06923428174673, 284.18590094840675, 284.3025676150668, 284.4192342817268, 284.5359009483868, 284.65256761504685, 284.7692342817069, 284.8859009483669, 285.0025676150269, 285.11923428168694, 285.23590094834697, 285.4692342816803]	2021_Feb_04_1116	59.91648869683225	1	0.375
22	48	FALSE	NA	a	['A', 'P', 'K', 'R', 'W', 'U', 'E', 'T', 'S', 'C', 'X', 'B', 'G', 'J', 'Z', 'V']	[697, 1456, 1122, 1587, 2448, 2059, 904, 1888, 1731, 829, 4000, 760, 944, 1029, 2911, 2245]	11	Present	NA	NA	PRESENT	0.3489649295806885	287.4561038017273	289.4564368724823	290.389778311994	290.7397802193226	293.5731029510498	4.116666078567505	[287.4751720428467, 287.59180903434753, 288.5564270019531, 288.74328994750977, 289.4938910007477, 289.6107680797577, 289.72767400741577, 289.82738494873047, 289.9612069129944, 290.0610439777374, 290.1778781414032, 290.2946231365204, 290.41145300865173, 290.52819204330444, 290.64503812789917, 290.76177406311035, 290.8786370754242, 290.99539613723755, 291.1122109889984, 291.22899413108826, 291.34591913223267, 291.5731019973755]	[287.4692342816803, 287.58590094834034, 288.56890094834034, 288.73560094834033, 289.48560094834033, 289.60226761500036, 289.7189342816604, 289.8356009483204, 289.9522676149804, 290.06893428164045, 290.1856009483005, 290.3022676149605, 290.4189342816205, 290.53560094828055, 290.65226761494057, 290.7689342816006, 290.8856009482606, 291.00226761492064, 291.11893428158066, 291.2356009482407, 291.3522676149007, 291.58560094823406]	2021_Feb_04_1116	59.91648869683225	1	0.375
22	49	FALSE	AV	a	['J', 'G', 'H', 'T', 'surprise', 'S', 'U', 'X', 'V', 'Z', 'A', 'E', 'B', 'P', 'K', 'R']	[1029, 944, 986, 1888, 'stimAuditory/all_stimAuditory/208.wav', 1731, 2059, 4000, 2245, 2911, 697, 904, 760, 1456, 1122, 1587]	8	Present	stimAuditory/all_stimAuditory/104.wav	NA	PRESENT	0.35326194763183594	293.56273794174194	295.5729579925537	296.1562991936668	296.50630133941405	299.6894690990448	4.116511106491089	[293.58180594444275, 293.6983950138092, 294.67279410362244, 294.8494679927826, 295.6003210544586, 295.717365026474, 295.8339591026306, 295.9509150981903, 296.06759810447693, 296.1843240261078, 296.3012089729309, 296.41809010505676, 296.5346269607544, 296.6514160633087, 296.76827692985535, 296.88524103164673, 297.001925945282, 297.11850214004517, 297.23552107810974, 297.3522460460663, 297.4691369533539, 297.6894700527191]	[293.58560094823406, 293.7022676148941, 294.6852676148941, 294.8519676148941, 295.6019676148941, 295.7186342815541, 295.8353009482141, 295.95196761487415, 296.0686342815342, 296.1853009481942, 296.3019676148542, 296.41863428151424, 296.53530094817427, 296.6519676148343, 296.7686342814943, 296.88530094815434, 297.00196761481436, 297.1186342814744, 297.2353009481344, 297.35196761479443, 297.46863428145446, 297.7019676147878]	2021_Feb_04_1116	59.91648869683225	1	0.375
22	50	FALSE	NA	a	['N', 'J', 'H', 'W', 'G', 'C', 'B', 'E', 'Y', 'V', 'T', 'U', 'X', 'K', 'A', 'R']	[1335, 1029, 986, 2448, 944, 829, 760, 904, 2670, 2245, 1888, 2059, 4000, 1122, 697, 1587]	13	Present	NA	NA	PRESENT	0.3820371627807617	299.68568682670593	301.6894838809967	302.8561574617355	303.20615960748273	305.80583691596985	4.1163530349731445	[299.70476603507996, 299.8216600418091, 300.78915905952454, 300.9729781150818, 301.72361397743225, 301.8404960632324, 301.95727801322937, 302.0739390850067, 302.19082903862, 302.3076980113983, 302.4244101047516, 302.54126811027527, 302.65773606300354, 302.77475810050964, 302.8917980194092, 303.00834798812866, 303.12509202957153, 303.2418611049652, 303.3587589263916, 303.475417137146, 303.5922019481659, 303.80583691596985]	[299.7019676147878, 299.8186342814478, 300.80163428144783, 300.9683342814478, 301.7183342814478, 301.83500094810785, 301.95166761476787, 302.0683342814279, 302.1850009480879, 302.30166761474794, 302.41833428140797, 302.535000948068, 302.651667614728, 302.76833428138804, 302.88500094804806, 303.0016676147081, 303.1183342813681, 303.23500094802813, 303.35166761468815, 303.4683342813482, 303.5850009480082, 303.81833428134155]	2021_Feb_04_1116	59.91648869683225	1	0.375
22	51	FALSE	NN	a	['C', 'E', 'H', 'R', 'J', 'S', 'Y', 'M', 'B', 'U', 'V', 'A', 'W', 'Z', 'N', 'T']	[829, 904, 986, 1587, 1029, 1731, 2670, 1224, 760, 2059, 2245, 697, 2448, 2911, 1335, 1888]	8	Absent	NA	NA	ABSENT	0.27513885498046875	305.79200291633606	307.805636882782	308.3889783223137	308.7389802296423	311.92220401763916	4.116567134857178	[305.8110830783844, 305.9279820919037, 306.90552711486816, 307.0791640281677, 307.8299329280853, 307.9467010498047, 308.06362795829773, 308.1806230545044, 308.2971749305725, 308.41413497924805, 308.5308780670166, 308.64760303497314, 308.76451992988586, 308.881245136261, 308.9979979991913, 309.11486291885376, 309.2315330505371, 309.3484721183777, 309.4652330875397, 309.58187794685364, 309.698823928833, 309.92220306396484]	[305.81833428134155, 305.9350009480016, 306.9180009480016, 307.08470094800157, 307.83470094800157, 307.9513676146616, 308.0680342813216, 308.18470094798164, 308.30136761464166, 308.4180342813017, 308.5347009479617, 308.65136761462173, 308.76803428128176, 308.8847009479418, 309.0013676146018, 309.1180342812618, 309.23470094792185, 309.3513676145819, 309.4680342812419, 309.5847009479019, 309.70136761456195, 309.9347009478953]	2021_Feb_04_1116	59.91648869683225	1	0.375
22	52	FALSE	NN	a	['E', 'G', 'K', 'V', 'B', 'M', 'S', 'A', 'H', 'U', 'W', 'N', 'J', 'Y', 'R', 'P']	[904, 944, 1122, 2245, 760, 1224, 1731, 697, 986, 2059, 2448, 1335, 1029, 2670, 1587, 1456]	14	Absent	NA	NA	ABSENT	0.35997700691223145	311.9152569770813	313.9223539829254	315.2056951839985	315.5556973297457	318.0385699272156	4.116215944290161	[311.9343249797821, 312.0512340068817, 313.0218930244446, 313.20286202430725, 313.95307207107544, 314.0700521469116, 314.18688797950745, 314.3034830093384, 314.4204349517822, 314.53724098205566, 314.6541380882263, 314.77093291282654, 314.88760805130005, 315.00435304641724, 315.1211130619049, 315.2380061149597, 315.3548381328583, 315.47164607048035, 315.58828997612, 315.70525598526, 315.8218879699707, 316.03856897354126]	[311.9347009478953, 312.0513676145553, 313.0343676145553, 313.2010676145553, 313.9510676145553, 314.06773428121534, 314.18440094787536, 314.3010676145354, 314.4177342811954, 314.53440094785543, 314.65106761451545, 314.7677342811755, 314.8844009478355, 315.0010676144955, 315.11773428115555, 315.2344009478156, 315.3510676144756, 315.4677342811356, 315.58440094779564, 315.70106761445567, 315.8177342811157, 316.05106761444904]	2021_Feb_04_1116	59.91648869683225	1	0.375
22	53	FALSE	NN	a	['H', 'M', 'N', 'J', 'P', 'G', 'T', 'Y', 'S', 'K', 'R', 'A', 'Z', 'V', 'U', 'B']	[986, 1224, 1335, 1029, 1456, 944, 1888, 2670, 1731, 1122, 1587, 697, 2911, 2245, 2059, 760]	11	Absent	NA	NA	ABSENT	0.5334079265594482	318.03868079185486	320.03844380378723	320.97178524329894	321.32178715062753	324.1549370288849	4.116493225097656	[318.0577480792999, 318.17452001571655, 319.1382620334625, 319.32568192481995, 320.0764391422272, 320.1763439178467, 320.2931580543518, 320.41004395484924, 320.5268371105194, 320.64361214637756, 320.7604310512543, 320.8772029876709, 320.9939579963684, 321.1110110282898, 321.2275769710541, 321.34452295303345, 321.46108412742615, 321.57800102233887, 321.69485092163086, 321.8116171360016, 321.9283630847931, 322.15493607521057]	[318.05106761444904, 318.16773428110906, 319.15073428110907, 319.31743428110906, 320.06743428110906, 320.1841009477691, 320.3007676144291, 320.41743428108913, 320.53410094774915, 320.6507676144092, 320.7674342810692, 320.8841009477292, 321.00076761438925, 321.11743428104927, 321.2341009477093, 321.3507676143693, 321.46743428102934, 321.58410094768936, 321.7007676143494, 321.8174342810094, 321.93410094766944, 322.1674342810028]	2021_Feb_04_1116	59.91648869683225	1	0.375
22	54	FALSE	NN	a	['P', 'W', 'M', 'B', 'C', 'S', 'R', 'Z', 'N', 'U', 'H', 'K', 'V', 'Y', 'E', 'J']	[1456, 2448, 1224, 760, 829, 1731, 1587, 2911, 1335, 2059, 986, 1122, 2245, 2670, 904, 1029]	12	Absent	NA	NA	ABSENT	0.5618069171905518	324.1452558040619	326.1546459197998	327.2046537875529	327.5546559333001	330.2713029384613	4.116657018661499	[324.16432309150696, 324.28100395202637, 325.2546269893646, 325.4320330619812, 326.18278193473816, 326.29980397224426, 326.4164719581604, 326.5334379673004, 326.650239944458, 326.76672410964966, 326.88379096984863, 327.000363111496, 327.1172630786896, 327.2341561317444, 327.3509089946747, 327.46748208999634, 327.58447098731995, 327.7011880874634, 327.817990064621, 327.9349060058594, 328.05164098739624, 328.2713029384613]	[324.1674342810028, 324.2841009476628, 325.2671009476628, 325.4338009476628, 326.1838009476628, 326.3004676143228, 326.41713428098285, 326.5338009476429, 326.6504676143029, 326.7671342809629, 326.88380094762294, 327.00046761428297, 327.117134280943, 327.233800947603, 327.35046761426304, 327.46713428092306, 327.5838009475831, 327.7004676142431, 327.81713428090313, 327.93380094756316, 328.0504676142232, 328.28380094755653]	2021_Feb_04_1116	59.91648869683225	1	0.375
22	55	FALSE	NA	a	['S', 'B', 'Z', 'Y', 'W', 'M', 'J', 'X', 'R', 'U', 'P', 'K', 'G', 'H', 'A', 'N']	[1731, 760, 2911, 2670, 2448, 1224, 1029, 4000, 1587, 2059, 1456, 1122, 944, 986, 697, 1335]	8	Present	NA	NA	PRESENT	0.2863280773162842	330.2680678367615	332.2711479663849	332.854489167498	333.2044913132452	336.3876700401306	4.1165220737457275	[330.28713512420654, 330.4041519165039, 331.3709919452667, 331.5553069114685, 332.30607891082764, 332.4229259490967, 332.5397310256958, 332.6565320491791, 332.7733521461487, 332.8901479244232, 333.0069420337677, 333.12357807159424, 333.24051094055176, 333.3572769165039, 333.4741189479828, 333.59092807769775, 333.7076470851898, 333.8243770599365, 333.94150710105896, 334.05799198150635, 334.174840927124, 334.3876690864563]	[330.28380094755653, 330.40046761421655, 331.38346761421656, 331.55016761421655, 332.30016761421655, 332.41683428087657, 332.5335009475366, 332.6501676141966, 332.76683428085664, 332.88350094751667, 333.0001676141767, 333.1168342808367, 333.23350094749674, 333.35016761415676, 333.4668342808168, 333.5835009474768, 333.70016761413683, 333.81683428079685, 333.9335009474569, 334.0501676141169, 334.1668342807769, 334.4001676141103]	2021_Feb_04_1116	59.91648869683225	1	0.375
22	56	FALSE	NV	a	['R', 'A', 'J', 'Y', 'E', 'Z', 'B', 'N', 'X', 'G', 'U', 'H', 'W', 'P', 'V', 'K']	[1587, 697, 1029, 2670, 904, 2911, 760, 1335, 4000, 944, 2059, 986, 2448, 1456, 2245, 1122]	9	Present	NA	NA	PRESENT	0.3955931663513184	336.3745667934418	338.3874418735504	339.08744997974213	339.4374518870707	342.5040371417999	4.116595268249512	[336.3936331272125, 336.5105969905853, 337.48736000061035, 337.66167306900024, 338.4124710559845, 338.52948904037476, 338.6460189819336, 338.7629671096802, 338.87983298301697, 338.99640798568726, 339.113254070282, 339.2302520275116, 339.3469650745392, 339.46366906166077, 339.58042001724243, 339.6971459388733, 339.8142280578613, 339.9306960105896, 340.04773712158203, 340.16429805755615, 340.2812399864197, 340.5040349960327]	[336.4001676141103, 336.5168342807703, 337.4998342807703, 337.6665342807703, 338.4165342807703, 338.5332009474303, 338.64986761409034, 338.76653428075036, 338.8832009474104, 338.9998676140704, 339.11653428073043, 339.23320094739046, 339.3498676140505, 339.4665342807105, 339.5832009473705, 339.69986761403055, 339.8165342806906, 339.9332009473506, 340.0498676140106, 340.16653428067065, 340.28320094733067, 340.516534280664]	2021_Feb_04_1116	59.91648869683225	1	0.375
22	57	FALSE	NN	a	['M', 'W', 'S', 'C', 'G', 'A', 'R', 'E', 'T', 'H', 'B', 'P', 'U', 'N', 'J', 'Z']	[1224, 2448, 1731, 829, 944, 697, 1587, 904, 1888, 986, 760, 1456, 2059, 1335, 1029, 2911]	13	Absent	NA	NA	ABSENT	0.4960899353027344	342.49787187576294	344.5038528442383	345.67052666339566	346.0205295243986	348.62040305137634	4.1165502071380615	[342.5169610977173, 342.63366413116455, 343.60372710227966, 343.78514099121094, 344.5360369682312, 344.65246391296387, 344.76944398880005, 344.88606905937195, 345.00307512283325, 345.11954498291016, 345.23654294013977, 345.35331106185913, 345.47018909454346, 345.58706998825073, 345.7038149833679, 345.82062697410583, 345.9373710155487, 346.05414509773254, 346.17081809043884, 346.2875909805298, 346.4044620990753, 346.62040400505066]	[342.516534280664, 342.63320094732404, 343.61620094732405, 343.78290094732404, 344.53290094732404, 344.64956761398406, 344.7662342806441, 344.8829009473041, 344.99956761396413, 345.11623428062416, 345.2329009472842, 345.3495676139442, 345.4662342806042, 345.58290094726425, 345.6995676139243, 345.8162342805843, 345.9329009472443, 346.04956761390434, 346.16623428056437, 346.2829009472244, 346.3995676138844, 346.63290094721776]	2021_Feb_04_1116	59.91648869683225	1	0.375
22	58	FALSE	VA	a	['R', 'T', 'N', 'S', 'surprise', 'U', 'J', 'X', 'G', 'V', 'W', 'Z', 'C', 'P', 'H', 'M']	[1587, 1888, 1335, 1731, 'stimAuditory/all_stimAuditory/224.wav', 2059, 1029, 4000, 944, 2245, 2448, 2911, 829, 1456, 986, 1224]	8	Present	NA	NA	PRESENT	0.38936400413513184	348.62120485305786	350.6205198764801	351.2038601239189	351.5538622696661	354.7367699146271	4.116250038146973	[348.64027214050293, 348.75696897506714, 349.7200949192047, 349.8913309574127, 350.65894508361816, 350.75887799263, 350.8757231235504, 350.9927749633789, 351.10929799079895, 351.22614192962646, 351.3430349826813, 351.4597339630127, 351.5765700340271, 351.69325494766235, 351.81018710136414, 351.92682003974915, 352.04374504089355, 352.1605260372162, 352.2772750854492, 352.39401412010193, 352.51091408729553, 352.7367699146271]	[348.63290094721776, 348.7495676138778, 349.7325676138778, 349.8992676138778, 350.6492676138778, 350.7659342805378, 350.88260094719783, 350.99926761385785, 351.1159342805179, 351.2326009471779, 351.3492676138379, 351.46593428049795, 351.58260094715797, 351.699267613818, 351.815934280478, 351.93260094713804, 352.04926761379807, 352.1659342804581, 352.2826009471181, 352.39926761377814, 352.51593428043816, 352.7492676137715]	2021_Feb_04_1116	59.91648869683225	1	0.375
22	59	FALSE	NA	a	['J', 'T', 'S', 'H', 'G', 'A', 'B', 'X', 'N', 'W', 'U', 'V', 'E', 'M', 'P', 'Y']	[1029, 1888, 1731, 986, 944, 697, 760, 4000, 1335, 2448, 2059, 2245, 904, 1224, 1456, 2670]	8	Present	NA	NA	PRESENT	0.30596303939819336	354.72785687446594	356.73676776885986	357.32010920839156	357.6701111157202	360.8531370162964	4.116369247436523	[354.74692392349243, 354.8633999824524, 355.83646297454834, 356.0147080421448, 356.765389919281, 356.8821051120758, 356.9990060329437, 357.1159191131592, 357.23270297050476, 357.3492519855499, 357.46614813804626, 357.58291006088257, 357.6998760700226, 357.8164629936218, 357.9334309101105, 358.05011892318726, 358.1669571399689, 358.28356409072876, 358.40061211586, 358.5171949863434, 358.6341669559479, 358.85313606262207]	[354.7492676137715, 354.86593428043153, 355.84893428043154, 356.0156342804315, 356.7656342804315, 356.88230094709155, 356.9989676137516, 357.1156342804116, 357.2323009470716, 357.34896761373165, 357.46563428039167, 357.5823009470517, 357.6989676137117, 357.81563428037174, 357.93230094703176, 358.0489676136918, 358.1656342803518, 358.28230094701183, 358.39896761367186, 358.5156342803319, 358.6323009469919, 358.86563428032525]	2021_Feb_04_1116	59.91648869683225	1	0.375
22	60	FALSE	NV	a	['U', 'P', 'M', 'K', 'C', 'W', 'G', 'Y', 'Z', 'R', 'V', 'H', 'J', 'X', 'A', 'N']	[2059, 1456, 1224, 1122, 829, 2448, 944, 2670, 2911, 1587, 2245, 986, 1029, 4000, 697, 1335]	14	Present	NA	NA	PRESENT	0.35932302474975586	360.8507568836212	362.85324883461	364.1365902741017	364.4865921814303	366.9695029258728	4.116254091262817	[360.8698239326477, 360.9864270687103, 361.9528260231018, 362.1379840373993, 362.8885700702667, 363.00530099868774, 363.1222960948944, 363.2389919757843, 363.3558700084686, 363.47253704071045, 363.58933901786804, 363.70617413520813, 363.8228449821472, 363.9400780200958, 364.05634593963623, 364.1735169887543, 364.29048013687134, 364.4070749282837, 364.52364897727966, 364.640545129776, 364.7572441101074, 364.9695019721985]	[360.86563428032525, 360.9823009469853, 361.9653009469853, 362.1320009469853, 362.8820009469853, 362.9986676136453, 363.1153342803053, 363.23200094696534, 363.34866761362537, 363.4653342802854, 363.5820009469454, 363.69866761360544, 363.81533428026546, 363.9320009469255, 364.0486676135855, 364.16533428024553, 364.28200094690555, 364.3986676135656, 364.5153342802256, 364.6320009468856, 364.74866761354565, 364.982000946879]	2021_Feb_04_1116	59.91648869683225	1	0.375
22	61	FALSE	NV	a	['H', 'K', 'A', 'T', 'J', 'Z', 'P', 'U', 'V', 'X', 'Y', 'B', 'E', 'C', 'W', 'N']	[986, 1122, 697, 1888, 1029, 2911, 1456, 2059, 2245, 4000, 2670, 760, 904, 829, 2448, 1335]	10	Present	NA	NA	PRESENT	0.7077920436859131	366.9570689201355	368.9693329334259	369.786007467859	370.13600961360623	373.0858700275421	4.116537094116211	[366.976135969162, 367.0931191444397, 368.0691931247711, 368.24426102638245, 368.994992017746, 369.1117420196533, 369.2286961078644, 369.34555292129517, 369.4623439311981, 369.5789489746094, 369.6959550380707, 369.81256198883057, 369.92953610420227, 370.04637908935547, 370.16316413879395, 370.2797679901123, 370.3966519832611, 370.51340508461, 370.63025093078613, 370.746985912323, 370.86376309394836, 371.0858690738678]	[366.982000946879, 367.098667613539, 368.081667613539, 368.248367613539, 368.998367613539, 369.11503428019904, 369.23170094685906, 369.3483676135191, 369.4650342801791, 369.58170094683913, 369.69836761349916, 369.8150342801592, 369.9317009468192, 370.04836761347923, 370.16503428013925, 370.2817009467993, 370.3983676134593, 370.5150342801193, 370.63170094677935, 370.74836761343937, 370.8650342800994, 371.09836761343274]	2021_Feb_04_1116	59.91648869683225	1	0.375
22	62	FALSE	VN	a	['K', 'H', 'W', 'A', 'surprise', 'U', 'S', 'M', 'G', 'P', 'N', 'R', 'B', 'T', 'J', 'Z']	[1122, 986, 2448, 697, 'stimAuditory/all_stimAuditory/221.wav', 2059, 1731, 1224, 944, 1456, 1335, 1587, 760, 1888, 1029, 2911]	8	Absent	NA	NA	ABSENT	0.4087021350860596	373.08045291900635	375.0859508514404	375.6692913372978	376.01929324462645	379.2022371292114	4.116286277770996	[373.09951996803284, 373.2161509990692, 374.18555903434753, 374.36782693862915, 375.11828994750977, 375.23514795303345, 375.351891040802, 375.4685790538788, 375.58563113212585, 375.7022531032562, 375.8190951347351, 375.9359109401703, 376.05253410339355, 376.16948103904724, 376.2862551212311, 376.4030079841614, 376.51976108551025, 376.63673400878906, 376.75331807136536, 376.87017703056335, 376.9869680404663, 377.2022371292114]	[373.09836761343274, 373.21503428009277, 374.19803428009277, 374.36473428009276, 375.11473428009276, 375.2314009467528, 375.3480676134128, 375.46473428007283, 375.58140094673286, 375.6980676133929, 375.8147342800529, 375.9314009467129, 376.04806761337295, 376.164734280033, 376.281400946693, 376.398067613353, 376.51473428001304, 376.63140094667307, 376.7480676133331, 376.8647342799931, 376.98140094665314, 377.2147342799865]	2021_Feb_04_1116	59.91648869683225	1	0.375
22	63	FALSE	NV	a	['H', 'J', 'R', 'A', 'C', 'T', 'Z', 'G', 'N', 'Y', 'W', 'V', 'K', 'X', 'M', 'B']	[986, 1029, 1587, 697, 829, 1888, 2911, 944, 1335, 2670, 2448, 2245, 1122, 4000, 1224, 760]	14	Present	NA	NA	PRESENT	0.36555004119873047	379.20371079444885	381.2021799087525	382.4855211098255	382.8355232555727	385.31860303878784	4.1164231300354	[379.2227780818939, 379.339448928833, 380.30192613601685, 380.4739019870758, 381.2414391040802, 381.3415479660034, 381.4582951068878, 381.5751039981842, 381.69197702407837, 381.8085789680481, 381.9254140853882, 382.0421130657196, 382.1591169834137, 382.27574014663696, 382.3926651477814, 382.5094060897827, 382.6263039112091, 382.7429111003876, 382.85994005203247, 382.9766170978546, 383.09355998039246, 383.31860303878784]	[379.2147342799865, 379.3314009466465, 380.3144009466465, 380.4811009466465, 381.2311009466465, 381.34776761330653, 381.46443427996655, 381.5811009466266, 381.6977676132866, 381.8144342799466, 381.93110094660665, 382.04776761326667, 382.1644342799267, 382.2811009465867, 382.39776761324674, 382.51443427990677, 382.6311009465668, 382.7477676132268, 382.86443427988684, 382.98110094654686, 383.0977676132069, 383.33110094654023]	2021_Feb_04_1116	59.91648869683225	1	0.375
22	64	FALSE	NA	a	['N', 'H', 'G', 'A', 'K', 'E', 'P', 'B', 'X', 'R', 'C', 'S', 'W', 'Y', 'Z', 'T']	[1335, 986, 944, 697, 1122, 904, 1456, 760, 4000, 1587, 829, 1731, 2448, 2670, 2911, 1888]	9	Present	NA	NA	PRESENT	0.3144550323486328	385.3102028369904	387.318384885788	388.0183917998868	388.3683948993082	391.4349701404571	4.1165852546691895	[385.3292701244354, 385.4459459781647, 386.4182929992676, 386.59709000587463, 387.3477909564972, 387.4648039340973, 387.5814850330353, 387.6981999874115, 387.81506299972534, 387.931743144989, 388.04873514175415, 388.1654200553894, 388.2824010848999, 388.39901399612427, 388.5159080028534, 388.6326940059662, 388.7495300769806, 388.8662989139557, 388.98309206962585, 389.09984397888184, 389.21664690971375, 389.43496894836426]	[385.33110094654023, 385.44776761320026, 386.43076761320026, 386.59746761320025, 387.34746761320025, 387.4641342798603, 387.5808009465203, 387.6974676131803, 387.81413427984035, 387.93080094650037, 388.0474676131604, 388.1641342798204, 388.28080094648044, 388.39746761314046, 388.5141342798005, 388.6308009464605, 388.74746761312053, 388.86413427978056, 388.9808009464406, 389.0974676131006, 389.21413427976063, 389.447467613094]	2021_Feb_04_1116	59.91648869683225	1	0.375
22	65	FALSE	NN	a	['Y', 'J', 'S', 'G', 'V', 'P', 'E', 'U', 'B', 'K', 'R', 'H', 'M', 'C', 'W', 'Z']	[2670, 1029, 1731, 944, 2245, 1456, 904, 2059, 760, 1122, 1587, 986, 1224, 829, 2448, 2911]	13	Absent	NA	NA	ABSENT	0.3677520751953125	391.43329191207886	393.4348027706146	394.6014775434463	394.95147945077497	397.5513370037079	4.116534233093262	[391.45235896110535, 391.5689890384674, 392.5346591472626, 392.72032594680786, 393.4710569381714, 393.58779191970825, 393.7047519683838, 393.8213860988617, 393.93828797340393, 394.05510210990906, 394.1719539165497, 394.28864097595215, 394.4053170681, 394.5224039554596, 394.6388759613037, 394.7559161186218, 394.8559980392456, 394.9895169734955, 395.0894310474396, 395.20621705055237, 395.3230049610138, 395.55133605003357]	[391.447467613094, 391.564134279754, 392.547134279754, 392.713834279754, 393.463834279754, 393.580500946414, 393.69716761307404, 393.81383427973407, 393.9305009463941, 394.0471676130541, 394.16383427971414, 394.28050094637416, 394.3971676130342, 394.5138342796942, 394.63050094635423, 394.74716761301426, 394.8638342796743, 394.9805009463343, 395.0971676129943, 395.21383427965435, 395.3305009463144, 395.5638342796477]	2021_Feb_04_1116	59.91648869683225	1	0.375
22	66	FALSE	NV	a	['B', 'N', 'W', 'V', 'P', 'K', 'U', 'Y', 'E', 'M', 'X', 'G', 'A', 'C', 'J', 'Z']	[760, 1335, 2448, 2245, 1456, 1122, 2059, 2670, 904, 1224, 4000, 944, 697, 829, 1029, 2911]	11	Present	NA	NA	PRESENT	0.2838759422302246	397.5395917892456	399.5510859489441	400.4844271500372	400.8344292957844	403.6677029132843	4.11661696434021	[397.5586590766907, 397.6754159927368, 398.6510260105133, 398.8267900943756, 399.5774850845337, 399.69445514678955, 399.8111729621887, 399.9280369281769, 400.04467701911926, 400.16150307655334, 400.27842807769775, 400.3949980735779, 400.51199412345886, 400.62861704826355, 400.74555802345276, 400.8622889518738, 400.97912311553955, 401.09588098526, 401.2126929759979, 401.3294200897217, 401.4463939666748, 401.6677041053772]	[397.5638342796477, 397.68050094630775, 398.66350094630775, 398.83020094630774, 399.58020094630774, 399.69686761296776, 399.8135342796278, 399.9302009462878, 400.04686761294784, 400.16353427960786, 400.2802009462679, 400.3968676129279, 400.51353427958793, 400.63020094624795, 400.746867612908, 400.863534279568, 400.980200946228, 401.09686761288805, 401.21353427954807, 401.3302009462081, 401.4468676128681, 401.68020094620147]	2021_Feb_04_1116	59.91648869683225	1	0.375
22	67	FALSE	NA	a	['B', 'J', 'H', 'P', 'Y', 'C', 'E', 'Z', 'A', 'V', 'T', 'X', 'R', 'G', 'K', 'S']	[760, 1029, 986, 1456, 2670, 829, 904, 2911, 697, 2245, 1888, 4000, 1587, 944, 1122, 1731]	12	Present	NA	NA	PRESENT	0.44844508171081543	403.66298389434814	405.6673707962036	406.71737794870097	407.0673798560296	409.7840700149536	4.11669921875	[403.68205094337463, 403.7987570762634, 404.76739406585693, 404.9503140449524, 405.70078897476196, 405.8174650669098, 405.9342930316925, 406.0512480735779, 406.1680109500885, 406.28480100631714, 406.40161991119385, 406.518306016922, 406.63516306877136, 406.7520201206207, 406.86869192123413, 406.98558592796326, 407.10231709480286, 407.21907806396484, 407.33580899238586, 407.45276403427124, 407.5695450305939, 407.7840690612793]	[403.68020094620147, 403.7968676128615, 404.7798676128615, 404.9465676128615, 405.6965676128615, 405.8132342795215, 405.92990094618153, 406.04656761284156, 406.1632342795016, 406.2799009461616, 406.3965676128216, 406.51323427948165, 406.6299009461417, 406.7465676128017, 406.8632342794617, 406.97990094612175, 407.09656761278177, 407.2132342794418, 407.3299009461018, 407.44656761276184, 407.56323427942186, 407.7965676127552]	2021_Feb_04_1116	59.91648869683225	1	0.375
22	68	FALSE	NN	a	['N', 'V', 'M', 'W', 'S', 'E', 'A', 'G', 'T', 'J', 'U', 'P', 'K', 'R', 'H', 'Y']	[1335, 2245, 1224, 2448, 1731, 904, 697, 944, 1888, 1029, 2059, 1456, 1122, 1587, 986, 2670]	14	Absent	NA	NA	ABSENT	0.4378030300140381	409.78628277778625	411.78381299972534	413.0671542007984	413.4171561081271	415.9004371166229	4.116624116897583	[409.805349111557, 409.9050841331482, 410.88376092910767, 411.05630898475647, 411.8239440917969, 411.92396903038025, 412.04074597358704, 412.15754103660583, 412.2743260860443, 412.3910720348358, 412.50796699523926, 412.62489891052246, 412.7416830062866, 412.85823702812195, 412.9752240180969, 413.09182810783386, 413.2086880207062, 413.3256239891052, 413.44242095947266, 413.5591239929199, 413.67581605911255, 413.9004371166229]	[409.7965676127552, 409.91323427941524, 410.89623427941524, 411.06293427941523, 411.81293427941523, 411.92960094607525, 412.0462676127353, 412.1629342793953, 412.2796009460553, 412.39626761271535, 412.5129342793754, 412.6296009460354, 412.7462676126954, 412.86293427935544, 412.97960094601547, 413.0962676126755, 413.2129342793355, 413.32960094599554, 413.44626761265556, 413.5629342793156, 413.6796009459756, 413.91293427930896]	2021_Feb_04_1116	59.91648869683225	1	0.375
22	69	FALSE	NV	a	['M', 'R', 'U', 'C', 'S', 'A', 'P', 'K', 'X', 'G', 'W', 'N', 'E', 'H', 'B', 'Y']	[1224, 1587, 2059, 829, 1731, 697, 1456, 1122, 4000, 944, 2448, 1335, 904, 986, 760, 2670]	9	Present	NA	NA	PRESENT	0.2905709743499756	415.8930258750915	417.90040278434753	418.60040993686493	418.9504118441935	422.016802072525	4.11639928817749	[415.91209292411804, 416.02860593795776, 417.00012707710266, 417.17965507507324, 417.9304039478302, 418.04718494415283, 418.16416692733765, 418.2806861400604, 418.39768505096436, 418.51445293426514, 418.63099002838135, 418.7479829788208, 418.864825963974, 418.98161911964417, 419.09821605682373, 419.2151370048523, 419.3317220211029, 419.4487180709839, 419.5655789375305, 419.6823139190674, 419.7990140914917, 420.016802072525]	[415.91293427930896, 416.029600945969, 417.012600945969, 417.179300945969, 417.929300945969, 418.045967612629, 418.162634279289, 418.27930094594905, 418.39596761260907, 418.5126342792691, 418.6293009459291, 418.74596761258914, 418.86263427924916, 418.9793009459092, 419.0959676125692, 419.21263427922923, 419.32930094588926, 419.4459676125493, 419.5626342792093, 419.67930094586933, 419.79596761252935, 420.0293009458627]	2021_Feb_04_1116	59.91648869683225	1	0.375
22	70	FALSE	NV	a	['R', 'Y', 'G', 'J', 'E', 'U', 'N', 'X', 'P', 'K', 'Z', 'A', 'H', 'M', 'V', 'C']	[1587, 2670, 944, 1029, 904, 2059, 1335, 4000, 1456, 1122, 2911, 697, 986, 1224, 2245, 829]	8	Present	NA	NA	PRESENT	0.23188090324401855	422.01588892936707	424.0166018009186	424.5999432404503	424.9499451477789	428.13317012786865	4.116568326950073	[422.03497791290283, 422.1515169143677, 423.1164939403534, 423.3028450012207, 424.05358505249023, 424.1705949306488, 424.2870719432831, 424.4039831161499, 424.5205719470978, 424.6376221179962, 424.7542669773102, 424.8711860179901, 424.9710359573364, 425.0879280567169, 425.2047109603882, 425.3214919567108, 425.43829011917114, 425.5550739765167, 425.671875, 425.7886691093445, 425.9059729576111, 426.13317108154297]	[422.0293009458627, 422.1459676125227, 423.12896761252273, 423.2956676125227, 424.0456676125227, 424.16233427918274, 424.27900094584277, 424.3956676125028, 424.5123342791628, 424.62900094582284, 424.74566761248286, 424.8623342791429, 424.9790009458029, 425.09566761246293, 425.21233427912296, 425.329000945783, 425.445667612443, 425.562334279103, 425.67900094576305, 425.7956676124231, 425.9123342790831, 426.14566761241645]	2021_Feb_04_1116	59.91648869683225	1	0.375
22	71	FALSE	NV	a	['P', 'J', 'B', 'T', 'M', 'C', 'K', 'X', 'Z', 'Y', 'S', 'U', 'E', 'N', 'A', 'R']	[1456, 1029, 760, 1888, 1224, 829, 1122, 4000, 2911, 2670, 1731, 2059, 904, 1335, 697, 1587]	8	Present	NA	NA	PRESENT	0.29241085052490234	428.12231183052063	430.132994890213	430.7163351376518	431.06633728339904	434.2495369911194	4.116542100906372	[428.1413791179657, 428.2582130432129, 429.2328600883484, 429.4093511104584, 430.1600959300995, 430.2767450809479, 430.39386200904846, 430.5104970932007, 430.6272850036621, 430.74389600753784, 430.8608729839325, 430.97752714157104, 431.0945179462433, 431.2111301422119, 431.3279709815979, 431.44477009773254, 431.5614960193634, 431.67834210395813, 431.79506492614746, 431.91206407546997, 432.0288391113281, 432.2495369911194]	[428.14566761241645, 428.26233427907647, 429.2453342790765, 429.41203427907647, 430.16203427907647, 430.2787009457365, 430.3953676123965, 430.51203427905654, 430.62870094571656, 430.7453676123766, 430.8620342790366, 430.97870094569663, 431.09536761235665, 431.2120342790167, 431.3287009456767, 431.4453676123367, 431.56203427899675, 431.6787009456568, 431.7953676123168, 431.9120342789768, 432.02870094563684, 432.2620342789702]	2021_Feb_04_1116	59.91648869683225	1	0.375
22	72	FALSE	NA	a	['N', 'E', 'M', 'C', 'P', 'K', 'R', 'G', 'Z', 'H', 'B', 'S', 'W', 'X', 'J', 'V']	[1335, 904, 1224, 829, 1456, 1122, 1587, 944, 2911, 986, 760, 1731, 2448, 4000, 1029, 2245]	14	Present	NA	NA	ABSENT	0.5768511295318604	434.2455108165741	436.24929881095886	437.5326392967762	437.88264120410486	440.3659019470215	4.116603136062622	[434.26457810401917, 434.3813331127167, 435.3492259979248, 435.5325961112976, 436.2836060523987, 436.40013098716736, 436.51675605773926, 436.63380312919617, 436.750440120697, 436.86730313301086, 436.98391103744507, 437.1008310317993, 437.21775913238525, 437.3343849182129, 437.45110607147217, 437.5681059360504, 437.684711933136, 437.8015830516815, 437.9183449745178, 438.0351679325104, 438.15179991722107, 438.3659019470215]	[434.2620342789702, 434.3787009456302, 435.3617009456302, 435.5284009456302, 436.2784009456302, 436.39506761229023, 436.51173427895026, 436.6284009456103, 436.7450676122703, 436.8617342789303, 436.97840094559035, 437.0950676122504, 437.2117342789104, 437.3284009455704, 437.44506761223045, 437.56173427889047, 437.6784009455505, 437.7950676122105, 437.91173427887054, 438.02840094553056, 438.1450676121906, 438.37840094552394]	2021_Feb_04_1116	59.91648869683225	1	0.375
22	73	FALSE	NV	a	['S', 'H', 'R', 'N', 'E', 'A', 'J', 'K', 'G', 'X', 'M', 'U', 'T', 'B', 'P', 'Z']	[1731, 986, 1587, 1335, 904, 697, 1029, 1122, 944, 4000, 1224, 2059, 1888, 760, 1456, 2911]	10	Present	NA	NA	PRESENT	0.3740708827972412	440.36875796318054	442.3656108379364	443.1822856107881	443.53228751811673	446.4822700023651	4.116659164428711	[440.38782501220703, 440.4876289367676, 441.4655921459198, 441.6389651298523, 442.38965702056885, 442.50641894340515, 442.62339305877686, 442.74022102355957, 442.85701513290405, 442.97380113601685, 443.0905430316925, 443.2071690559387, 443.32404494285583, 443.4408371448517, 443.5575029850006, 443.674565076828, 443.7914209365845, 443.9079489707947, 444.0247130393982, 444.14159202575684, 444.2584869861603, 444.4822700023651]	[440.37840094552394, 440.49506761218396, 441.47806761218396, 441.64476761218395, 442.39476761218395, 442.511434278844, 442.628100945504, 442.744767612164, 442.86143427882405, 442.9781009454841, 443.0947676121441, 443.2114342788041, 443.32810094546414, 443.44476761212417, 443.5614342787842, 443.6781009454442, 443.79476761210424, 443.91143427876426, 444.0281009454243, 444.1447676120843, 444.26143427874433, 444.4947676120777]	2021_Feb_04_1116	59.91648869683225	1	0.375
22	74	FALSE	AA	a	['N', 'Z', 'E', 'J', 'M', 'W', 'G', 'P', 'R', 'surprise', 'U', 'C', 'X', 'T', 'Y', 'K']	[1335, 2911, 904, 1029, 1224, 2448, 944, 1456, 1587, 'stimAuditory/all_stimAuditory/117.wav', 2059, 829, 4000, 1888, 2670, 1122]	13	Present	stimAuditory/all_stimAuditory/217.wav	NA	PRESENT	0.3067188262939453	446.4754409790039	448.4820477962494	449.6487216154068	449.9987235227354	452.5986371040344	4.116589307785034	[446.4945089817047, 446.6108019351959, 447.58196210861206, 447.76221108436584, 448.51299500465393, 448.6297149658203, 448.74644708633423, 448.86334109306335, 448.9800100326538, 449.09689712524414, 449.2135500907898, 449.3303050994873, 449.4473080635071, 449.5640411376953, 449.68072509765625, 449.7976701259613, 449.9142470359802, 450.0313811302185, 450.14805603027344, 450.26495909690857, 450.3817300796509, 450.5986371040344]	[446.4947676120777, 446.6114342787377, 447.5944342787377, 447.7611342787377, 448.5111342787377, 448.6278009453977, 448.74446761205775, 448.86113427871777, 448.9778009453778, 449.0944676120378, 449.21113427869784, 449.32780094535786, 449.4444676120179, 449.5611342786779, 449.67780094533794, 449.79446761199796, 449.911134278658, 450.027800945318, 450.14446761197803, 450.26113427863805, 450.3778009452981, 450.6111342786314]	2021_Feb_04_1116	59.91648869683225	1	0.375
22	75	FALSE	NV	a	['U', 'W', 'Z', 'N', 'E', 'V', 'S', 'C', 'J', 'X', 'H', 'K', 'R', 'M', 'T', 'B']	[2059, 2448, 2911, 1335, 904, 2245, 1731, 829, 1029, 4000, 986, 1122, 1587, 1224, 1888, 760]	10	Present	NA	NA	PRESENT	0.2400550842285156	452.5984399318695	454.59867787361145	455.41535264646313	455.7653545537918	458.7150020599365	4.116324186325073	[452.617506980896, 452.73415994644165, 453.69832706451416, 453.8852889537811, 454.6361141204834, 454.7360460758209, 454.85287499427795, 454.96969413757324, 455.086571931839, 455.20329308509827, 455.32010293006897, 455.4368140697479, 455.55357694625854, 455.6703870296478, 455.78717398643494, 455.9042730331421, 456.020770072937, 456.1376631259918, 456.2543771266937, 456.3713219165802, 456.4880340099335, 456.71500301361084]	[452.6111342786314, 452.72780094529145, 453.71080094529145, 453.87750094529144, 454.62750094529144, 454.74416761195147, 454.8608342786115, 454.9775009452715, 455.09416761193154, 455.21083427859156, 455.3275009452516, 455.4441676119116, 455.56083427857163, 455.67750094523166, 455.7941676118917, 455.9108342785517, 456.0275009452117, 456.14416761187175, 456.2608342785318, 456.3775009451918, 456.4941676118518, 456.72750094518517]	2021_Feb_04_1116	59.91648869683225	1	0.375
22	76	FALSE	NA	a	['R', 'N', 'S', 'Z', 'C', 'H', 'J', 'M', 'U', 'A', 'X', 'V', 'G', 'E', 'P', 'T']	[1587, 1335, 1731, 2911, 829, 986, 1029, 1224, 2059, 697, 4000, 2245, 944, 904, 1456, 1888]	11	Present	NA	NA	PRESENT	0.4524409770965576	458.7047438621521	460.7150077819824	461.6483492214942	461.9983511288227	464.83136892318726	4.116361141204834	[458.7238121032715, 458.8404960632324, 459.8146951198578, 459.9918169975281, 460.742614030838, 460.85930705070496, 460.976282119751, 461.09315514564514, 461.2098219394684, 461.3266689777374, 461.4432621002197, 461.5601589679718, 461.677020072937, 461.7937879562378, 461.91042709350586, 462.027370929718, 462.14420795440674, 462.2609429359436, 462.37776803970337, 462.49451994895935, 462.6111660003662, 462.83136892318726]	[458.72750094518517, 458.8441676118452, 459.8271676118452, 459.9938676118452, 460.7438676118452, 460.8605342785052, 460.97720094516524, 461.09386761182526, 461.2105342784853, 461.3272009451453, 461.44386761180533, 461.56053427846535, 461.6772009451254, 461.7938676117854, 461.9105342784454, 462.02720094510545, 462.1438676117655, 462.2605342784255, 462.3772009450855, 462.49386761174554, 462.61053427840557, 462.8438676117389]	2021_Feb_04_1116	59.91648869683225	1	0.375
22	77	FALSE	NA	a	['Y', 'B', 'K', 'V', 'C', 'J', 'T', 'G', 'R', 'H', 'X', 'P', 'Z', 'W', 'N', 'M']	[2670, 760, 1122, 2245, 829, 1029, 1888, 944, 1587, 986, 4000, 1456, 2911, 2448, 1335, 1224]	11	Present	NA	NA	PRESENT	0.3931748867034912	464.8280539512634	466.83139991760254	467.76474111869567	468.1147432644429	470.9477369785309	4.116337060928345	[464.84712314605713, 464.9639239311218, 465.9310610294342, 466.11541509628296, 466.8656780719757, 466.98268604278564, 467.0994620323181, 467.21620297431946, 467.33308005332947, 467.44985604286194, 467.5664920806885, 467.6835479736328, 467.8000440597534, 467.9169991016388, 468.03373193740845, 468.1505811214447, 468.2674169540405, 468.38392210006714, 468.5009639263153, 468.6177980899811, 468.73446893692017, 468.94773602485657]	[464.8438676117389, 464.96053427839894, 465.94353427839894, 466.11023427839893, 466.86023427839893, 466.97690094505896, 467.093567611719, 467.210234278379, 467.32690094503903, 467.44356761169905, 467.5602342783591, 467.6769009450191, 467.7935676116791, 467.91023427833915, 468.02690094499917, 468.1435676116592, 468.2602342783192, 468.37690094497924, 468.49356761163926, 468.6102342782993, 468.7269009449593, 468.96023427829266]	2021_Feb_04_1116	59.91648869683225	1	0.375
22	78	FALSE	NA	a	['Y', 'H', 'P', 'M', 'V', 'K', 'E', 'Z', 'S', 'X', 'R', 'J', 'B', 'G', 'T', 'U']	[2670, 986, 1456, 1224, 2245, 1122, 904, 2911, 1731, 4000, 1587, 1029, 760, 944, 1888, 2059]	10	Present	NA	NA	PRESENT	0.4225499629974365	470.9343318939209	472.94764399528503	473.76431852971814	474.1143204370468	477.0641031265259	4.116459131240845	[470.9533989429474, 471.0703411102295, 472.047425031662, 472.2214069366455, 472.97213411331177, 473.0889940261841, 473.20591711997986, 473.32260394096375, 473.4395229816437, 473.5562090873718, 473.67297410964966, 473.78981614112854, 473.9066059589386, 474.0233290195465, 474.14005398750305, 474.2569589614868, 474.37376499176025, 474.49059104919434, 474.6073660850525, 474.72417306900024, 474.8408079147339, 475.064101934433]	[470.96023427829266, 471.0769009449527, 472.0599009449527, 472.2266009449527, 472.9766009449527, 473.0932676116127, 473.2099342782727, 473.32660094493275, 473.4432676115928, 473.5599342782528, 473.6766009449128, 473.79326761157284, 473.90993427823287, 474.0266009448929, 474.1432676115529, 474.25993427821294, 474.37660094487296, 474.493267611533, 474.609934278193, 474.72660094485303, 474.84326761151306, 475.0766009448464]	2021_Feb_04_1116	59.91648869683225	1	0.375
22	79	FALSE	NN	a	['N', 'K', 'J', 'Y', 'M', 'B', 'E', 'G', 'A', 'U', 'T', 'H', 'S', 'Z', 'C', 'R']	[1335, 1122, 1029, 2670, 1224, 760, 904, 944, 697, 2059, 1888, 986, 1731, 2911, 829, 1587]	11	Absent	NA	NA	ABSENT	0.3311300277709961	477.0580968856811	479.0640799999237	479.9974212010168	480.3474231083454	483.1804699897766	4.116389989852905	[477.07716393470764, 477.19332003593445, 478.16379404067993, 478.34470796585083, 479.0953209400177, 479.21221804618835, 479.3289999961853, 479.44607496261597, 479.5626640319824, 479.6795139312744, 479.7960889339447, 479.91308999061584, 480.02966809272766, 480.14676809310913, 480.2632601261139, 480.3802299499512, 480.49705696105957, 480.6136939525604, 480.73067593574524, 480.8472011089325, 480.96400904655457, 481.1804699897766]	[477.0766009448464, 477.1932676115064, 478.17626761150643, 478.3429676115064, 479.0929676115064, 479.20963427816645, 479.32630094482647, 479.4429676114865, 479.5596342781465, 479.67630094480654, 479.79296761146657, 479.9096342781266, 480.0263009447866, 480.14296761144664, 480.25963427810666, 480.3763009447667, 480.4929676114267, 480.60963427808673, 480.72630094474675, 480.8429676114068, 480.9596342780668, 481.19296761140015]	2021_Feb_04_1116	59.91648869683225	1	0.375
