participant	trial_num	practice	task	condition	RSVP	RAP	probePos	probe_presence	surprise_sound	surprise_img	probe_response	probe_resp_time	first_fixation_time	trial_start_time	surprise_start_time	probe_start_time	trial_end_time	trial_duration	actualEventTimes	plannedEventTimes	date	framerate	marker_vol	RAP_vol
22	1	FALSE	NA	v	['H', 'R', 'U', 'C', 'B', 'W', 'V', 'Z', 'J', 'E', 'N', 'X', 'S', 'A', 'P', 'Y']	[986, 1587, 2059, 829, 760, 2448, 2245, 2911, 1029, 904, 1335, 4000, 1731, 697, 1456, 2670]	12	Present	NA	NA	PRESENT	0.32819294929504395	2.86102294921875e-6	1.994978904724121	3.0437428951263428	3.393899917602539	6.103869915008545	4.108891010284424	[0.014166116714477539, 0.11406803131103516, 1.098607063293457, 1.2652230262756348, 2.0328609943389893, 2.133052110671997, 2.24965500831604, 2.366652011871338, 2.4832570552825928, 2.600266933441162, 2.71683406829834, 2.83376407623291, 2.9504871368408203, 3.0672659873962402, 3.184051990509033, 3.3008570671081543, 3.417479991912842, 3.5344419479370117, 3.651154041290283, 3.768009901046753, 3.88480806350708, 4.1038689613342285]	[9.5367431640625e-07, 0.11666762034098306, 1.099667620340983, 1.266367620340983, 2.016367620340983, 2.1330342870076495, 2.249700953674316, 2.366367620340983, 2.4830342870076496, 2.5997009536743163, 2.716367620340983, 2.8330342870076497, 2.9497009536743164, 3.066367620340983, 3.18303428700765, 3.2997009536743165, 3.416367620340983, 3.53303428700765, 3.6497009536743166, 3.7663676203409833, 3.88303428700765, 4.116367620340983]	2021_Feb_04_1136	59.94843150594867	1	1
22	2	FALSE	NA	v	['M', 'R', 'P', 'C', 'A', 'V', 'U', 'J', 'W', 'X', 'H', 'G', 'K', 'B', 'Y', 'E']	[1224, 1587, 1456, 829, 697, 2245, 2059, 1029, 2448, 4000, 986, 944, 1122, 760, 2670, 904]	10	Present	NA	NA	PRESENT	0.34097814559936523	6.106365919113159	8.108768939971924	8.925699949264526	9.275868892669678	12.22023606300354	4.111467123031616	[6.120530128479004, 6.237441062927246, 7.221842050552368, 7.388543128967285, 8.139370918273926, 8.256168127059937, 8.373018026351929, 8.489607095718384, 8.60659408569336, 8.723381042480469, 8.83995795249939, 8.956738948822021, 9.073729991912842, 9.190845966339111, 9.3073251247406, 9.424082040786743, 9.540880918502808, 9.657498121261597, 9.774481058120728, 9.891086101531982, 10.008107900619507, 10.22023606300354]	[6.116367620340983, 6.23303428700765, 7.216034287007649, 7.382734287007649, 8.132734287007649, 8.249400953674316, 8.366067620340983, 8.48273428700765, 8.599400953674317, 8.716067620340985, 8.832734287007652, 8.949400953674319, 9.066067620340986, 9.182734287007653, 9.29940095367432, 9.416067620340987, 9.532734287007655, 9.649400953674322, 9.766067620340989, 9.882734287007656, 9.999400953674323, 10.232734287007656]	2021_Feb_04_1136	59.94843150594867	1	1
22	3	FALSE	NN	v	['N', 'S', 'U', 'G', 'C', 'P', 'W', 'H', 'Y', 'E', 'B', 'T', 'Z', 'J', 'M', 'A']	[1335, 1731, 2059, 944, 829, 1456, 2448, 986, 2670, 904, 760, 1888, 2911, 1029, 1224, 697]	11	Absent	NA	NA	ABSENT	0.3538990020751953	12.21271586418152	14.224961996078491	15.158746004104614	15.510352849960327	18.336601972579956	4.111639976501465	[12.226879119873047, 12.343660116195679, 13.328112125396729, 13.495105981826782, 14.26271390914917, 14.362565994262695, 14.479245901107788, 14.59619402885437, 14.71299409866333, 14.829783916473389, 14.9464590549469, 15.063338994979858, 15.180041074752808, 15.296958923339844, 15.413547992706299, 15.530466079711914, 15.647114992141724, 15.764207124710083, 15.880734920501709, 15.997683048248291, 16.114439964294434, 16.336601972579956]	[12.232734287007656, 12.349400953674323, 13.332400953674323, 13.499100953674324, 14.249100953674324, 14.365767620340991, 14.482434287007658, 14.599100953674325, 14.715767620340992, 14.83243428700766, 14.949100953674327, 15.065767620340994, 15.182434287007661, 15.299100953674328, 15.415767620340995, 15.532434287007662, 15.64910095367433, 15.765767620340997, 15.882434287007664, 15.999100953674331, 16.115767620340996, 16.34910095367433]	2021_Feb_04_1136	59.94843150594867	1	1
22	4	FALSE	NA	v	['S', 'U', 'P', 'C', 'G', 'E', 'J', 'A', 'M', 'V', 'B', 'X', 'K', 'Z', 'R', 'W']	[1731, 2059, 1456, 829, 944, 904, 1029, 697, 1224, 2245, 760, 4000, 1122, 2911, 1587, 2448]	12	Present	NA	NA	PRESENT	0.26264500617980957	18.335896968841553	20.34147787094116	21.391917943954468	21.742127895355225	24.452969074249268	4.1114912033081055	[18.35006093978882, 18.46708106994629, 19.45174503326416, 19.618322134017944, 20.368916034698486, 20.485827922821045, 20.602535009384155, 20.719363927841187, 20.836139917373657, 20.952956914901733, 21.069889068603516, 21.18644905090332, 21.303292989730835, 21.420051097869873, 21.536997079849243, 21.65376591682434, 21.77049207687378, 21.887092113494873, 22.004082918167114, 22.120830059051514, 22.237746000289917, 22.452970027923584]	[18.34910095367433, 18.465767620340998, 19.448767620341, 19.615467620340997, 20.365467620340997, 20.482134287007664, 20.59880095367433, 20.715467620341, 20.832134287007666, 20.948800953674333, 21.065467620341, 21.182134287007667, 21.298800953674334, 21.415467620341, 21.53213428700767, 21.648800953674336, 21.765467620341003, 21.88213428700767, 21.998800953674337, 22.115467620341004, 22.23213428700767, 22.465467620341006]	2021_Feb_04_1136	59.94843150594867	1	1
22	5	FALSE	NA	v	['N', 'H', 'K', 'R', 'V', 'J', 'A', 'W', 'G', 'Y', 'T', 'S', 'Z', 'X', 'C', 'P']	[1335, 986, 1122, 1587, 2245, 1029, 697, 2448, 944, 2670, 1888, 1731, 2911, 4000, 829, 1456]	14	Present	NA	NA	PRESENT	0.35592198371887207	24.459160804748535	26.45790982246399	27.74147891998291	28.091503858566284	30.569337129592896	4.111427307128906	[24.473324060440063, 24.59003710746765, 25.55769991874695, 25.724626064300537, 26.492136001586914, 26.60896110534668, 26.725805044174194, 26.842416048049927, 26.95935297012329, 27.076199054718018, 27.19290804862976, 27.30972909927368, 27.42658495903015, 27.526451110839844, 27.643259048461914, 27.760061979293823, 27.876864910125732, 28.010422945022583, 28.110335111618042, 28.227221965789795, 28.3440420627594, 28.569337129592896]	[24.465467620341006, 24.582134287007673, 25.565134287007673, 25.731834287007672, 26.481834287007672, 26.59850095367434, 26.715167620341006, 26.831834287007673, 26.94850095367434, 27.065167620341008, 27.181834287007675, 27.298500953674342, 27.41516762034101, 27.531834287007676, 27.648500953674343, 27.76516762034101, 27.881834287007678, 27.998500953674345, 28.115167620341012, 28.23183428700768, 28.348500953674346, 28.58183428700768]	2021_Feb_04_1136	59.94843150594867	1	1
22	6	FALSE	NN	v	['Z', 'J', 'A', 'S', 'G', 'W', 'U', 'P', 'E', 'Y', 'N', 'M', 'H', 'K', 'T', 'V']	[2911, 1029, 697, 1731, 944, 2448, 2059, 1456, 904, 2670, 1335, 1224, 986, 1122, 1888, 2245]	12	Absent	NA	NA	ABSENT	0.29625892639160156	30.565919876098633	32.57415699958801	33.62452983856201	33.974485874176025	36.68570303916931	4.111546039581299	[30.580085039138794, 30.696557998657227, 31.681190013885498, 31.847880125045776, 32.59847402572632, 32.71548795700073, 32.83221197128296, 32.949100971221924, 33.06579399108887, 33.182650089263916, 33.299312114715576, 33.4162540435791, 33.53292107582092, 33.64981007575989, 33.76662993431091, 33.8832631111145, 34.00025701522827, 34.11704897880554, 34.23375105857849, 34.350362062454224, 34.467365026474, 34.685702085494995]	[30.58183428700768, 30.698500953674348, 31.681500953674348, 31.848200953674347, 32.59820095367435, 32.71486762034102, 32.831534287007685, 32.94820095367435, 33.06486762034102, 33.181534287007686, 33.29820095367435, 33.41486762034102, 33.53153428700769, 33.648200953674355, 33.76486762034102, 33.88153428700769, 33.998200953674356, 34.11486762034102, 34.23153428700769, 34.34820095367436, 34.464867620341025, 34.69820095367436]	2021_Feb_04_1136	59.94843150594867	1	1
22	7	FALSE	NV	v	['P', 'Y', 'S', 'N', 'K', 'R', 'W', 'T', 'B', 'V', 'J', 'M', 'G', 'X', 'A', 'E']	[1456, 2670, 1731, 1335, 1122, 1587, 2448, 1888, 760, 2245, 1029, 1224, 944, 4000, 697, 904]	14	Present	NA	NA	PRESENT	0.4459381103515625	36.68871283531189	38.69050192832947	39.97430181503296	40.32431983947754	42.80206894874573	4.11156702041626	[36.70287609100342, 36.81986713409424, 37.80410313606262, 37.9711709022522, 38.721909046173096, 38.83862090110779, 38.95530104637146, 39.072076082229614, 39.18897294998169, 39.30585503578186, 39.42265701293945, 39.53930592536926, 39.656211137771606, 39.77290606498718, 39.88988995552063, 40.00665497779846, 40.123708963394165, 40.23998999595642, 40.35686993598938, 40.47378706932068, 40.57354712486267, 40.80206894874573]	[36.69820095367436, 36.814867620341026, 37.79786762034102, 37.96456762034102, 38.71456762034102, 38.83123428700769, 38.947900953674356, 39.06456762034102, 39.18123428700769, 39.29790095367436, 39.414567620341025, 39.53123428700769, 39.64790095367436, 39.764567620341026, 39.88123428700769, 39.99790095367436, 40.11456762034103, 40.231234287007695, 40.34790095367436, 40.46456762034103, 40.581234287007696, 40.81456762034103]	2021_Feb_04_1136	59.94843150594867	1	1
22	8	FALSE	NA	v	['V', 'W', 'A', 'B', 'C', 'N', 'P', 'Z', 'X', 'E', 'U', 'R', 'S', 'G', 'T', 'K']	[2245, 2448, 697, 760, 829, 1335, 1456, 2911, 4000, 904, 2059, 1587, 1731, 944, 1888, 1122]	9	Present	NA	NA	PRESENT	0.322329044342041	42.79532480239868	44.80697989463806	45.50736379623413	45.857450008392334	48.918437004089355	4.111457109451294	[42.809487104415894, 42.926188945770264, 43.91067695617676, 44.07735800743103, 44.84494400024414, 44.945192098617554, 45.061939001083374, 45.17872595787048, 45.295345067977905, 45.412113904953, 45.528964042663574, 45.645946979522705, 45.76262807846069, 45.87961006164551, 45.99614906311035, 46.113117933273315, 46.22982311248779, 46.34646797180176, 46.46350312232971, 46.58016300201416, 46.69688391685486, 46.91843605041504]	[42.81456762034103, 42.9312342870077, 43.914234287007694, 44.08093428700769, 44.83093428700769, 44.94760095367436, 45.06426762034103, 45.180934287007695, 45.29760095367436, 45.41426762034103, 45.530934287007696, 45.64760095367436, 45.76426762034103, 45.8809342870077, 45.997600953674365, 46.11426762034103, 46.2309342870077, 46.347600953674366, 46.46426762034103, 46.5809342870077, 46.69760095367437, 46.9309342870077]	2021_Feb_04_1136	59.94843150594867	1	1
22	9	FALSE	NA	v	['M', 'Z', 'U', 'B', 'N', 'P', 'W', 'X', 'E', 'J', 'A', 'V', 'S', 'H', 'T', 'R']	[1224, 2911, 2059, 760, 1335, 1456, 2448, 4000, 904, 1029, 697, 2245, 1731, 986, 1888, 1587]	8	Present	NA	NA	PRESENT	0.37494397163391113	48.918418884277344	50.92323279380798	51.50687384605408	51.85707497596741	55.03480291366577	4.111570119857788	[48.93258190155029, 49.04950499534607, 50.03396010398865, 50.20097899436951, 50.95133304595947, 51.06832695007324, 51.185017108917236, 51.301876068115234, 51.41867208480835, 51.53536605834961, 51.652262926101685, 51.76894402503967, 51.88593292236328, 52.00266695022583, 52.11944007873535, 52.236231088638306, 52.35305690765381, 52.469897985458374, 52.586596965789795, 52.703413009643555, 52.820188999176025, 53.03480100631714]	[48.9309342870077, 49.04760095367437, 50.030600953674366, 50.197300953674365, 50.947300953674365, 51.06396762034103, 51.1806342870077, 51.297300953674366, 51.41396762034103, 51.5306342870077, 51.64730095367437, 51.763967620341035, 51.8806342870077, 51.99730095367437, 52.113967620341036, 52.2306342870077, 52.34730095367437, 52.46396762034104, 52.580634287007705, 52.69730095367437, 52.81396762034104, 53.04730095367437]	2021_Feb_04_1136	59.94843150594867	1	1
22	10	FALSE	NA	v	['V', 'K', 'J', 'W', 'R', 'A', 'N', 'G', 'Y', 'T', 'H', 'P', 'E', 'X', 'Z', 'U']	[2245, 1122, 1029, 2448, 1587, 697, 1335, 944, 2670, 1888, 986, 1456, 904, 4000, 2911, 2059]	14	Present	NA	NA	PRESENT	0.3160231113433838	55.04154682159424	57.03971791267395	58.32342195510864	58.67399597167969	61.15117001533508	4.111452102661133	[55.05571103096008, 55.17264103889465, 56.14024090766907, 56.30712604522705, 57.07465600967407, 57.191405057907104, 57.30823111534119, 57.42508506774902, 57.54191708564758, 57.65870404243469, 57.75861692428589, 57.87539505958557, 57.99218702316284, 58.10891604423523, 58.22575092315674, 58.342565059661865, 58.459325075149536, 58.57618999481201, 58.69291710853577, 58.809808015823364, 58.926727056503296, 59.15117001533508]	[55.04730095367437, 55.16396762034104, 56.14696762034104, 56.313667620341036, 57.063667620341036, 57.1803342870077, 57.29700095367437, 57.41366762034104, 57.530334287007705, 57.64700095367437, 57.76366762034104, 57.880334287007706, 57.99700095367437, 58.11366762034104, 58.23033428700771, 58.347000953674375, 58.46366762034104, 58.58033428700771, 58.697000953674376, 58.81366762034104, 58.93033428700771, 59.163667620341045]	2021_Feb_04_1136	59.94843150594867	1	1
22	11	FALSE	NN	v	['H', 'N', 'V', 'R', 'B', 'U', 'A', 'T', 'P', 'M', 'E', 'Z', 'C', 'W', 'K', 'Y']	[986, 1335, 2245, 1587, 760, 2059, 697, 1888, 1456, 1224, 904, 2911, 829, 2448, 1122, 2670]	9	Absent	NA	NA	PRESENT	0.4168589115142822	61.14832282066345	63.15612292289734	63.856451988220215	64.2064299583435	67.2675371170044	4.111414194107056	[61.16248607635498, 61.27912998199463, 62.263543128967285, 62.430229902267456, 63.1810359954834, 63.2979679107666, 63.414565086364746, 63.5316059589386, 63.64835810661316, 63.765141010284424, 63.881885051727295, 63.998575925827026, 64.11554598808289, 64.23217511177063, 64.34912896156311, 64.46571493148804, 64.58270311355591, 64.69939804077148, 64.81626009941101, 64.9328920841217, 65.04985213279724, 65.2675359249115]	[61.163667620341045, 61.28033428700771, 62.26333428700771, 62.43003428700771, 63.18003428700771, 63.296700953674375, 63.41336762034104, 63.53003428700771, 63.646700953674376, 63.76336762034104, 63.88003428700771, 63.99670095367438, 64.11336762034104, 64.2300342870077, 64.34670095367436, 64.46336762034102, 64.58003428700768, 64.69670095367434, 64.813367620341, 64.93003428700766, 65.04670095367432, 65.28003428700765]	2021_Feb_04_1136	59.94843150594867	1	1
22	12	FALSE	NA	v	['H', 'K', 'W', 'G', 'B', 'P', 'C', 'E', 'A', 'J', 'N', 'X', 'Y', 'M', 'T', 'V']	[986, 1122, 2448, 944, 760, 1456, 829, 904, 697, 1029, 1335, 4000, 2670, 1224, 1888, 2245]	12	Present	NA	NA	PRESENT	0.2941110134124756	67.2713258266449	69.27245783805847	70.32406401634216	70.672698974609375	73.38390302658081	4.111445188522339	[67.28548812866211, 67.4024031162262, 68.3867859840393, 68.5536060333252, 69.30426001548767, 69.42121291160583, 69.53801798820496, 69.65455794334412, 69.77164506912231, 69.88822603225708, 70.00504994392395, 70.12182307243347, 70.23876094818115, 70.355397939682, 70.472403049469, 70.58912396430969, 70.70584797859192, 70.82263612747192, 70.9392900466919, 71.05635190010071, 71.15643692016602, 71.38390302658081]	[67.28003428700765, 67.39670095367431, 68.37970095367432, 68.54640095367432, 69.29640095367432, 69.41306762034098, 69.52973428700764, 69.6464009536743, 69.76306762034096, 69.87973428700762, 69.99640095367428, 70.11306762034094, 70.2297342870076, 70.34640095367426, 70.46306762034092, 70.57973428700758, 70.69640095367424, 70.8130676203409, 70.92973428700756, 71.04640095367422, 71.16306762034088, 71.39640095367422]	2021_Feb_04_1136	59.94843150594867	1	1
22	13	FALSE	NV	v	['A', 'N', 'G', 'M', 'P', 'Y', 'C', 'Z', 'X', 'U', 'K', 'T', 'J', 'E', 'S', 'V']	[697, 1335, 944, 1224, 1456, 2670, 829, 2911, 4000, 2059, 1122, 1888, 1029, 904, 1731, 2245]	9	Present	NA	NA	PRESENT	0.2904701232910156	73.37765288352966	75.38877201080322	76.08943796157837	76.43957495689392	79.50027012825012	4.111498117446899	[73.39181590080261, 73.5086669921875, 74.49317407608032, 74.65996408462524, 75.41060495376587, 75.52762413024902, 75.6943850517273, 75.76125502586365, 75.87790298461914, 75.99487209320068, 76.11147403717041, 76.22834610939026, 76.34507012367249, 76.4620430469513, 76.57874608039856, 76.6955361366272, 76.81258010864258, 76.92900705337524, 77.04593110084534, 77.16257691383362, 77.27959990501404, 77.50027108192444]	[73.39640095367422, 73.51306762034088, 74.49606762034088, 74.66276762034089, 75.41276762034089, 75.52943428700755, 75.6461009536742, 75.76276762034087, 75.87943428700753, 75.99610095367419, 76.11276762034085, 76.2294342870075, 76.34610095367417, 76.46276762034083, 76.57943428700749, 76.69610095367415, 76.81276762034081, 76.92943428700747, 77.04610095367413, 77.16276762034079, 77.27943428700745, 77.51276762034078]	2021_Feb_04_1136	59.94843150594867	1	1
22	14	FALSE	AA	v	['M', 'H', 'B', 'W', 'surprise', 'C', 'S', 'X', 'T', 'Y', 'V', 'J', 'G', 'U', 'A', 'N']	[1224, 986, 760, 2448, 'stimAuditory/all_stimAuditory/114.wav', 829, 1731, 4000, 1888, 2670, 2245, 1029, 944, 2059, 697, 1335]	8	Present	stimAuditory/all_stimAuditory/114.wav	stimVisual/all_stimVisual/219.jpg	PRESENT	0.41498303413391113	79.50092482566833	81.50512886047363	82.08895492553711	82.43885397911072	85.61663699150085	4.111508131027222	[79.51508808135986, 79.6319260597229, 80.61646795272827, 80.78316593170166, 81.53432703018188, 81.65088295936584, 81.76754808425903, 81.88439393043518, 82.01777505874634, 82.1179449558258, 82.23481798171997, 82.35136294364929, 82.46830797195435, 82.58501195907593, 82.70193791389465, 82.8187301158905, 82.93562912940979, 83.05228209495544, 83.16919994354248, 83.2858030796051, 83.40274095535278, 83.61663699150085]	[79.51276762034078, 79.62943428700744, 80.61243428700745, 80.77913428700745, 81.52913428700745, 81.64580095367411, 81.76246762034077, 81.87913428700743, 81.99580095367409, 82.11246762034075, 82.22913428700741, 82.34580095367407, 82.46246762034073, 82.57913428700739, 82.69580095367405, 82.81246762034071, 82.92913428700737, 83.04580095367403, 83.16246762034069, 83.27913428700735, 83.39580095367401, 83.62913428700735]	2021_Feb_04_1136	59.94843150594867	1	1
22	15	FALSE	NN	v	['E', 'Z', 'P', 'R', 'T', 'M', 'V', 'G', 'H', 'U', 'B', 'N', 'K', 'A', 'J', 'Y']	[904, 2911, 1456, 1587, 1888, 1224, 2245, 944, 986, 2059, 760, 1335, 1122, 697, 1029, 2670]	10	Absent	NA	NA	ABSENT	0.3802778720855713	85.62443399429321	87.62143898010254	88.43847298622131	88.78856587409973	91.73300290107728	4.1115639209747314	[85.63859701156616, 85.73836612701416, 86.72283697128296, 86.88955903053284, 87.65718913078308, 87.75714612007141, 87.89076805114746, 87.99071002006531, 88.10754299163818, 88.22424292564392, 88.34108805656433, 88.45781803131104, 88.57463812828064, 88.69143605232239, 88.80832505226135, 88.9251160621643, 89.04191493988037, 89.15863108634949, 89.27548599243164, 89.3924789428711, 89.50914406776428, 89.73300194740295]	[85.62913428700735, 85.745800953674, 86.72880095367401, 86.89550095367402, 87.64550095367402, 87.76216762034068, 87.87883428700734, 87.995500953674, 88.11216762034066, 88.22883428700732, 88.34550095367398, 88.46216762034064, 88.5788342870073, 88.69550095367396, 88.81216762034062, 88.92883428700728, 89.04550095367394, 89.1621676203406, 89.27883428700726, 89.39550095367392, 89.51216762034058, 89.74550095367391]	2021_Feb_04_1136	59.94843150594867	1	1
22	16	FALSE	NN	v	['B', 'V', 'H', 'R', 'Y', 'U', 'Z', 'A', 'P', 'S', 'C', 'K', 'M', 'N', 'G', 'W']	[760, 2245, 986, 1587, 2670, 2059, 2911, 697, 1456, 1731, 829, 1122, 1224, 1335, 944, 2448]	10	Absent	NA	NA	ABSENT	0.4088099002838135	91.73112201690674	93.73790383338928	94.55483293533324	94.90493392944336	97.84937000274658	4.1114661693573	[91.74528503417969, 91.86169505119324, 92.8459050655365, 93.01283407211304, 93.76355195045471, 93.88036012649536, 93.99725008010864, 94.11387801170349, 94.2308840751648, 94.3474600315094, 94.46439504623413, 94.58111310005188, 94.69805598258972, 94.81522297859192, 94.9316520690918, 95.04840397834778, 95.16518902778625, 95.28192496299744, 95.39876198768616, 95.5154869556427, 95.63238906860352, 95.8493709564209]	[91.74550095367391, 91.86216762034057, 92.84516762034058, 93.01186762034058, 93.76186762034058, 93.87853428700724, 93.9952009536739, 94.11186762034056, 94.22853428700722, 94.34520095367388, 94.46186762034054, 94.5785342870072, 94.69520095367386, 94.81186762034052, 94.92853428700718, 95.04520095367384, 95.1618676203405, 95.27853428700716, 95.39520095367382, 95.51186762034048, 95.62853428700714, 95.86186762034048]	2021_Feb_04_1136	59.94843150594867	1	1
22	17	FALSE	NA	v	['U', 'G', 'A', 'N', 'H', 'K', 'W', 'X', 'Y', 'T', 'E', 'J', 'Z', 'V', 'R', 'M']	[2059, 944, 697, 1335, 986, 1122, 2448, 4000, 2670, 1888, 904, 1029, 2911, 2245, 1587, 1224]	8	Present	NA	NA	PRESENT	0.3021559715270996	97.8538899421692	99.85431981086732	100.4379289150238	100.78779101371764	103.9657371044159	4.111417293548584	[97.86805295944214, 97.98497295379639, 98.96927809715271, 99.1359589099884, 99.88691997528076, 100.00382399559021, 100.1203989982605, 100.23710608482361, 100.35406994819641, 100.4708890914917, 100.58758211135864, 100.70438313484192, 100.8211441040039, 100.93798208236694, 101.05474996566772, 101.17193007469177, 101.28840112686157, 101.4050841331482, 101.52189302444458, 101.63877606391907, 101.7387900352478, 101.9657371044159]	[97.86186762034048, 97.97853428700714, 98.96153428700714, 99.12823428700715, 99.87823428700715, 99.9949009536738, 100.11156762034047, 100.22823428700713, 100.34490095367379, 100.46156762034045, 100.5782342870071, 100.69490095367377, 100.81156762034043, 100.92823428700709, 101.04490095367375, 101.1615676203404, 101.27823428700707, 101.39490095367373, 101.51156762034039, 101.62823428700705, 101.7449009536737, 101.97823428700704]	2021_Feb_04_1136	59.94843150594867	1	1
22	18	FALSE	VA	v	['C', 'S', 'J', 'V', 'P', 'surprise', 'U', 'N', 'X', 'Z', 'H', 'K', 'W', 'G', 'A', 'T']	[829, 1731, 1029, 2245, 1456, 'stimAuditory/all_stimAuditory/112.wav', 2059, 1335, 4000, 2911, 986, 1122, 2448, 944, 697, 1888]	9	Present	NA	stimVisual/all_stimVisual/114.jpg	PRESENT	0.45062804222106934	103.9603259563446	105.97064900398254	106.67155694961548	107.0208330154419	110.08210301399232	4.111454010009766	[103.97448897361755, 104.09148907661438, 105.07581496238708, 105.24243092536926, 105.99321103096008, 106.1100709438324, 106.22689199447632, 106.34373307228088, 106.46049094200134, 106.59389209747314, 106.69405913352966, 106.81091403961182, 106.92774105072021, 107.0444860458374, 107.16124701499939, 107.27801609039307, 107.3948450088501, 107.51156091690063, 107.62851905822754, 107.74511694908142, 107.86209511756897, 108.082102060318]	[103.97823428700704, 104.0949009536737, 105.0779009536737, 105.24460095367371, 105.99460095367371, 106.11126762034037, 106.22793428700703, 106.34460095367369, 106.46126762034035, 106.57793428700701, 106.69460095367367, 106.81126762034033, 106.92793428700699, 107.04460095367365, 107.16126762034031, 107.27793428700697, 107.39460095367363, 107.51126762034029, 107.62793428700695, 107.74460095367361, 107.86126762034027, 108.0946009536736]	2021_Feb_04_1136	59.94843150594867	1	1
22	19	FALSE	NV	v	['W', 'H', 'S', 'B', 'V', 'R', 'A', 'X', 'J', 'E', 'Z', 'C', 'N', 'Y', 'T', 'M']	[2448, 986, 1731, 760, 2245, 1587, 697, 4000, 1029, 904, 2911, 829, 1335, 2670, 1888, 1224]	8	Present	NA	NA	PRESENT	0.3754639625549317	110.08350491523744	112.086975812912	112.6708209514618	113.02079582214355	116.19847011566162	4.111494302749634	[110.09766793251038, 110.21450805664062, 111.19912004470825, 111.36570191383362, 112.11648511886597, 112.23320508003235, 112.35009503364563, 112.46679711341858, 112.58370804786682, 112.70051598548889, 112.81717801094055, 112.9339439868927, 113.05072498321533, 113.16760492324829, 113.28445291519165, 113.40134692192078, 113.5180721282959, 113.6347439289093, 113.75150299072266, 113.86830306053162, 113.98513412475586, 114.19846892356873]	[110.0946009536736, 110.21126762034027, 111.19426762034027, 111.36096762034028, 112.11096762034028, 112.22763428700694, 112.3443009536736, 112.46096762034026, 112.57763428700692, 112.69430095367358, 112.81096762034024, 112.9276342870069, 113.04430095367356, 113.16096762034022, 113.27763428700688, 113.39430095367354, 113.5109676203402, 113.62763428700686, 113.74430095367352, 113.86096762034018, 113.97763428700684, 114.21096762034017]	2021_Feb_04_1136	59.94843150594867	1	1
22	20	FALSE	NN	v	['J', 'M', 'S', 'R', 'T', 'U', 'C', 'P', 'Y', 'K', 'V', 'B', 'H', 'W', 'E', 'A']	[1029, 1224, 1731, 1587, 1888, 2059, 829, 1456, 2670, 1122, 2245, 760, 986, 2448, 904, 697]	12	Absent	NA	NA	ABSENT	0.29259300231933594	116.1898798942566	118.20330595970154	119.254145860672	119.6037700176239	122.31483697891235	4.111531019210815	[116.20404291152954, 116.32091903686523, 117.30543994903564, 117.4720721244812, 118.23960709571838, 118.33970999717712, 118.45645689964294, 118.57322406768799, 118.69002890586853, 118.80677604675293, 118.92362999916077, 119.04058313369751, 119.15711808204651, 119.27393507957458, 119.39089012145996, 119.50750803947449, 119.62451696395874, 119.74115705490112, 119.85814213752747, 119.9747679233551, 120.09179592132568, 120.31483602523804]	[116.21096762034017, 116.32763428700683, 117.31063428700683, 117.47733428700684, 118.22733428700684, 118.3440009536735, 118.46066762034016, 118.57733428700682, 118.69400095367348, 118.81066762034014, 118.9273342870068, 119.04400095367346, 119.16066762034012, 119.27733428700678, 119.39400095367344, 119.5106676203401, 119.62733428700676, 119.74400095367342, 119.86066762034008, 119.97733428700674, 120.0940009536734, 120.32733428700674]	2021_Feb_04_1136	59.94843150594867	1	1
22	21	FALSE	AV	v	['W', 'M', 'G', 'E', 'C', 'Y', 'P', 'R', 'surprise', 'T', 'U', 'X', 'A', 'J', 'S', 'K']	[2448, 1224, 944, 904, 829, 2670, 1456, 1587, 'stimAuditory/all_stimAuditory/212.wav', 1888, 2059, 4000, 697, 1029, 1731, 1122]	12	Present	stimAuditory/all_stimAuditory/112.wav	stimVisual/all_stimVisual/209.jpg	PRESENT	0.3534119129180908	122.3134789466858	124.31962084770204	125.3702039718628	125.720529794693	128.43120312690735	4.111582279205322	[122.32764196395874, 122.44411110877991, 123.42854595184326, 123.5953221321106, 124.34608912467957, 124.46313309669495, 124.57984709739685, 124.69650101661682, 124.81337094306946, 124.92998099327087, 125.04695892333984, 125.16371893882751, 125.29727506637573, 125.39718508720398, 125.51404595375061, 125.63080096244812, 125.74769711494446, 125.86437106132507, 125.98130106925964, 126.09795808792114, 126.214919090271, 126.43120312690735]	[122.32733428700674, 122.4440009536734, 123.4270009536734, 123.5937009536734, 124.3437009536734, 124.46036762034007, 124.57703428700673, 124.69370095367339, 124.81036762034005, 124.9270342870067, 125.04370095367337, 125.16036762034003, 125.27703428700669, 125.39370095367335, 125.51036762034, 125.62703428700667, 125.74370095367333, 125.86036762033999, 125.97703428700665, 126.0937009536733, 126.21036762033997, 126.4437009536733]	2021_Feb_04_1136	59.94843150594867	1	1
22	22	FALSE	NV	v	['M', 'P', 'K', 'J', 'W', 'V', 'T', 'R', 'G', 'E', 'H', 'X', 'Z', 'Y', 'S', 'U']	[1224, 1456, 1122, 1029, 2448, 2245, 1888, 1587, 944, 904, 986, 4000, 2911, 2670, 1731, 2059]	12	Present	NA	NA	PRESENT	0.2945070266723633	128.43651294708252	130.43622088432312	131.4863657951355	131.83650183677673	134.54756999015808	4.111349105834961	[128.45067501068115, 128.56725692749023, 129.55157113075256, 129.71861100196838, 130.46931195259094, 130.5861611366272, 130.70311999320984, 130.82004690170288, 130.93658304214478, 131.05349397659302, 131.17024612426758, 131.28680992126465, 131.40367794036865, 131.5204520225525, 131.63728404045105, 131.75401496887207, 131.8707549571991, 131.98761010169983, 132.10471296310425, 132.22130799293518, 132.3214659690857, 132.54756903648376]	[128.4437009536733, 128.56036762033997, 129.54336762033998, 129.71006762033997, 130.46006762033997, 130.57673428700664, 130.69340095367332, 130.81006762034, 130.92673428700667, 131.04340095367334, 131.16006762034002, 131.2767342870067, 131.39340095367336, 131.51006762034004, 131.6267342870067, 131.7434009536734, 131.86006762034006, 131.97673428700674, 132.0934009536734, 132.21006762034008, 132.32673428700676, 132.56006762034008]	2021_Feb_04_1136	59.94843150594867	1	1
22	23	FALSE	NA	v	['M', 'H', 'Z', 'A', 'W', 'Y', 'S', 'C', 'N', 'G', 'B', 'R', 'T', 'X', 'V', 'K']	[1224, 986, 2911, 697, 2448, 2670, 1731, 829, 1335, 944, 760, 1587, 1888, 4000, 2245, 1122]	14	Present	NA	NA	PRESENT	0.3550419807434082	134.54277300834656	136.5524778366089	137.83627200126648	138.1862277984619	140.6639370918274	4.111459255218506	[134.5569360256195, 134.67385911941528, 135.65825390815735, 135.82487392425537, 136.57582211494446, 136.69251012802124, 136.80943512916565, 136.9262659549713, 137.04304194450378, 137.15971302986145, 137.27672791481018, 137.3934280872345, 137.51021695137024, 137.62687611579895, 137.7438199520111, 137.86048007011414, 137.97728896141052, 138.09395003318787, 138.21095395088196, 138.32766199111938, 138.44462990760803, 138.6639370918274]	[134.56006762034008, 134.67673428700675, 135.65973428700676, 135.82643428700675, 136.57643428700675, 136.69310095367342, 136.8097676203401, 136.92643428700677, 137.04310095367345, 137.15976762034012, 137.2764342870068, 137.39310095367347, 137.50976762034014, 137.62643428700682, 137.7431009536735, 137.85976762034016, 137.97643428700684, 138.0931009536735, 138.2097676203402, 138.32643428700686, 138.44310095367354, 138.67643428700686]	2021_Feb_04_1136	59.94843150594867	1	1
22	24	FALSE	VV	v	['C', 'S', 'U', 'M', 'E', 'A', 'K', 'J', 'B', 'surprise', 'G', 'Y', 'X', 'P', 'R', 'N']	[829, 1731, 2059, 1224, 904, 697, 1122, 1029, 760, 'stimAuditory/all_stimAuditory/213.wav', 944, 2670, 4000, 1456, 1587, 1335]	13	Present	NA	stimVisual/all_stimVisual/216.jpg	PRESENT	0.2956380844116211	140.6660339832306	142.66887593269348	143.8363540172577	144.1859188079834	146.7803030014038	4.111427068710327	[140.68019604682922, 140.7970790863037, 141.78119802474976, 141.9482340812683, 142.6992690563202, 142.8158299922943, 142.9327609539032, 143.0493221282959, 143.16632890701294, 143.28312611579895, 143.3997299671173, 143.51656007766724, 143.6332380771637, 143.75011610984802, 143.8670289516449, 143.9837830066681, 144.10050797462463, 144.2174379825592, 144.33417510986328, 144.451012134552, 144.5676770210266, 144.7803030014038]	[140.67643428700686, 140.79310095367353, 141.77610095367353, 141.94280095367353, 142.69280095367353, 142.8094676203402, 142.92613428700687, 143.04280095367355, 143.15946762034022, 143.2761342870069, 143.39280095367357, 143.50946762034025, 143.62613428700692, 143.7428009536736, 143.85946762034027, 143.97613428700694, 144.09280095367362, 144.2094676203403, 144.32613428700697, 144.44280095367364, 144.5594676203403, 144.79280095367363]	2021_Feb_04_1136	59.94843150594867	1	1
22	25	FALSE	NA	v	['V', 'G', 'A', 'J', 'Z', 'W', 'U', 'X', 'R', 'T', 'C', 'P', 'E', 'M', 'Y', 'H']	[2245, 944, 697, 1029, 2911, 2448, 2059, 4000, 1587, 1888, 829, 1456, 904, 1224, 2670, 986]	8	Present	NA	NA	PRESENT	0.3808040618896485	146.77246284484863	148.78511691093445	149.3691120147705	149.71894192695618	152.89667010307312	4.111553192138672	[146.78662610054016, 146.90336298942566, 147.88783192634583, 148.05457401275635, 148.82206392288208, 148.922425031662, 149.03895902633667, 149.15571808815002, 149.27269101142883, 149.38935804367065, 149.50632190704346, 149.62310099601746, 149.73993802070618, 149.8564670085907, 149.97343802452087, 150.0903661251068, 150.20702695846558, 150.3238489627838, 150.44060492515564, 150.55724596977234, 150.67417001724243, 150.89667010307312]	[146.79280095367363, 146.9094676203403, 147.8924676203403, 148.0591676203403, 148.8091676203403, 148.92583428700698, 149.04250095367365, 149.15916762034033, 149.275834287007, 149.39250095367368, 149.50916762034035, 149.62583428700702, 149.7425009536737, 149.85916762034037, 149.97583428700705, 150.09250095367372, 150.2091676203404, 150.32583428700707, 150.44250095367374, 150.55916762034042, 150.6758342870071, 150.9091676203404]	2021_Feb_04_1136	59.94843150594867	1	1
22	26	FALSE	NA	v	['K', 'R', 'T', 'H', 'Y', 'V', 'S', 'X', 'P', 'A', 'Z', 'U', 'C', 'G', 'B', 'J']	[1122, 1587, 1888, 986, 2670, 2245, 1731, 4000, 1456, 697, 2911, 2059, 829, 944, 760, 1029]	8	Present	NA	NA	PRESENT	0.2735300064086914	152.89607000350952	154.9015679359436	155.4865758419037	155.83544087409973	159.01303696632385	4.111469030380249	[152.91023302078247, 153.0267219543457, 154.0109519958496, 154.17785811424255, 154.92863011360168, 155.0454089641571, 155.16242790222168, 155.27902102470398, 155.39594912528992, 155.512619972229, 155.62945413589478, 155.74630308151245, 155.86305212974548, 155.97982501983643, 156.09663796424866, 156.21331596374512, 156.33020901679993, 156.44683003425598, 156.56360697746277, 156.68060898780823, 156.797425031662, 157.01303696632385]	[152.9091676203404, 153.0258342870071, 154.0088342870071, 154.17553428700708, 154.92553428700708, 155.04220095367376, 155.15886762034043, 155.2755342870071, 155.39220095367378, 155.50886762034045, 155.62553428700713, 155.7422009536738, 155.85886762034048, 155.97553428700715, 156.09220095367382, 156.2088676203405, 156.32553428700717, 156.44220095367385, 156.55886762034052, 156.6755342870072, 156.79220095367387, 157.0255342870072]	2021_Feb_04_1136	59.94843150594867	1	1
22	27	FALSE	NV	v	['J', 'Y', 'Z', 'E', 'H', 'U', 'R', 'W', 'X', 'S', 'G', 'T', 'C', 'P', 'A', 'K']	[1029, 2670, 2911, 904, 986, 2059, 1587, 2448, 4000, 1731, 944, 1888, 829, 1456, 697, 1122]	9	Present	NA	NA	PRESENT	0.4705779552459717	159.0189118385315	161.01792097091675	161.71821689605713	162.06833791732788	165.12940311431885	4.1114821434021	[159.03307509422302, 159.14973306655884, 160.11737608909607, 160.28414106369019, 161.05183696746826, 161.16872596740723, 161.28538012504578, 161.40242910385132, 161.51915907859802, 161.63589310646057, 161.7525110244751, 161.86952805519104, 161.986172914505, 162.1031310558319, 162.22000813484192, 162.3365659713745, 162.45337104797363, 162.57014513015747, 162.67010307312012, 162.7868480682373, 162.90389895439148, 163.12940192222595]	[159.0255342870072, 159.14220095367386, 160.12520095367387, 160.29190095367386, 161.04190095367386, 161.15856762034053, 161.2752342870072, 161.39190095367388, 161.50856762034056, 161.62523428700723, 161.7419009536739, 161.85856762034058, 161.97523428700725, 162.09190095367393, 162.2085676203406, 162.32523428700728, 162.44190095367395, 162.55856762034063, 162.6752342870073, 162.79190095367397, 162.90856762034065, 163.14190095367397]	2021_Feb_04_1136	59.94843150594867	1	1
22	28	FALSE	AV	v	['M', 'C', 'K', 'U', 'E', 'S', 'A', 'surprise', 'W', 'P', 'X', 'B', 'V', 'Z', 'N', 'G']	[1224, 829, 1122, 2059, 904, 1731, 697, 'stimAuditory/all_stimAuditory/102.wav', 2448, 1456, 4000, 760, 2245, 2911, 1335, 944]	11	Present	stimAuditory/all_stimAuditory/212.wav	stimVisual/all_stimVisual/123.jpg	ABSENT	0.3953821659088135	165.12535190582275	167.134281873703	168.06799697875977	168.41797494888306	171.24576997756958	4.111488103866577	[165.1395149230957, 165.25639605522156, 166.24060893058777, 166.40757703781128, 167.15826606750488, 167.27512907981873, 167.39198207855225, 167.50866794586182, 167.62562203407288, 167.74226903915405, 167.85923790931702, 167.99253511428833, 168.09279799461365, 168.20939707756042, 168.32630705833435, 168.44297409057617, 168.5596969127655, 168.67648100852966, 168.79351997375488, 168.91013503074646, 169.0268349647522, 169.24576997756958]	[165.14190095367397, 165.25856762034064, 166.24156762034065, 166.40826762034064, 167.15826762034064, 167.2749342870073, 167.391600953674, 167.50826762034066, 167.62493428700733, 167.741600953674, 167.85826762034068, 167.97493428700736, 168.09160095367403, 168.2082676203407, 168.32493428700738, 168.44160095367405, 168.55826762034073, 168.6749342870074, 168.79160095367408, 168.90826762034075, 169.02493428700743, 169.25826762034075]	2021_Feb_04_1136	59.94843150594867	1	1
22	29	FALSE	NV	v	['M', 'G', 'K', 'A', 'W', 'E', 'B', 'C', 'P', 'V', 'T', 'U', 'S', 'X', 'H', 'R']	[1224, 944, 1122, 697, 2448, 904, 760, 829, 1456, 2245, 1888, 2059, 1731, 4000, 986, 1587]	14	Present	NA	NA	PRESENT	0.3607518672943115	171.24861097335815	173.2507050037384	174.53433299064636	174.884418964386	177.3621370792389	4.111432075500488	[171.2627739906311, 171.37938690185547, 172.36423802375793, 172.53070998191833, 173.28156805038452, 173.39829301834106, 173.5151960849762, 173.63202691078186, 173.74862909317017, 173.86555695533752, 173.98233795166016, 174.09907913208008, 174.21579003334045, 174.3326919078827, 174.44942498207092, 174.5662500858307, 174.68283796310425, 174.79975199699402, 174.9165289402008, 175.03347492218018, 175.13327193260193, 175.3621370792389]	[171.25826762034075, 171.37493428700742, 172.35793428700742, 172.52463428700742, 173.27463428700742, 173.3913009536741, 173.50796762034076, 173.62463428700744, 173.7413009536741, 173.8579676203408, 173.97463428700746, 174.09130095367414, 174.2079676203408, 174.32463428700748, 174.44130095367416, 174.55796762034083, 174.6746342870075, 174.79130095367418, 174.90796762034086, 175.02463428700753, 175.1413009536742, 175.37463428700752]	2021_Feb_04_1136	59.94843150594867	1	1
22	30	FALSE	NN	v	['B', 'Z', 'A', 'G', 'N', 'T', 'U', 'S', 'V', 'K', 'E', 'J', 'Y', 'M', 'W', 'H']	[760, 2911, 697, 944, 1335, 1888, 2059, 1731, 2245, 1122, 904, 1029, 2670, 1224, 2448, 986]	11	Absent	NA	NA	ABSENT	0.4691538810729981	177.35493993759155	179.36692786216736	180.30078983306885	180.65071892738345	183.4785029888153	4.111575126647949	[177.36910390853882, 177.48609805107117, 178.47045612335205, 178.6372890472412, 179.40455794334412, 179.50471997261047, 179.62169790267944, 179.73833203315735, 179.85522890090942, 179.97198390960693, 180.08882999420166, 180.2054750919342, 180.32232093811035, 180.43905901908875, 180.55606412887573, 180.6726109981537, 180.7894949913025, 180.90615606307983, 181.02312207221985, 181.13975596427917, 181.2566680908203, 181.4785029888153]	[177.37463428700752, 177.4913009536742, 178.4743009536742, 178.6410009536742, 179.3910009536742, 179.50766762034087, 179.62433428700754, 179.74100095367422, 179.8576676203409, 179.97433428700757, 180.09100095367424, 180.2076676203409, 180.3243342870076, 180.44100095367426, 180.55766762034094, 180.6743342870076, 180.79100095367428, 180.90766762034096, 181.02433428700763, 181.1410009536743, 181.25766762034098, 181.4910009536743]	2021_Feb_04_1136	59.94843150594867	1	1
22	31	FALSE	NA	v	['N', 'A', 'J', 'P', 'V', 'U', 'W', 'X', 'B', 'K', 'C', 'M', 'S', 'G', 'E', 'T']	[1335, 697, 1029, 1456, 2245, 2059, 2448, 4000, 760, 1122, 829, 1224, 1731, 944, 904, 1888]	8	Present	NA	NA	PRESENT	0.3056800365447998	183.4784939289093	185.4833710193634	186.06717681884768	186.4172158241272	189.59487009048465	4.111499071121216	[183.49265694618225, 183.60917401313782, 184.59351992607117, 184.760507106781, 185.5111620426178, 185.62780094146729, 185.7447850704193, 185.86164093017578, 185.9784059524536, 186.09503507614136, 186.21203207969666, 186.3286681175232, 186.44567704200745, 186.56232690811157, 186.67919492721558, 186.79600310325623, 186.91256308555603, 187.02954196929932, 187.14616703987122, 187.26308608055115, 187.37980604171753, 187.5948691368103]	[183.4910009536743, 183.60766762034098, 184.59066762034098, 184.75736762034097, 185.50736762034097, 185.62403428700765, 185.74070095367432, 185.857367620341, 185.97403428700767, 186.09070095367434, 186.20736762034102, 186.3240342870077, 186.44070095367437, 186.55736762034104, 186.67403428700771, 186.7907009536744, 186.90736762034106, 187.02403428700774, 187.1407009536744, 187.25736762034109, 187.37403428700776, 187.60736762034108]	2021_Feb_04_1136	59.94843150594867	1	1
22	32	FALSE	NN	v	['H', 'W', 'E', 'Y', 'C', 'B', 'T', 'G', 'A', 'N', 'U', 'V', 'R', 'Z', 'S', 'J']	[986, 2448, 904, 2670, 829, 760, 1888, 944, 697, 1335, 2059, 2245, 1587, 2911, 1731, 1029]	13	Absent	NA	NA	ABSENT	0.3990058898925781	189.6015009880066	191.5998079776764	192.76686692237857	193.11683702468872	195.71123600006104	4.1114280223846436	[189.61566400527954, 189.73229598999023, 190.69995307922363, 190.8667769432068, 191.63439297676086, 191.75131011009216, 191.8678810596466, 191.98480200767517, 192.10160613059998, 192.21840691566467, 192.33515810966492, 192.45206093788147, 192.56871891021729, 192.68550491333008, 192.78552103042603, 192.90226793289185, 193.01913404464722, 193.13608503341675, 193.25258708000183, 193.36939096450806, 193.48640394210815, 193.71123600006104]	[189.60736762034108, 189.72403428700775, 190.70703428700776, 190.87373428700775, 191.62373428700775, 191.74040095367442, 191.8570676203411, 191.97373428700777, 192.09040095367445, 192.20706762034112, 192.3237342870078, 192.44040095367447, 192.55706762034114, 192.67373428700782, 192.7904009536745, 192.90706762034117, 193.02373428700784, 193.14040095367451, 193.2570676203412, 193.37373428700786, 193.49040095367454, 193.72373428700786]	2021_Feb_04_1136	59.94843150594867	1	1
22	33	FALSE	NV	v	['E', 'M', 'S', 'W', 'N', 'J', 'H', 'G', 'Z', 'T', 'P', 'B', 'V', 'X', 'C', 'U']	[904, 1224, 1731, 2448, 1335, 1029, 986, 944, 2911, 1888, 1456, 760, 2245, 4000, 829, 2059]	14	Present	NA	NA	PRESENT	0.259584903717041	195.70782494544983	197.71605491638184	199.00036692619324	199.3499128818512	201.82760310173035	4.111548185348511	[195.72198796272278, 195.83881306648254, 196.8230950832367, 196.99003911018372, 197.74077701568604, 197.85753297805786, 197.9745090007782, 198.09117197990417, 198.2081699371338, 198.32472705841064, 198.4417541027069, 198.55841493606567, 198.6752700805664, 198.79206013679504, 198.90882992744446, 199.02557611465454, 199.14234399795532, 199.2592329978943, 199.37589311599731, 199.49266290664673, 199.60949110984802, 199.82760190963745]	[195.72373428700786, 195.84040095367453, 196.82340095367454, 196.99010095367453, 197.74010095367453, 197.8567676203412, 197.97343428700788, 198.09010095367455, 198.20676762034122, 198.3234342870079, 198.44010095367457, 198.55676762034125, 198.67343428700792, 198.7901009536746, 198.90676762034127, 199.02343428700794, 199.14010095367462, 199.2567676203413, 199.37343428700797, 199.49010095367464, 199.60676762034132, 199.84010095367464]	2021_Feb_04_1136	59.94843150594867	1	1
22	34	FALSE	VV	v	['T', 'G', 'A', 'H', 'P', 'E', 'surprise', 'Y', 'W', 'X', 'U', 'J', 'R', 'S', 'K', 'M']	[1888, 944, 697, 986, 1456, 904, 'stimAuditory/all_stimAuditory/207.wav', 2670, 2448, 4000, 2059, 1029, 1587, 1731, 1122, 1224]	10	Present	NA	stimVisual/all_stimVisual/107.jpg	PRESENT	0.3290879726409912	201.83099389076233	203.83261680603027	204.64955687522888	204.99955081939697	207.94396996498108	4.111353158950806	[201.84515810012817, 201.96193194389343, 202.94639992713928, 203.11360096931458, 203.8640420436859, 203.98095703125, 204.09770393371582, 204.21449613571167, 204.33129596710205, 204.4481520652771, 204.5647521018982, 204.68166995048523, 204.79844903945923, 204.91517901420593, 205.03200912475586, 205.14884495735168, 205.26561903953552, 205.3823299407959, 205.49908900260925, 205.61594104766846, 205.71584796905518, 205.94396901130676]	[201.84010095367464, 201.9567676203413, 202.9397676203413, 203.1064676203413, 203.8564676203413, 203.97313428700798, 204.08980095367465, 204.20646762034133, 204.323134287008, 204.43980095367468, 204.55646762034135, 204.67313428700803, 204.7898009536747, 204.90646762034137, 205.02313428700805, 205.13980095367472, 205.2564676203414, 205.37313428700807, 205.48980095367475, 205.60646762034142, 205.7231342870081, 205.9564676203414]	2021_Feb_04_1136	59.94843150594867	1	1
22	35	FALSE	NV	v	['A', 'R', 'H', 'J', 'V', 'T', 'Y', 'X', 'Z', 'W', 'C', 'U', 'G', 'E', 'S', 'N']	[697, 1587, 986, 1029, 2245, 1888, 2670, 4000, 2911, 2448, 829, 2059, 944, 904, 1731, 1335]	8	Present	NA	NA	PRESENT	0.35739707946777344	207.9374098777771	209.94881987571716	210.5325498580933	210.882661819458	214.0603370666504	4.1115171909332275	[207.95157408714294, 208.06852912902832, 209.0528359413147, 209.21970200538635, 209.970360994339, 210.08722591400146, 210.20413398742676, 210.32113790512085, 210.43768692016602, 210.55437994003296, 210.67130613327026, 210.78797101974487, 210.9049210548401, 211.02173900604248, 211.13848304748535, 211.2552149295807, 211.37213110923767, 211.48878502845764, 211.60556602478027, 211.72231006622314, 211.83901691436768, 212.0603370666504]	[207.9564676203414, 208.0731342870081, 209.0561342870081, 209.22283428700808, 209.97283428700808, 210.08950095367476, 210.20616762034143, 210.3228342870081, 210.43950095367478, 210.55616762034145, 210.67283428700813, 210.7895009536748, 210.90616762034148, 211.02283428700815, 211.13950095367483, 211.2561676203415, 211.37283428700817, 211.48950095367485, 211.60616762034152, 211.7228342870082, 211.83950095367487, 212.0728342870082]	2021_Feb_04_1136	59.94843150594867	1	1
22	36	FALSE	NV	v	['J', 'S', 'K', 'W', 'T', 'M', 'Y', 'N', 'R', 'P', 'C', 'X', 'Z', 'E', 'V', 'H']	[1029, 1731, 1122, 2448, 1888, 1224, 2670, 1335, 1587, 1456, 829, 4000, 2911, 904, 2245, 986]	12	Present	NA	NA	PRESENT	0.32209110260009766	214.0610740184784	216.06544184684753	217.1159918308258	217.46553301811215	220.1767029762268	4.1112611293792725	[214.07523703575134, 214.1915500164032, 215.17595505714417, 215.34297895431519, 216.09366297721863, 216.2104630470276, 216.32731890678406, 216.44408202171326, 216.56097197532654, 216.67765593528748, 216.7943720817566, 216.91126704216003, 217.02796411514282, 217.14494800567627, 217.26156902313232, 217.37838697433472, 217.49520206451416, 217.61201405525208, 217.72869110107422, 217.84567403793335, 217.9621970653534, 218.1767029762268]	[214.0728342870082, 214.18950095367487, 215.17250095367487, 215.33920095367486, 216.08920095367486, 216.20586762034154, 216.3225342870082, 216.43920095367488, 216.55586762034156, 216.67253428700823, 216.7892009536749, 216.90586762034158, 217.02253428700826, 217.13920095367493, 217.2558676203416, 217.37253428700828, 217.48920095367495, 217.60586762034163, 217.7225342870083, 217.83920095367498, 217.95586762034165, 218.18920095367497]	2021_Feb_04_1136	59.94843150594867	1	1
22	37	FALSE	NA	v	['W', 'A', 'R', 'C', 'G', 'T', 'N', 'U', 'Y', 'J', 'M', 'E', 'S', 'X', 'V', 'Z']	[2448, 697, 1587, 829, 944, 1888, 1335, 2059, 2670, 1029, 1224, 904, 1731, 4000, 2245, 2911]	14	Present	NA	NA	PRESENT	0.33522510528564453	220.18376994132996	222.18157982826233	223.46571588516235	223.8154058456421	226.2930691242218	4.111489295959473	[220.1979329586029, 220.29796195030212, 221.28243112564087, 221.44923210144043, 222.21688199043274, 222.3336009979248, 222.45036911964417, 222.56737399101257, 222.66722297668457, 222.78401112556458, 222.90077710151672, 223.01764297485352, 223.13465905189514, 223.25118803977966, 223.36803197860718, 223.48473191261292, 223.6015820503235, 223.7183439731598, 223.83508896827698, 223.95194697380066, 224.06889510154724, 224.2930691242218]	[220.18920095367497, 220.30586762034164, 221.28886762034165, 221.45556762034164, 222.20556762034164, 222.3222342870083, 222.438900953675, 222.55556762034166, 222.67223428700834, 222.788900953675, 222.90556762034169, 223.02223428700836, 223.13890095367503, 223.2555676203417, 223.37223428700838, 223.48890095367506, 223.60556762034173, 223.7222342870084, 223.83890095367508, 223.95556762034175, 224.07223428700843, 224.30556762034175]	2021_Feb_04_1136	59.94843150594867	1	1
22	38	FALSE	NV	v	['C', 'Y', 'A', 'Z', 'W', 'G', 'N', 'B', 'X', 'T', 'M', 'P', 'H', 'U', 'R', 'E']	[829, 2670, 697, 2911, 2448, 944, 1335, 760, 4000, 1888, 1224, 1456, 986, 2059, 1587, 904]	9	Present	NA	NA	PRESENT	0.4518289566040039	226.29048800468445	228.2978539466858	228.9984438419342	229.34845781326297	232.40943694114685	4.11158299446106	[226.3046519756317, 226.42131805419922, 227.4057219028473, 227.5727081298828, 228.32331895828247, 228.44009590148926, 228.55704498291016, 228.67371606826782, 228.79045796394348, 228.90723204612732, 229.02417397499084, 229.14087009429932, 229.2577199935913, 229.3744580745697, 229.4911699295044, 229.60809111595154, 229.72493505477905, 229.84156703948975, 229.9584300518036, 230.07539892196655, 230.1920130252838, 230.40943694114685]	[226.30556762034175, 226.42223428700842, 227.40523428700843, 227.57193428700842, 228.32193428700842, 228.4386009536751, 228.55526762034177, 228.67193428700844, 228.78860095367511, 228.9052676203418, 229.02193428700846, 229.13860095367514, 229.2552676203418, 229.3719342870085, 229.48860095367516, 229.60526762034183, 229.7219342870085, 229.83860095367518, 229.95526762034186, 230.07193428700853, 230.1886009536752, 230.42193428700853]	2021_Feb_04_1136	59.94843150594867	1	1
22	39	FALSE	NN	v	['B', 'V', 'Y', 'E', 'C', 'G', 'M', 'J', 'K', 'P', 'R', 'Z', 'N', 'A', 'T', 'U']	[760, 2245, 2670, 904, 829, 944, 1224, 1029, 1122, 1456, 1587, 2911, 1335, 697, 1888, 2059]	12	Absent	NA	NA	ABSENT	0.34518909454345703	232.41363787651065	234.4142940044403	235.46486687660217	235.81483793258667	238.52580404281616	4.1115100383758545	[232.42780113220215, 232.5445580482483, 233.52901792526245, 233.6956639289856, 234.44648694992065, 234.56344890594482, 234.6800639629364, 234.7970929145813, 234.91358494758606, 235.03054690361023, 235.14721512794495, 235.26418590545654, 235.3808159828186, 235.4978151321411, 235.61453104019165, 235.73138809204102, 235.8480339050293, 235.96496105194092, 236.08157896995544, 236.19847798347473, 236.29844307899475, 236.52580404281616]	[232.42193428700853, 232.5386009536752, 233.5216009536752, 233.6883009536752, 234.4383009536752, 234.55496762034187, 234.67163428700854, 234.78830095367522, 234.9049676203419, 235.02163428700857, 235.13830095367524, 235.25496762034192, 235.3716342870086, 235.48830095367526, 235.60496762034194, 235.7216342870086, 235.8383009536753, 235.95496762034196, 236.07163428700864, 236.1883009536753, 236.30496762034198, 236.5383009536753]	2021_Feb_04_1136	59.94843150594867	1	1
22	40	FALSE	NN	v	['K', 'G', 'N', 'P', 'V', 'H', 'R', 'C', 'W', 'M', 'S', 'Z', 'E', 'A', 'B', 'Y']	[1122, 944, 1335, 1456, 2245, 986, 1587, 829, 2448, 1224, 1731, 2911, 904, 697, 760, 2670]	10	Absent	NA	NA	ABSENT	0.405505895614624	238.5200548171997	240.5305449962616	241.3477737903595	241.69772601127625	244.64216899871823	4.111624002456665	[238.53421902656555, 238.65107798576355, 239.63522911071777, 239.80241703987122, 240.55289506912231, 240.66964602470398, 240.78669095039368, 240.90326595306396, 241.02024102210999, 241.1368899345398, 241.25374913215637, 241.37051701545715, 241.4872109889984, 241.60404992103577, 241.72087407112122, 241.83764100074768, 241.95444512367249, 242.07137393951416, 242.18810391426086, 242.30500197410583, 242.42156505584717, 242.64216995239258]	[238.5383009536753, 238.65496762034198, 239.63796762034198, 239.80466762034197, 240.55466762034197, 240.67133428700865, 240.78800095367532, 240.904667620342, 241.02133428700867, 241.13800095367534, 241.25466762034202, 241.3713342870087, 241.48800095367537, 241.60466762034204, 241.72133428700872, 241.8380009536754, 241.95466762034206, 242.07133428700874, 242.1880009536754, 242.3046676203421, 242.42133428700876, 242.65466762034208]	2021_Feb_04_1136	59.94843150594867	1	1
22	41	FALSE	NN	v	['C', 'V', 'A', 'M', 'Z', 'W', 'B', 'P', 'E', 'J', 'R', 'T', 'G', 'H', 'U', 'N']	[829, 2245, 697, 1224, 2911, 2448, 760, 1456, 904, 1029, 1587, 1888, 944, 986, 2059, 1335]	13	Absent	NA	NA	ABSENT	0.4020719528198242	244.64358282089233	246.6470649242401	247.81456995010376	248.16403079032895	250.7585370540619	4.111472129821777	[244.65774607658386, 244.77420210838318, 245.75851798057556, 245.92551803588867, 246.6761610507965, 246.79298210144043, 246.90976691246033, 247.02658796310425, 247.14348793029785, 247.26014494895935, 247.37688302993774, 247.4937620162964, 247.6105580329895, 247.72732710838318, 247.84398198127747, 247.96105098724365, 248.07767510414124, 248.19455909729004, 248.3112919330597, 248.42804098129272, 248.54493594169617, 248.7585370540619]	[244.65466762034208, 244.77133428700876, 245.75433428700876, 245.92103428700875, 246.67103428700875, 246.78770095367543, 246.9043676203421, 247.02103428700877, 247.13770095367545, 247.25436762034212, 247.3710342870088, 247.48770095367547, 247.60436762034215, 247.72103428700882, 247.8377009536755, 247.95436762034217, 248.07103428700884, 248.18770095367552, 248.3043676203422, 248.42103428700887, 248.53770095367554, 248.77103428700886]	2021_Feb_04_1136	59.94843150594867	1	1
22	42	FALSE	VA	v	['S', 'C', 'U', 'B', 'N', 'E', 'M', 'surprise', 'G', 'A', 'X', 'J', 'V', 'Z', 'W', 'H']	[1731, 829, 2059, 760, 1335, 904, 1224, 'stimAuditory/all_stimAuditory/101.wav', 944, 697, 4000, 1029, 2245, 2911, 2448, 986]	11	Present	NA	stimVisual/all_stimVisual/110.jpg	PRESENT	0.3194589614868164	250.74961590766907	252.7634539604187	253.69717979431152	254.04715394973755	256.8749039173126	4.111449956893921	[250.76377892494202, 250.8806459903717, 251.86501002311707, 252.03196001052856, 252.7994270324707, 252.89940905570984, 253.01611399650574, 253.1328730583191, 253.249694108963, 253.36650204658508, 253.48328304290771, 253.61699795722961, 253.71686697006226, 253.83360695838928, 253.95044994354248, 254.06729102134705, 254.1843180656433, 254.30081701278687, 254.4178409576416, 254.53442192077637, 254.65150594711304, 254.874902009964]	[250.77103428700886, 250.88770095367553, 251.87070095367554, 252.03740095367553, 252.78740095367553, 252.9040676203422, 253.02073428700888, 253.13740095367555, 253.25406762034223, 253.3707342870089, 253.48740095367558, 253.60406762034225, 253.72073428700892, 253.8374009536756, 253.95406762034227, 254.07073428700895, 254.18740095367562, 254.3040676203423, 254.42073428700897, 254.53740095367564, 254.65406762034232, 254.88740095367564]	2021_Feb_04_1136	59.94843150594867	1	1
22	43	FALSE	NA	v	['G', 'V', 'N', 'C', 'W', 'P', 'Y', 'B', 'M', 'T', 'Z', 'X', 'U', 'A', 'E', 'H']	[944, 2245, 1335, 829, 2448, 1456, 2670, 760, 1224, 1888, 2911, 4000, 2059, 697, 904, 986]	12	Present	NA	NA	ABSENT	0.26001906394958496	256.87303590774536	258.87987089157104	259.93022894859314	260.2803168296814	262.9912700653076	4.111399173736572	[256.8871989250183, 257.00378704071045, 257.98820400238037, 258.1551239490509, 258.9058880805969, 259.0226321220398, 259.13927698135376, 259.2562379837036, 259.3730709552765, 259.48974800109863, 259.6064889431, 259.7234230041504, 259.84030508995056, 259.9571340084076, 260.0737199783325, 260.1907241344452, 260.30773997306824, 260.42427611351013, 260.54090309143066, 260.65783309936523, 260.7745189666748, 260.9912700653076]	[256.88740095367564, 257.0040676203423, 257.9870676203423, 258.1537676203423, 258.9037676203423, 259.020434287009, 259.13710095367566, 259.25376762034233, 259.370434287009, 259.4871009536757, 259.60376762034235, 259.720434287009, 259.8371009536757, 259.9537676203424, 260.07043428700905, 260.1871009536757, 260.3037676203424, 260.4204342870091, 260.53710095367575, 260.6537676203424, 260.7704342870091, 261.00376762034244]	2021_Feb_04_1136	59.94843150594867	1	1
22	44	FALSE	NV	v	['J', 'Z', 'U', 'E', 'P', 'Y', 'A', 'X', 'T', 'H', 'S', 'C', 'R', 'W', 'G', 'M']	[1029, 2911, 2059, 904, 1456, 2670, 697, 4000, 1888, 986, 1731, 829, 1587, 2448, 944, 1224]	8	Present	NA	NA	PRESENT	0.3852071762084961	262.9962589740753	264.99601793289185	265.58002400398254	265.93032479286194	269.10763692855835	4.111618995666504	[263.01042199134827, 263.127051115036, 264.1118929386139, 264.278373003006, 265.0290849208832, 265.1460180282593, 265.2626130580902, 265.37953090667725, 265.49602007865906, 265.61292004585266, 265.7297410964966, 265.8466830253601, 265.9633240699768, 266.08030891418457, 266.1969270706177, 266.31415605545044, 266.4304311275482, 266.5472490787506, 266.6641409397125, 266.7809729576111, 266.8810570240021, 267.10763597488403]	[263.00376762034244, 263.1204342870091, 264.1034342870091, 264.2701342870091, 265.0201342870091, 265.1368009536758, 265.25346762034246, 265.37013428700914, 265.4868009536758, 265.6034676203425, 265.72013428700916, 265.83680095367583, 265.9534676203425, 266.0701342870092, 266.18680095367586, 266.30346762034253, 266.4201342870092, 266.5368009536759, 266.65346762034255, 266.7701342870092, 266.8868009536759, 267.12013428700925]	2021_Feb_04_1136	59.94843150594867	1	1
22	45	FALSE	NN	v	['P', 'S', 'C', 'B', 'H', 'R', 'T', 'V', 'E', 'M', 'N', 'Z', 'A', 'G', 'Y', 'W']	[1456, 1731, 829, 760, 986, 1587, 1888, 2245, 904, 1224, 1335, 2911, 697, 944, 2670, 2448]	11	Absent	NA	NA	ABSENT	0.30173802375793457	269.10258293151855	271.1125388145447	272.04641580581665	272.39645195007324	275.22400403022766	4.111465215682983	[269.11674904823303, 269.23366594314575, 270.21783113479614, 270.3846471309662, 271.1354250907898, 271.25226306915283, 271.3692979812622, 271.4859240055084, 271.60279393196106, 271.7194061279297, 271.83611392974854, 271.95311403274536, 272.0698790550232, 272.1867139339447, 272.3035900592804, 272.4202311038971, 272.5370349884033, 272.6538541316986, 272.770534992218, 272.8874349594116, 273.0040440559387, 273.22400403022766]	[269.12013428700925, 269.2368009536759, 270.21980095367593, 270.3865009536759, 271.1365009536759, 271.2531676203426, 271.36983428700927, 271.48650095367594, 271.6031676203426, 271.7198342870093, 271.83650095367597, 271.95316762034264, 272.0698342870093, 272.186500953676, 272.30316762034266, 272.41983428700934, 272.536500953676, 272.6531676203427, 272.76983428700936, 272.88650095367603, 273.0031676203427, 273.23650095367606]	2021_Feb_04_1136	59.94843150594867	1	1
22	46	FALSE	NA	v	['C', 'B', 'Z', 'G', 'M', 'K', 'T', 'J', 'X', 'Y', 'U', 'V', 'N', 'R', 'A', 'P']	[829, 760, 2911, 944, 1224, 1122, 1888, 1029, 4000, 2670, 2059, 2245, 1335, 1587, 697, 1456]	9	Present	NA	NA	PRESENT	0.3304579257965088	275.22623801231384	277.2289009094238	277.92930698394775	278.27933287620544	281.3403699398041	4.111469030380249	[275.2404010295868, 275.3566679954529, 276.34096097946167, 276.507954120636, 277.2587671279907, 277.375510931015, 277.4922571182251, 277.60912108421326, 277.7258310317993, 277.8427240848541, 277.959321975708, 278.0762770175934, 278.19304895401, 278.3097860813141, 278.42649602890015, 278.54338812828064, 278.66020703315735, 278.77692890167236, 278.89383697509766, 279.0106680393219, 279.1274061203003, 279.3403699398041]	[275.23650095367606, 275.35316762034273, 276.33616762034274, 276.5028676203427, 277.2528676203427, 277.3695342870094, 277.4862009536761, 277.60286762034275, 277.7195342870094, 277.8362009536761, 277.9528676203428, 278.06953428700945, 278.1862009536761, 278.3028676203428, 278.41953428700947, 278.53620095367614, 278.6528676203428, 278.7695342870095, 278.88620095367617, 279.00286762034284, 279.1195342870095, 279.35286762034286]	2021_Feb_04_1136	59.94843150594867	1	1
22	47	FALSE	AV	v	['E', 'C', 'A', 'T', 'K', 'surprise', 'R', 'W', 'X', 'S', 'M', 'N', 'J', 'G', 'P', 'Z']	[904, 829, 697, 1888, 1122, 'stimAuditory/all_stimAuditory/208.wav', 1587, 2448, 4000, 1731, 1224, 1335, 1029, 944, 1456, 2911]	9	Present	stimAuditory/all_stimAuditory/213.wav	stimVisual/all_stimVisual/211.jpg	PRESENT	0.35976290702819824	281.33212399482727	283.34521889686584	284.046101808548	284.3956799507141	287.4567370414734	4.111518144607544	[281.3462860584259, 281.463299036026, 282.44740200042725, 282.61445713043213, 283.38177704811096, 283.48197412490845, 283.59873700141907, 283.7155361175537, 283.832307100296, 283.9657700061798, 284.0658369064331, 284.18268394470215, 284.29938197135925, 284.4162690639496, 284.5330970287323, 284.64984107017517, 284.76654410362244, 284.8834419250488, 285.00040912628174, 285.11751794815063, 285.23382091522217, 285.4567370414734]	[281.35286762034286, 281.46953428700954, 282.45253428700954, 282.61923428700953, 283.36923428700953, 283.4859009536762, 283.6025676203429, 283.71923428700956, 283.83590095367623, 283.9525676203429, 284.0692342870096, 284.18590095367625, 284.3025676203429, 284.4192342870096, 284.5359009536763, 284.65256762034295, 284.7692342870096, 284.8859009536763, 285.002567620343, 285.11923428700965, 285.2359009536763, 285.46923428700967]	2021_Feb_04_1136	59.94843150594867	1	1
22	48	FALSE	NA	v	['M', 'J', 'A', 'U', 'W', 'Z', 'V', 'H', 'S', 'N', 'E', 'Y', 'X', 'B', 'T', 'K']	[1224, 1029, 697, 2059, 2448, 2911, 2245, 986, 1731, 1335, 904, 2670, 4000, 760, 1888, 1122]	13	Present	NA	NA	PRESENT	0.34836912155151367	287.45549392700195	289.46184492111206	290.6286118030548	290.97860193252563	293.5731019973755	4.111257076263428	[287.4696581363678, 287.586403131485, 288.5706219673157, 288.7376639842987, 289.48834800720215, 289.6052119731903, 289.721941947937, 289.83881998062134, 289.95547795295715, 290.07252502441406, 290.1890330314636, 290.3060739040375, 290.42269802093506, 290.5395231246948, 290.65621304512024, 290.7731111049652, 290.88983511924744, 291.00673508644104, 291.12342596054077, 291.2403769493103, 291.3570010662079, 291.5731029510498]	[287.46923428700967, 287.58590095367634, 288.56890095367635, 288.73560095367634, 289.48560095367634, 289.602267620343, 289.7189342870097, 289.83560095367636, 289.95226762034304, 290.0689342870097, 290.1856009536764, 290.30226762034306, 290.41893428700973, 290.5356009536764, 290.6522676203431, 290.76893428700976, 290.88560095367643, 291.0022676203431, 291.1189342870098, 291.23560095367645, 291.3522676203431, 291.5856009536765]	2021_Feb_04_1136	59.94843150594867	1	1
22	49	FALSE	NV	v	['M', 'U', 'V', 'W', 'A', 'E', 'S', 'G', 'T', 'R', 'N', 'Y', 'P', 'X', 'K', 'B']	[1224, 2059, 2245, 2448, 697, 904, 1731, 944, 1888, 1587, 1335, 2670, 1456, 4000, 1122, 760]	14	Present	NA	NA	PRESENT	0.4256460666656494	293.5785689353943	295.57812786102295	296.86181688308716	297.2115738391876	299.6894690990448	4.111341238021851	[293.59273195266724, 293.70956897735596, 294.69400000572205, 294.86074709892273, 295.6118440628052, 295.7285180091858, 295.84506702423096, 295.96192812919617, 296.0787489414215, 296.19558000564575, 296.3127009868622, 296.42915201187134, 296.5457000732422, 296.66279911994934, 296.7794029712677, 296.8963301181793, 297.01315999031067, 297.12988805770874, 297.2466390132904, 297.36355090141296, 297.46336913108826, 297.6894700527191]	[293.5856009536765, 293.70226762034315, 294.68526762034315, 294.85196762034315, 295.60196762034315, 295.7186342870098, 295.8353009536765, 295.95196762034317, 296.06863428700984, 296.1853009536765, 296.3019676203432, 296.41863428700987, 296.53530095367654, 296.6519676203432, 296.7686342870099, 296.88530095367656, 297.00196762034324, 297.1186342870099, 297.2353009536766, 297.35196762034326, 297.46863428700993, 297.7019676203433]	2021_Feb_04_1136	59.94843150594867	1	1
22	50	FALSE	NA	v	['E', 'A', 'H', 'B', 'S', 'Z', 'P', 'J', 'X', 'U', 'W', 'Y', 'M', 'G', 'K', 'R']	[904, 697, 986, 760, 1731, 2911, 1456, 1029, 4000, 2059, 2448, 2670, 1224, 944, 1122, 1587]	9	Present	NA	NA	PRESENT	0.374222993850708	299.6851408481598	301.694296836853	302.3949568271637	302.7447338104248	305.80584502220154	4.111548185348511	[299.6993041038513, 299.8162319660187, 300.8003170490265, 300.9674460887909, 301.71812105178833, 301.8347909450531, 301.95181012153625, 302.06843996047974, 302.1851439476013, 302.3020510673523, 302.41879200935364, 302.5355749130249, 302.6524109840393, 302.7691729068756, 302.88580894470215, 303.0027279853821, 303.1194670200348, 303.23634696006775, 303.3530960083008, 303.47000908851624, 303.5866069793701, 303.80583810806274]	[299.7019676203433, 299.81863428700996, 300.80163428700996, 300.96833428700995, 301.71833428700995, 301.8350009536766, 301.9516676203433, 302.06833428701, 302.18500095367665, 302.3016676203433, 302.41833428701, 302.5350009536767, 302.65166762034335, 302.76833428701, 302.8850009536767, 303.00166762034337, 303.11833428701004, 303.2350009536767, 303.3516676203434, 303.46833428701007, 303.58500095367674, 303.8183342870101]	2021_Feb_04_1136	59.94843150594867	1	1
22	51	FALSE	NV	v	['Z', 'E', 'N', 'J', 'B', 'H', 'V', 'S', 'G', 'P', 'X', 'W', 'M', 'C', 'U', 'T']	[2911, 904, 1335, 1029, 760, 986, 2245, 1731, 944, 1456, 4000, 2448, 1224, 829, 2059, 1888]	11	Present	NA	NA	PRESENT	0.33850908279418945	305.8086998462677	307.81081080436707	308.74461793899536	309.09446692466736	311.92220401763916	4.111393213272095	[305.82286310195923, 305.93925189971924, 306.9236400127411, 307.0902769565582, 307.8410449028015, 307.9581000804901, 308.0746920108795, 308.19160509109497, 308.3083779811859, 308.42529797554016, 308.5418961048126, 308.6586880683899, 308.7754909992218, 308.89233899116516, 309.00910806655884, 309.12579798698425, 309.24269700050354, 309.35963797569275, 309.4763340950012, 309.5931351184845, 309.71005511283875, 309.92220401763916]	[305.8183342870101, 305.93500095367676, 306.91800095367677, 307.08470095367676, 307.83470095367676, 307.95136762034343, 308.0680342870101, 308.1847009536768, 308.30136762034346, 308.41803428701013, 308.5347009536768, 308.6513676203435, 308.76803428701015, 308.8847009536768, 309.0013676203435, 309.1180342870102, 309.23470095367685, 309.3513676203435, 309.4680342870102, 309.5847009536769, 309.70136762034355, 309.9347009536769]	2021_Feb_04_1136	59.94843150594867	1	1
22	52	FALSE	NN	v	['S', 'E', 'Y', 'A', 'M', 'W', 'P', 'N', 'V', 'J', 'K', 'T', 'G', 'H', 'B', 'Z']	[1731, 904, 2670, 697, 1224, 2448, 1456, 1335, 2245, 1029, 1122, 1888, 944, 986, 760, 2911]	8	Absent	NA	NA	ABSENT	0.28000903129577637	311.91477394104004	313.9269177913666	314.51067781448364	314.86087799072266	318.0385699272156	4.111652135848999	[311.9289379119873, 312.04558300971985, 313.02993512153625, 313.196928024292, 313.9644329547882, 314.06443905830383, 314.18138909339905, 314.2980990409851, 314.4149100780487, 314.5316729545593, 314.6483700275421, 314.76532006263733, 314.8820130825043, 314.9987690448761, 315.11595606803894, 315.23245191574097, 315.3493719100952, 315.4660270214081, 315.58268094062805, 315.69964694976807, 315.816260099411, 316.03856897354126]	[311.9347009536769, 312.05136762034357, 313.0343676203436, 313.20106762034357, 313.95106762034357, 314.06773428701024, 314.1844009536769, 314.3010676203436, 314.41773428701026, 314.53440095367694, 314.6510676203436, 314.7677342870103, 314.88440095367696, 315.00106762034363, 315.1177342870103, 315.234400953677, 315.35106762034366, 315.46773428701033, 315.584400953677, 315.7010676203437, 315.81773428701035, 316.0510676203437]	2021_Feb_04_1136	59.94843150594867	1	1
22	53	FALSE	NV	v	['G', 'Z', 'J', 'U', 'A', 'R', 'H', 'X', 'K', 'S', 'Y', 'N', 'E', 'V', 'P', 'T']	[944, 2911, 1029, 2059, 697, 1587, 986, 4000, 1122, 1731, 2670, 1335, 904, 2245, 1456, 1888]	8	Present	NA	NA	PRESENT	0.3164241313934326	318.03802490234375	320.0434899330139	320.62715888023376	320.9772469997406	324.1549370288849	4.111447095870972	[318.0521910190582, 318.168977022171, 319.153293132782, 319.3200640678406, 320.0708169937134, 320.1876571178436, 320.30433893203735, 320.42138504981995, 320.538192987442, 320.6549479961395, 320.77162313461304, 320.8886330127716, 321.00513195991516, 321.12201499938965, 321.23871207237244, 321.35569190979004, 321.47236609458923, 321.5891590118408, 321.7059109210968, 321.8228249549866, 321.9396150112152, 322.1549379825592]	[318.0510676203437, 318.1677342870104, 319.1507342870104, 319.31743428701037, 320.06743428701037, 320.18410095367705, 320.3007676203437, 320.4174342870104, 320.53410095367707, 320.65076762034374, 320.7674342870104, 320.8841009536771, 321.00076762034377, 321.11743428701044, 321.2341009536771, 321.3507676203438, 321.46743428701046, 321.58410095367714, 321.7007676203438, 321.8174342870105, 321.93410095367716, 322.1674342870105]	2021_Feb_04_1136	59.94843150594867	1	1
22	54	FALSE	NA	v	['J', 'G', 'M', 'K', 'S', 'U', 'Y', 'V', 'T', 'Z', 'X', 'N', 'A', 'R', 'W', 'B']	[1029, 944, 1224, 1122, 1731, 2059, 2670, 2245, 1888, 2911, 4000, 1335, 697, 1587, 2448, 760]	11	Present	NA	NA	PRESENT	0.32192397117614746	324.16094994544983	326.1598279476166	327.0934269428253	327.4438998699188	330.2713029384613	4.111474990844727	[324.17511510849, 324.29187512397766, 325.2598330974579, 325.4264829158783, 326.1940839290619, 326.3113260269165, 326.4275939464569, 326.54445791244507, 326.6613070964813, 326.7779679298401, 326.8947739601135, 327.0116469860077, 327.1284890174866, 327.24517798423767, 327.3620660305023, 327.47867608070374, 327.5955739021301, 327.6955420970917, 327.8123300075531, 327.9291479587555, 328.04592204093933, 328.2713029384613]	[324.1674342870105, 324.2841009536772, 325.2671009536772, 325.4338009536772, 326.1838009536772, 326.30046762034385, 326.4171342870105, 326.5338009536772, 326.6504676203439, 326.76713428701055, 326.8838009536772, 327.0004676203439, 327.1171342870106, 327.23380095367725, 327.3504676203439, 327.4671342870106, 327.58380095367727, 327.70046762034394, 327.8171342870106, 327.9338009536773, 328.05046762034397, 328.2838009536773]	2021_Feb_04_1136	59.94843150594867	1	1
22	55	FALSE	NV	v	['B', 'E', 'N', 'K', 'S', 'H', 'Z', 'T', 'V', 'C', 'M', 'G', 'W', 'X', 'U', 'J']	[760, 904, 1335, 1122, 1731, 986, 2911, 1888, 2245, 829, 1224, 944, 2448, 4000, 2059, 1029]	14	Present	NA	NA	PRESENT	0.37436890602111816	330.2675988674164	332.2763638496399	333.55993700027466	333.90988087654114	336.3876700401306	4.111306190490723	[330.2817630767822, 330.39848804473877, 331.38297605514526, 331.5498149394989, 332.3005299568176, 332.4173939228058, 332.5341820716858, 332.650897026062, 332.76762294769287, 332.8845419883728, 333.0012090206146, 333.11821603775024, 333.2349169254303, 333.3517780303955, 333.4683949947357, 333.5851409435272, 333.70199394226074, 333.8189101219177, 333.9355890750885, 334.0524959564209, 334.1690790653229, 334.3876700401306]	[330.2838009536773, 330.400467620344, 331.383467620344, 331.550167620344, 332.300167620344, 332.41683428701066, 332.53350095367733, 332.650167620344, 332.7668342870107, 332.88350095367736, 333.00016762034403, 333.1168342870107, 333.2335009536774, 333.35016762034405, 333.4668342870107, 333.5835009536774, 333.7001676203441, 333.81683428701075, 333.9335009536774, 334.0501676203441, 334.1668342870108, 334.4001676203441]	2021_Feb_04_1136	59.94843150594867	1	1
22	56	FALSE	AA	v	['K', 'C', 'W', 'P', 'V', 'J', 'Z', 'Y', 'surprise', 'N', 'T', 'X', 'S', 'H', 'A', 'G']	[1122, 829, 2448, 1456, 2245, 1029, 2911, 2670, 'stimAuditory/all_stimAuditory/113.wav', 1335, 1888, 4000, 1731, 986, 697, 944]	12	Present	stimAuditory/all_stimAuditory/102.wav	stimVisual/all_stimVisual/224.jpg	PRESENT	0.363908052444458	336.3909888267517	338.3924548625946	339.44296288490295	339.79296493530273	342.50403690338135	4.111582040786743	[336.40515208244324, 336.52178406715393, 337.50619292259216, 337.67284202575684, 338.4235680103302, 338.54057002067566, 338.65723395347595, 338.77404403686523, 338.8910439014435, 339.0078339576721, 339.12446808815, 339.2413589954376, 339.35801911354065, 339.4748160839081, 339.5917980670929, 339.708487033844, 339.8253800868988, 339.9420359134674, 340.05890703201294, 340.17565298080444, 340.27560210227966, 340.50403690338135]	[336.4001676203441, 336.5168342870108, 337.4998342870108, 337.6665342870108, 338.4165342870108, 338.53320095367746, 338.64986762034414, 338.7665342870108, 338.8832009536775, 338.99986762034416, 339.11653428701084, 339.2332009536775, 339.3498676203442, 339.46653428701086, 339.58320095367753, 339.6998676203442, 339.8165342870109, 339.93320095367756, 340.04986762034423, 340.1665342870109, 340.2832009536776, 340.5165342870109]	2021_Feb_04_1136	59.94843150594867	1	1
22	57	FALSE	NA	v	['J', 'T', 'H', 'V', 'N', 'S', 'K', 'R', 'U', 'Y', 'Z', 'C', 'X', 'M', 'P', 'E']	[1029, 1888, 986, 2245, 1335, 1731, 1122, 1587, 2059, 2670, 2911, 829, 4000, 1224, 1456, 904]	13	Present	NA	NA	PRESENT	0.33635807037353516	342.497309923172	344.50896883010864	345.67607283592224	346.02600383758545	348.62040305137634	4.1114342212677	[342.51147294044495, 342.6280550956726, 343.6125490665436, 343.77962613105774, 344.5468680858612, 344.64694905281067, 344.7638831138611, 344.880567073822, 344.99724411964417, 345.11419892311096, 345.231076002121, 345.34782695770264, 345.46449613571167, 345.5813910961151, 345.6980609893799, 345.8151481151581, 345.9315941333771, 346.04854011535645, 346.16549706459045, 346.28193712234497, 346.39882707595825, 346.62040305137634]	[342.5165342870109, 342.6332009536776, 343.6162009536776, 343.7829009536776, 344.5329009536776, 344.64956762034427, 344.76623428701095, 344.8829009536776, 344.9995676203443, 345.11623428701097, 345.23290095367764, 345.3495676203443, 345.466234287011, 345.58290095367767, 345.69956762034434, 345.816234287011, 345.9329009536777, 346.04956762034436, 346.16623428701104, 346.2829009536777, 346.3995676203444, 346.63290095367773]	2021_Feb_04_1136	59.94843150594867	1	1
22	58	FALSE	NV	v	['V', 'Y', 'P', 'E', 'A', 'J', 'C', 'X', 'G', 'N', 'S', 'M', 'U', 'H', 'B', 'W']	[2245, 2670, 1456, 904, 697, 1029, 829, 4000, 944, 1335, 1731, 1224, 2059, 986, 760, 2448]	8	Present	NA	NA	PRESENT	0.2448251247406006	348.6205048561096	350.6252558231354	351.20907187461853	351.55909490585327	354.7367699146271	4.111514091491699	[348.63466811180115, 348.7513520717621, 349.7357349395752, 349.9025990962982, 350.65332198143005, 350.7703261375427, 350.8871080875397, 351.00392508506775, 351.120512008667, 351.23741006851196, 351.35408902168274, 351.47104597091675, 351.5878019332886, 351.70452904701233, 351.82135105133057, 351.93815994262695, 352.05496311187744, 352.171777009964, 352.288537979126, 352.4051809310913, 352.5221049785614, 352.7367699146271]	[348.63290095367773, 348.7495676203444, 349.7325676203444, 349.8992676203444, 350.6492676203444, 350.7659342870111, 350.88260095367775, 350.9992676203444, 351.1159342870111, 351.2326009536778, 351.34926762034445, 351.4659342870111, 351.5826009536778, 351.6992676203445, 351.81593428701115, 351.9326009536778, 352.0492676203445, 352.16593428701117, 352.28260095367784, 352.3992676203445, 352.5159342870112, 352.74926762034454]	2021_Feb_04_1136	59.94843150594867	1	1
22	59	FALSE	NV	v	['C', 'A', 'V', 'T', 'Z', 'H', 'P', 'Y', 'S', 'X', 'W', 'E', 'G', 'R', 'N', 'U']	[829, 697, 2245, 1888, 2911, 986, 1456, 2670, 1731, 4000, 2448, 904, 944, 1587, 1335, 2059]	10	Present	NA	NA	PRESENT	0.40199995040893555	354.74369287490845	356.7417027950287	357.55871987342834	357.90873098373413	360.8531370162964	4.1114342212677	[354.7578561306, 354.8746221065521, 355.84214997291565, 356.0092399120331, 356.77678298950195, 356.8932161331177, 357.0102059841156, 357.1268219947815, 357.2437961101532, 357.3605830669403, 357.4775230884552, 357.5772430896759, 357.6941499710083, 357.81094193458557, 357.92768907546997, 358.0445079803467, 358.16128492355347, 358.27800607681274, 358.3947899341583, 358.5115840435028, 358.6284201145172, 358.85313606262207]	[354.74926762034454, 354.8659342870112, 355.8489342870112, 356.0156342870112, 356.7656342870112, 356.8823009536779, 356.99896762034456, 357.11563428701123, 357.2323009536779, 357.3489676203446, 357.46563428701126, 357.58230095367793, 357.6989676203446, 357.8156342870113, 357.93230095367795, 358.0489676203446, 358.1656342870113, 358.282300953678, 358.39896762034465, 358.5156342870113, 358.632300953678, 358.86563428701135]	2021_Feb_04_1136	59.94843150594867	1	1
22	60	FALSE	NV	v	['S', 'N', 'R', 'C', 'H', 'E', 'Z', 'K', 'G', 'B', 'V', 'Y', 'X', 'A', 'T', 'U']	[1731, 1335, 1587, 829, 986, 904, 2911, 1122, 944, 760, 2245, 2670, 4000, 697, 1888, 2059]	13	Present	NA	NA	PRESENT	0.33472204208374023	360.85018587112427	362.85793900489807	364.0250928401947	364.3750898838043	366.9695019721985	4.111562967300415	[360.8643491268158, 360.9809310436249, 361.9655110836029, 362.13235306739807, 362.88290190696716, 362.99989104270935, 363.11662912368774, 363.23349499702454, 363.3500819206238, 363.46711707115173, 363.5837969779968, 363.70060300827026, 363.8173351287842, 363.93432092666626, 364.0509080886841, 364.16766595840454, 364.28456592559814, 364.4014940261841, 364.51808500289917, 364.63490200042725, 364.75156903266907, 364.9695029258728]	[360.86563428701135, 360.982300953678, 361.965300953678, 362.132000953678, 362.882000953678, 362.9986676203447, 363.11533428701136, 363.23200095367804, 363.3486676203447, 363.4653342870114, 363.58200095367806, 363.69866762034474, 363.8153342870114, 363.9320009536781, 364.04866762034476, 364.16533428701143, 364.2820009536781, 364.3986676203448, 364.51533428701146, 364.63200095367813, 364.7486676203448, 364.98200095367815]	2021_Feb_04_1136	59.94843150594867	1	1
22	61	FALSE	NV	v	['G', 'W', 'H', 'A', 'S', 'B', 'P', 'E', 'R', 'Y', 'Z', 'X', 'N', 'K', 'J', 'U']	[944, 2448, 986, 697, 1731, 760, 1456, 904, 1587, 2670, 2911, 4000, 1335, 1122, 1029, 2059]	12	Present	NA	NA	ABSENT	0.36405396461486816	366.9735448360443	368.97447180747986	370.0248539447784	370.37481594085693	373.0858700275421	4.111398220062256	[366.98770904541016, 367.10431694984436, 368.08857107162476, 368.2554450035095, 369.0061719417572, 369.1229350566864, 369.23980593681335, 369.3566720485687, 369.47345495224, 369.5903310775757, 369.7069709300995, 369.82368302345276, 369.94085907936096, 370.0573880672455, 370.17426204681396, 370.2908399105072, 370.4079051017761, 370.52461791038513, 370.6413929462433, 370.75804805755615, 370.8580219745636, 371.0858700275421]	[366.98200095367815, 367.0986676203448, 368.08166762034483, 368.2483676203448, 368.9983676203448, 369.1150342870115, 369.23170095367817, 369.34836762034485, 369.4650342870115, 369.5817009536782, 369.69836762034487, 369.81503428701154, 369.9317009536782, 370.0483676203449, 370.16503428701157, 370.28170095367824, 370.3983676203449, 370.5150342870116, 370.63170095367826, 370.74836762034494, 370.8650342870116, 371.09836762034496]	2021_Feb_04_1136	59.94843150594867	1	1
22	62	FALSE	VN	v	['S', 'V', 'N', 'Z', 'G', 'T', 'Y', 'surprise', 'R', 'C', 'W', 'H', 'E', 'M', 'P', 'J']	[1731, 2245, 1335, 2911, 944, 1888, 2670, 'stimAuditory/all_stimAuditory/103.wav', 1587, 829, 2448, 986, 904, 1224, 1456, 1029]	11	Absent	NA	stimVisual/all_stimVisual/122.jpg	ABSENT	0.4164459705352783	373.0798399448395	375.0906808376312	376.02457785606384	376.37511587142944	379.2022359371186	4.111555099487305	[373.0940029621124, 373.21065497398376, 374.1951229572296, 374.36199498176575, 375.1125099658966, 375.2295560836792, 375.34619307518005, 375.46312403678894, 375.5799069404602, 375.69678497314453, 375.8134150505066, 375.9468660354614, 376.0469470024109, 376.16427397727966, 376.280611038208, 376.39752292633057, 376.51427602767944, 376.63107895851135, 376.74779891967773, 376.8646640777588, 376.98139095306396, 377.2022371292114]	[373.09836762034496, 373.21503428701163, 374.19803428701164, 374.36473428701163, 375.11473428701163, 375.2314009536783, 375.348067620345, 375.46473428701165, 375.5814009536783, 375.698067620345, 375.8147342870117, 375.93140095367835, 376.048067620345, 376.1647342870117, 376.28140095367837, 376.39806762034505, 376.5147342870117, 376.6314009536784, 376.74806762034507, 376.86473428701174, 376.9814009536784, 377.21473428701177]	2021_Feb_04_1136	59.94843150594867	1	1
22	63	FALSE	NA	v	['K', 'H', 'J', 'U', 'G', 'P', 'B', 'W', 'Y', 'T', 'M', 'N', 'X', 'R', 'E', 'C']	[1122, 986, 1029, 2059, 944, 1456, 760, 2448, 2670, 1888, 1224, 1335, 4000, 1587, 904, 829]	13	Present	NA	NA	PRESENT	0.3330979347229004	379.2027549743652	381.20709896087646	382.3742558956146	382.7244780063629	385.31860303878784	4.111504077911377	[379.2169189453125, 379.33393001556396, 380.3183479309082, 380.4850239753723, 381.23578906059265, 381.3525791168213, 381.469514131546, 381.5862760543823, 381.70295691490173, 381.81990909576416, 381.9365611076355, 382.05353903770447, 382.1703050136566, 382.2871470451355, 382.40388894081116, 382.520565032959, 382.63751912117004, 382.7541489601135, 382.8711040019989, 382.9876711368561, 383.10453510284424, 383.31860399246216]	[379.21473428701177, 379.33140095367844, 380.31440095367844, 380.48110095367844, 381.23110095367844, 381.3477676203451, 381.4644342870118, 381.58110095367846, 381.69776762034513, 381.8144342870118, 381.9311009536785, 382.04776762034516, 382.16443428701183, 382.2811009536785, 382.3977676203452, 382.51443428701185, 382.6311009536785, 382.7477676203452, 382.8644342870119, 382.98110095367855, 383.0977676203452, 383.3311009536786]	2021_Feb_04_1136	59.94843150594867	1	1
22	64	FALSE	NV	v	['C', 'N', 'T', 'H', 'G', 'A', 'E', 'X', 'K', 'Y', 'U', 'J', 'W', 'S', 'Z', 'R']	[829, 1335, 1888, 986, 944, 697, 904, 4000, 1122, 2670, 2059, 1029, 2448, 1731, 2911, 1587]	8	Present	NA	NA	PRESENT	0.35462188720703125	385.3261249065399	387.32344484329224	387.9072399139404	388.25746393203735	391.4349699020386	4.111525058746338	[385.34028911590576, 385.4402070045471, 386.4249060153961, 386.591432094574, 387.35906195640564, 387.4590299129486, 387.5757839679718, 387.6925871372223, 387.80940890312195, 387.9261929988861, 388.0429620742798, 388.15979290008545, 388.27659606933594, 388.3933811187744, 388.51016902923584, 388.62696504592896, 388.7437889575958, 388.86062502861023, 388.97744703292847, 389.0941689014435, 389.2110390663147, 389.43496894836426]	[385.3311009536786, 385.44776762034525, 386.43076762034525, 386.59746762034524, 387.34746762034524, 387.4641342870119, 387.5808009536786, 387.69746762034526, 387.81413428701194, 387.9308009536786, 388.0474676203453, 388.16413428701196, 388.28080095367864, 388.3974676203453, 388.514134287012, 388.63080095367866, 388.74746762034533, 388.864134287012, 388.9808009536787, 389.09746762034536, 389.21413428701203, 389.4474676203454]	2021_Feb_04_1136	59.94843150594867	1	1
22	65	FALSE	NA	v	['T', 'Z', 'G', 'B', 'E', 'Y', 'W', 'V', 'J', 'S', 'X', 'N', 'K', 'H', 'P', 'R']	[1888, 2911, 944, 760, 904, 2670, 2448, 2245, 1029, 1731, 4000, 1335, 1122, 986, 1456, 1587]	11	Present	NA	NA	PRESENT	0.310870885848999	391.4326629638672	393.4396598339081	394.3740048408508	394.72377490997314	397.5513370037079	4.111677169799805	[391.44682598114014, 391.56364703178406, 392.548054933548, 392.71473503112793, 393.4655930995941, 393.58239698410034, 393.69925808906555, 393.8159680366516, 393.93267011642456, 394.04965901374817, 394.16626811027527, 394.2832520008087, 394.3999230861664, 394.5168559551239, 394.633544921875, 394.75015902519226, 394.8671329021454, 394.983726978302, 395.1007809638977, 395.2173869609833, 395.33424496650696, 395.5513370037079]	[391.4474676203454, 391.56413428701205, 392.54713428701206, 392.71383428701205, 393.46383428701205, 393.5805009536787, 393.6971676203454, 393.81383428701207, 393.93050095367875, 394.0471676203454, 394.1638342870121, 394.28050095367877, 394.39716762034544, 394.5138342870121, 394.6305009536788, 394.74716762034546, 394.86383428701214, 394.9805009536788, 395.0971676203455, 395.21383428701216, 395.33050095367884, 395.5638342870122]	2021_Feb_04_1136	59.94843150594867	1	1
22	66	FALSE	VN	v	['R', 'B', 'N', 'Y', 'Z', 'W', 'H', 'T', 'A', 'surprise', 'U', 'M', 'V', 'C', 'K', 'J']	[1587, 760, 1335, 2670, 2911, 2448, 986, 1888, 697, 'stimAuditory/all_stimAuditory/107.wav', 2059, 1224, 2245, 829, 1122, 1029]	13	Absent	NA	stimVisual/all_stimVisual/100.jpg	ABSENT	0.44423508644104	397.5559628009796	399.5561449527741	400.7233159542084	401.07336688041687	403.6677029132843	4.111557960510254	[397.5701279640198, 397.68668007850647, 398.67101192474365, 398.83801102638245, 399.58871507644653, 399.70555305480957, 399.8222289085388, 399.93892002105713, 400.05598998069763, 400.1726679801941, 400.2895770072937, 400.4062969684601, 400.5231509208679, 400.63974809646606, 400.7565960884094, 400.8734440803528, 400.9903519153595, 401.1069951057434, 401.223984003067, 401.34081196784973, 401.4406650066376, 401.6677029132843]	[397.5638342870122, 397.68050095367886, 398.66350095367886, 398.83020095367885, 399.58020095367885, 399.69686762034553, 399.8135342870122, 399.9302009536789, 400.04686762034555, 400.1635342870122, 400.2802009536789, 400.3968676203456, 400.51353428701225, 400.6302009536789, 400.7468676203456, 400.86353428701227, 400.98020095367895, 401.0968676203456, 401.2135342870123, 401.33020095367897, 401.44686762034564, 401.680200953679]	2021_Feb_04_1136	59.94843150594867	1	1
22	67	FALSE	NN	v	['Y', 'Z', 'G', 'C', 'A', 'V', 'P', 'W', 'E', 'J', 'S', 'N', 'T', 'H', 'B', 'K']	[2670, 2911, 944, 829, 697, 2245, 1456, 2448, 904, 1029, 1731, 1335, 1888, 986, 760, 1122]	14	Absent	NA	NA	ABSENT	0.56871795654296875	403.6621699333191	405.6727828979492	406.9563407897949	407.3063428401947	409.7840700149536	4.1112871170043945	[403.67633390426636, 403.79323506355286, 404.7777681350708, 404.9443061351776, 405.6951699256897, 405.81210803985596, 405.92872190475464, 406.0456449985504, 406.16227412223816, 406.27920508384705, 406.39603090286255, 406.51288199424744, 406.62947511672974, 406.7462589740753, 406.8631899356842, 406.9798650741577, 407.0967860221863, 407.21389508247375, 407.33024406433105, 407.44708013534546, 407.5638840198517, 407.7840690612793]	[403.680200953679, 403.79686762034567, 404.77986762034567, 404.94656762034566, 405.69656762034566, 405.81323428701234, 405.929900953679, 406.0465676203457, 406.16323428701236, 406.27990095367903, 406.3965676203457, 406.5132342870124, 406.62990095367905, 406.74656762034573, 406.8632342870124, 406.9799009536791, 407.09656762034575, 407.2132342870124, 407.3299009536791, 407.4465676203458, 407.56323428701245, 407.7965676203458]	2021_Feb_04_1136	59.94843150594867	1	1
22	68	FALSE	NV	v	['Z', 'K', 'P', 'Y', 'M', 'A', 'H', 'B', 'T', 'G', 'V', 'X', 'S', 'E', 'U', 'W']	[2911, 1122, 1456, 2670, 1224, 697, 986, 760, 1888, 944, 2245, 4000, 1731, 904, 2059, 2448]	12	Present	NA	NA	PRESENT	0.2931821346282959	409.7854609489441	411.7893109321594	412.8394048213959	413.1894009113312	415.9004371166229	4.111126184463501	[409.79962706565857, 409.91647505760193, 410.9008150100708, 411.0676009654999, 411.81846809387207, 411.93535113334656, 412.05187606811523, 412.16876101493835, 412.2856149673462, 412.40229201316833, 412.5191171169281, 412.6360170841217, 412.752876996994, 412.8695869445801, 412.98638796806335, 413.10325813293457, 413.2198820114136, 413.3367509841919, 413.45352697372437, 413.5703139305115, 413.6871659755707, 413.9004371166229]	[409.7965676203458, 409.9132342870125, 410.8962342870125, 411.06293428701247, 411.81293428701247, 411.92960095367914, 412.0462676203458, 412.1629342870125, 412.27960095367916, 412.39626762034584, 412.5129342870125, 412.6296009536792, 412.74626762034586, 412.86293428701254, 412.9796009536792, 413.0962676203459, 413.21293428701256, 413.32960095367923, 413.4462676203459, 413.5629342870126, 413.67960095367926, 413.9129342870126]	2021_Feb_04_1136	59.94843150594867	1	1
22	69	FALSE	AV	v	['E', 'H', 'G', 'Z', 'C', 'S', 'K', 'N', 'W', 'surprise', 'M', 'B', 'X', 'P', 'A', 'V']	[904, 986, 944, 2911, 829, 1731, 1122, 1335, 2448, 'stimAuditory/all_stimAuditory/203.wav', 1224, 760, 4000, 1456, 697, 2245]	13	Present	stimAuditory/all_stimAuditory/207.wav	stimVisual/all_stimVisual/119.jpg	ABSENT	0.394536018371582	415.9086339473725	417.9053928852082	419.0724318027496	419.42246985435486	422.016802072525	4.1114091873168945	[415.9227991104126, 416.0228040218353, 417.0072090625763, 417.17456102371216, 417.94155502319336, 418.04156494140625, 418.15836095809937, 418.2751030921936, 418.3919200897217, 418.5087049007416, 418.6255099773407, 418.7422981262207, 418.8591010570526, 418.9926869869232, 419.09271812438965, 419.20959210395813, 419.3263831138611, 419.44310212135315, 419.5598530769348, 419.6769530773163, 419.79352498054504, 420.01680302619934]	[415.9129342870126, 416.0296009536793, 417.0126009536793, 417.1793009536793, 417.9293009536793, 418.04596762034595, 418.1626342870126, 418.2793009536793, 418.39596762034597, 418.51263428701265, 418.6293009536793, 418.745967620346, 418.86263428701267, 418.97930095367934, 419.095967620346, 419.2126342870127, 419.32930095367936, 419.44596762034604, 419.5626342870127, 419.6793009536794, 419.79596762034606, 420.0293009536794]	2021_Feb_04_1136	59.94843150594867	1	1
22	70	FALSE	NA	v	['N', 'H', 'E', 'U', 'W', 'J', 'S', 'X', 'V', 'C', 'M', 'T', 'K', 'Z', 'P', 'G']	[1335, 986, 904, 2059, 2448, 1029, 1731, 4000, 2245, 829, 1224, 1888, 1122, 2911, 1456, 944]	8	Present	NA	NA	PRESENT	0.3111550807952881	422.0149710178375	424.02163887023926	424.6054139137268	424.9556047916413	428.13317012786865	4.1115312576293945	[422.0291349887848, 422.14615392684937, 423.13057494163513, 423.2971410751343, 424.0480329990387, 424.164843082428, 424.2816240787506, 424.398423910141, 424.51530599594116, 424.632071018219, 424.7489421367645, 424.8656120300293, 424.98244404792786, 425.09912490844727, 425.216059923172, 425.33275508880615, 425.4496409893036, 425.56646704673767, 425.6832900047302, 425.79985213279724, 425.9168860912323, 426.13317012786865]	[422.0293009536794, 422.1459676203461, 423.1289676203461, 423.2956676203461, 424.0456676203461, 424.16233428701275, 424.27900095367943, 424.3956676203461, 424.5123342870128, 424.62900095367945, 424.7456676203461, 424.8623342870128, 424.9790009536795, 425.09566762034615, 425.2123342870128, 425.3290009536795, 425.44566762034617, 425.56233428701285, 425.6790009536795, 425.7956676203462, 425.91233428701287, 426.1456676203462]	2021_Feb_04_1136	59.94843150594867	1	1
22	71	FALSE	NN	v	['S', 'B', 'J', 'M', 'N', 'E', 'C', 'A', 'G', 'H', 'T', 'Y', 'P', 'U', 'Z', 'W']	[1731, 760, 1029, 1224, 1335, 904, 829, 697, 944, 986, 1888, 2670, 1456, 2059, 2911, 2448]	10	Absent	NA	NA	PRESENT	0.4524080753326416	428.13873291015625	430.13785195350647	430.9551169872284	431.3053269386291	434.2495369911194	4.111685037612915	[428.1528971195221, 428.26938009262085, 429.25360798835754, 429.4205939769745, 430.17142510414124, 430.28810691833496, 430.40495705604553, 430.521742105484, 430.6384611129761, 430.7550609111786, 430.8720850944519, 430.98874497413635, 431.1056590080261, 431.22247290611267, 431.3392379283905, 431.4559280872345, 431.5726730823517, 431.689572095871, 431.8063130378723, 431.92324900627136, 432.02321195602417, 432.24953603744507]	[428.1456676203462, 428.2623342870129, 429.2453342870129, 429.4120342870129, 430.1620342870129, 430.27870095367956, 430.39536762034624, 430.5120342870129, 430.6287009536796, 430.74536762034626, 430.86203428701293, 430.9787009536796, 431.0953676203463, 431.21203428701295, 431.32870095367963, 431.4453676203463, 431.562034287013, 431.67870095367965, 431.7953676203463, 431.912034287013, 432.0287009536797, 432.262034287013]	2021_Feb_04_1136	59.94843150594867	1	1
22	72	FALSE	AA	v	['N', 'P', 'G', 'C', 'K', 'surprise', 'J', 'B', 'X', 'E', 'Z', 'H', 'R', 'U', 'A', 'Y']	[1335, 1456, 944, 829, 1122, 'stimAuditory/all_stimAuditory/121.wav', 1029, 760, 4000, 904, 2911, 986, 1587, 2059, 697, 2670]	9	Present	stimAuditory/all_stimAuditory/101.wav	stimVisual/all_stimVisual/210.jpg	ABSENT	0.6328308582305908	434.2448568344116	436.2543168067932	436.9548289775848	437.3048930168152	440.3659029006958	4.111586093902588	[434.2590310573578, 434.3757429122925, 435.360121011734, 435.52697801589966, 436.27760791778564, 436.39465713500977, 436.51137590408325, 436.6283390522003, 436.74492597579956, 436.87847995758057, 436.97852301597595, 437.09538102149963, 437.212119102478, 437.32866191864014, 437.44562697410583, 437.56235694885254, 437.6792860031128, 437.7959189414978, 437.91291308403015, 438.0295350551605, 438.1467881202698, 438.3659019470215]	[434.262034287013, 434.3787009536797, 435.3617009536797, 435.5284009536797, 436.2784009536797, 436.39506762034637, 436.51173428701304, 436.6284009536797, 436.7450676203464, 436.86173428701306, 436.97840095367974, 437.0950676203464, 437.2117342870131, 437.32840095367976, 437.44506762034644, 437.5617342870131, 437.6784009536798, 437.79506762034646, 437.91173428701313, 438.0284009536798, 438.1450676203465, 438.37840095367983]	2021_Feb_04_1136	59.94843150594867	1	1
22	73	FALSE	NV	v	['W', 'P', 'A', 'H', 'Y', 'E', 'C', 'X', 'B', 'K', 'R', 'M', 'T', 'Z', 'N', 'V']	[2448, 1456, 697, 986, 2670, 904, 829, 4000, 760, 1122, 1587, 1224, 1888, 2911, 1335, 2245]	8	Present	NA	NA	PRESENT	0.34969305992126465	440.3679389953613	442.37100100517273	442.9545409679413	443.3046028614044	446.4822700023651	4.111268997192383	[440.3821029663086, 440.49907302856445, 441.483195066452, 441.6502239704132, 442.40089201927185, 442.5179030895233, 442.6346399784088, 442.75130891799927, 442.86823892593384, 442.9847869873047, 443.1016459465027, 443.2183880805969, 443.3352119922638, 443.4522669315338, 443.5689399242401, 443.68552803993225, 443.8024299144745, 443.9192490577698, 444.03614711761475, 444.152813911438, 444.26959896087646, 444.48227095603943]	[440.37840095367983, 440.4950676203465, 441.4780676203465, 441.6447676203465, 442.3947676203465, 442.5114342870132, 442.62810095367985, 442.7447676203465, 442.8614342870132, 442.97810095367987, 443.09476762034654, 443.2114342870132, 443.3281009536799, 443.44476762034657, 443.56143428701324, 443.6781009536799, 443.7947676203466, 443.91143428701326, 444.02810095367994, 444.1447676203466, 444.2614342870133, 444.49476762034664]	2021_Feb_04_1136	59.94843150594867	1	1
22	74	FALSE	NV	v	['W', 'R', 'U', 'G', 'C', 'S', 'K', 'J', 'H', 'A', 'N', 'X', 'T', 'P', 'B', 'V']	[2448, 1587, 2059, 944, 829, 1731, 1122, 1029, 986, 697, 1335, 4000, 1888, 1456, 760, 2245]	12	Present	NA	NA	PRESENT	0.34677791595458984	446.47437596321106	448.4872028827667	449.53755283355713	449.8876049518585	452.5986371040344	4.1114342212677	[446.488538980484, 446.60528802871704, 447.589772939682, 447.7564220428467, 448.52440094947815, 448.6243920326233, 448.7409360408783, 448.8577039241791, 448.9744710922241, 449.09142303466797, 449.20807003974915, 449.32481598854065, 449.4416561126709, 449.5585219860077, 449.6752269268036, 449.79215598106384, 449.90882992744446, 450.02578711509705, 450.14247608184814, 450.2591140270233, 450.37619495391846, 450.5986371040344]	[446.49476762034664, 446.6114342870133, 447.5944342870133, 447.7611342870133, 448.5111342870133, 448.62780095368, 448.74446762034665, 448.86113428701333, 448.97780095368, 449.0944676203467, 449.21113428701335, 449.32780095368, 449.4444676203467, 449.5611342870134, 449.67780095368005, 449.7944676203467, 449.9111342870134, 450.02780095368007, 450.14446762034675, 450.2611342870134, 450.3778009536801, 450.61113428701344]	2021_Feb_04_1136	59.94843150594867	1	1
22	75	FALSE	NA	v	['H', 'Y', 'E', 'K', 'U', 'N', 'T', 'J', 'C', 'Z', 'X', 'P', 'R', 'W', 'G', 'M']	[986, 2670, 904, 1122, 2059, 1335, 1888, 1029, 829, 2911, 4000, 1456, 1587, 2448, 944, 1224]	11	Present	NA	NA	PRESENT	0.34359288215637207	452.5975239276886	454.60335993766785	455.5372920036316	455.88729095458984	458.7150020599365	4.111642122268677	[452.61168813705444, 452.728728055954, 453.7130789756775, 453.87984108924866, 454.6305549144745, 454.74742913246155, 454.86423802375793, 454.9808359146118, 455.0977909564972, 455.21467995643616, 455.3311929702759, 455.44819712638855, 455.56489300727844, 455.6816210746765, 455.7985439300537, 455.9152410030365, 456.0321969985962, 456.1489679813385, 456.2657561302185, 456.382609128952, 456.4992060661316, 456.71500301361084]	[452.61113428701344, 452.7278009536801, 453.7108009536801, 453.8775009536801, 454.6275009536801, 454.7441676203468, 454.86083428701346, 454.97750095368013, 455.0941676203468, 455.2108342870135, 455.32750095368016, 455.44416762034683, 455.5608342870135, 455.6775009536802, 455.79416762034685, 455.91083428701353, 456.0275009536802, 456.1441676203469, 456.26083428701355, 456.3775009536802, 456.4941676203469, 456.72750095368025]	2021_Feb_04_1136	59.94843150594867	1	1
22	76	FALSE	NV	v	['E', 'M', 'N', 'Z', 'C', 'G', 'S', 'U', 'R', 'W', 'J', 'X', 'B', 'Y', 'A', 'V']	[904, 1224, 1335, 2911, 829, 944, 1731, 2059, 1587, 2448, 1029, 4000, 760, 2670, 697, 2245]	12	Present	NA	NA	PRESENT	0.5166959762573242	458.7211740016937	460.719890832901	461.77047395706177	462.1203029155731	464.83137011528015	4.11147928237915	[458.735337972641, 458.8516900539398, 459.81926703453064, 459.98608207702637, 460.75376296043396, 460.8707129955292, 460.98744010925293, 461.104346036911, 461.22108602523804, 461.33787202835083, 461.45465302467346, 461.5712881088257, 461.6882019042969, 461.8050889968872, 461.9217369556427, 462.03857707977295, 462.155287027359, 462.2720811367035, 462.3719971179962, 462.50551104545593, 462.60587096214294, 462.83137011528015]	[458.72750095368025, 458.8441676203469, 459.8271676203469, 459.9938676203469, 460.7438676203469, 460.8605342870136, 460.97720095368027, 461.09386762034694, 461.2105342870136, 461.3272009536803, 461.44386762034696, 461.56053428701364, 461.6772009536803, 461.793867620347, 461.91053428701366, 462.02720095368034, 462.143867620347, 462.2605342870137, 462.37720095368036, 462.49386762034703, 462.6105342870137, 462.84386762034705]	2021_Feb_04_1136	59.94843150594867	1	1
22	77	FALSE	NN	v	['K', 'R', 'S', 'N', 'V', 'W', 'U', 'H', 'A', 'J', 'G', 'M', 'B', 'Y', 'T', 'P']	[1122, 1587, 1731, 1335, 2245, 2448, 2059, 986, 697, 1029, 944, 1224, 760, 2670, 1888, 1456]	10	Absent	NA	NA	ABSENT	0.40930604934692383	464.8272399902344	466.8360769748688	467.6533818244934	468.0035009384155	470.9477369785309	4.111660003662109	[464.84140491485596, 464.9583160877228, 465.94260597229004, 466.1093490123749, 466.8601989746094, 466.9771840572357, 467.0938129425049, 467.2107970714569, 467.32735300064087, 467.4444041252136, 467.56108808517456, 467.67778611183167, 467.7945930957794, 467.91129207611084, 468.02814507484436, 468.1451930999756, 468.261775970459, 468.3783950805664, 468.49538803100586, 468.61198902130127, 468.7288990020752, 468.9477379322052]	[464.84386762034705, 464.96053428701373, 465.94353428701373, 466.1102342870137, 466.8602342870137, 466.9769009536804, 467.0935676203471, 467.21023428701375, 467.3269009536804, 467.4435676203471, 467.56023428701377, 467.67690095368044, 467.7935676203471, 467.9102342870138, 468.02690095368047, 468.14356762034714, 468.2602342870138, 468.3769009536805, 468.49356762034716, 468.61023428701384, 468.7269009536805, 468.96023428701386]	2021_Feb_04_1136	59.94843150594867	1	1
22	78	FALSE	NN	v	['R', 'K', 'J', 'B', 'H', 'U', 'P', 'G', 'N', 'T', 'E', 'Y', 'S', 'A', 'V', 'M']	[1587, 1122, 1029, 760, 986, 2059, 1456, 944, 1335, 1888, 904, 2670, 1731, 697, 2245, 1224]	12	Absent	NA	NA	ABSENT	0.5587220191955566	470.9504837989807	472.95255494117737	474.0030429363251	474.35322880744934	477.0641031265259	4.111548185348511	[470.9646461009979, 471.08140993118286, 472.06569504737854, 472.2325930595398, 472.98348212242126, 473.1001510620117, 473.2171709537506, 473.33397603034973, 473.4508399963379, 473.5672481060028, 473.68432807922363, 473.8011119365692, 473.9178240299225, 474.0345239639282, 474.15139412879944, 474.26810812950134, 474.38495993614197, 474.50178599357605, 474.61860704421997, 474.7353310585022, 474.85207200050354, 475.06410098075867]	[470.96023428701386, 471.07690095368054, 472.05990095368054, 472.22660095368053, 472.97660095368053, 473.0932676203472, 473.2099342870139, 473.32660095368055, 473.4432676203472, 473.5599342870139, 473.6766009536806, 473.79326762034725, 473.9099342870139, 474.0266009536806, 474.1432676203473, 474.25993428701395, 474.3766009536806, 474.4932676203473, 474.60993428701397, 474.72660095368065, 474.8432676203473, 475.07660095368067]	2021_Feb_04_1136	59.94843150594867	1	1
22	79	FALSE	NV	v	['Z', 'U', 'W', 'B', 'N', 'T', 'V', 'E', 'A', 'H', 'M', 'C', 'X', 'Y', 'S', 'K']	[2911, 2059, 2448, 760, 1335, 1888, 2245, 904, 697, 986, 1224, 829, 4000, 2670, 1731, 1122]	13	Present	NA	NA	ABSENT	0.4590721130371094	477.0568959712982	479.0690929889679	480.2361528873443	480.5860738754273	483.1804699897766	4.111377000808716	[477.0710599422455, 477.1879150867462, 478.1725790500641, 478.33921694755554, 479.10670495033264, 479.2065749168396, 479.32342505455017, 479.44033908843994, 479.5570421218872, 479.67376804351807, 479.7907509803772, 479.90759110450745, 480.0241460800171, 480.14094710350037, 480.2578139305115, 480.374470949173, 480.49140310287476, 480.60822796821594, 480.7251150608063, 480.84167408943176, 480.95858001708984, 481.1804699897766]	[477.07660095368067, 477.19326762034734, 478.17626762034735, 478.34296762034734, 479.09296762034734, 479.209634287014, 479.3263009536807, 479.44296762034736, 479.55963428701403, 479.6763009536807, 479.7929676203474, 479.90963428701406, 480.02630095368073, 480.1429676203474, 480.2596342870141, 480.37630095368075, 480.49296762034743, 480.6096342870141, 480.7263009536808, 480.84296762034745, 480.9596342870141, 481.1929676203475]	2021_Feb_04_1136	59.94843150594867	1	1
