participant	trial_num	practice	task	condition	RSVP	RAP	probePos	probe_presence	surprise_sound	surprise_img	probe_response	probe_resp_time	first_fixation_time	trial_start_time	surprise_start_time	probe_start_time	trial_end_time	trial_duration	actualEventTimes	plannedEventTimes	date	framerate	marker_vol	RAP_vol
26	1	FALSE	NA	v	['M', 'N', 'Z', 'W', 'B', 'Y', 'U', 'H', 'X', 'V', 'T', 'G', 'K', 'R', 'A', 'S']	[1224, 1335, 2911, 2448, 760, 2670, 2059, 986, 4000, 2245, 1888, 944, 1122, 1587, 697, 1731]	9	Present	NA	NA	PRESENT	0.5368120670318604	2.86102294921875e-6	2.0036938190460205	2.70206880569458	3.0523459911346436	6.103869915008545	4.100176095962524	[0.005922079086303711, 0.12253808975219727, 1.1070199012756348, 1.2740569114685059, 2.0244579315185547, 2.1415328979492188, 2.258111000061035, 2.375030994415283, 2.4917140007019043, 2.60868501663208, 2.72550892829895, 2.842345952987671, 2.959045886993408, 3.0758769512176514, 3.192553997039795, 3.309324026107788, 3.4261999130249023, 3.5429089069366455, 3.6598610877990723, 3.7764248847961426, 3.8764100074768066, 4.103869915008545]	[9.5367431640625e-07, 0.11666762034098306, 1.099667620340983, 1.266367620340983, 2.016367620340983, 2.1330342870076495, 2.249700953674316, 2.366367620340983, 2.4830342870076496, 2.5997009536743163, 2.716367620340983, 2.8330342870076497, 2.9497009536743164, 3.066367620340983, 3.18303428700765, 3.2997009536743165, 3.416367620340983, 3.53303428700765, 3.6497009536743166, 3.7663676203409833, 3.88303428700765, 4.116367620340983]	2021_Feb_05_1728	59.94954540841778	1	1
26	2	FALSE	NA	v	['S', 'U', 'H', 'P', 'Y', 'R', 'W', 'G', 'M', 'T', 'E', 'X', 'N', 'Z', 'A', 'B']	[1731, 2059, 986, 1456, 2670, 1587, 2448, 944, 1224, 1888, 904, 4000, 1335, 2911, 697, 760]	12	Present	NA	NA	PRESENT	0.37315893173217773	6.106303930282593	8.117257833480835	9.167516946792604	9.517505884170532	12.220237016677856	4.1029791831970215	[6.112222909927368, 6.228976011276245, 7.213478088378906, 7.380414009094238, 8.13096308708191, 8.247808933258057, 8.364775896072388, 8.48143196105957, 8.59832501411438, 8.714974880218506, 8.83202600479126, 8.948750019073486, 9.065587997436523, 9.182333946228027, 9.298979997634888, 9.416148900985718, 9.532824039459229, 9.649420976638794, 9.766083002090454, 9.883173942565918, 9.999748945236206, 10.220237970352173]	[6.116367620340983, 6.23303428700765, 7.216034287007649, 7.382734287007649, 8.132734287007649, 8.249400953674316, 8.366067620340983, 8.48273428700765, 8.599400953674317, 8.716067620340985, 8.832734287007652, 8.949400953674319, 9.066067620340986, 9.182734287007653, 9.29940095367432, 9.416067620340987, 9.532734287007655, 9.649400953674322, 9.766067620340989, 9.882734287007656, 9.999400953674323, 10.232734287007656]	2021_Feb_05_1728	59.94954540841778	1	1
26	3	FALSE	NV	v	['J', 'S', 'P', 'E', 'V', 'W', 'T', 'U', 'G', 'H', 'X', 'B', 'K', 'Z', 'M', 'R']	[1029, 1731, 1456, 904, 2245, 2448, 1888, 2059, 944, 986, 4000, 760, 1122, 2911, 1224, 1587]	11	Present	NA	NA	PRESENT	0.3137369155883789	12.229611873626707	14.233311891555786	15.16722583770752	15.51700496673584	18.336602926254272	4.103291034698486	[12.235530853271484, 12.352273941040039, 13.336785078048706, 13.503637075424194, 14.25431203842163, 14.371164083480835, 14.487900018692017, 14.604743957519531, 14.721406936645508, 14.838311910629272, 14.954974889755249, 15.072012901306152, 15.188509941101074, 15.305623054504395, 15.422071933746338, 15.539108991622925, 15.655926942825317, 15.772481918334961, 15.889327049255371, 16.0062198638916, 16.123018980026245, 16.336602926254272]	[12.232734287007656, 12.349400953674323, 13.332400953674323, 13.499100953674324, 14.249100953674324, 14.365767620340991, 14.482434287007658, 14.599100953674325, 14.715767620340992, 14.83243428700766, 14.949100953674327, 15.065767620340994, 15.182434287007661, 15.299100953674328, 15.415767620340995, 15.532434287007662, 15.64910095367433, 15.765767620340997, 15.882434287007664, 15.999100953674331, 16.115767620340996, 16.34910095367433]	2021_Feb_05_1728	59.94954540841778	1	1
26	4	FALSE	NN	v	['C', 'R', 'G', 'V', 'H', 'S', 'Y', 'B', 'N', 'Z', 'W', 'J', 'A', 'K', 'U', 'P']	[829, 1587, 944, 2245, 986, 1731, 2670, 760, 1335, 2911, 2448, 1029, 697, 1122, 2059, 1456]	14	Absent	NA	NA	ABSENT	0.7030270099639893	18.33587098121643	20.350026845932007	21.63343095779419	21.983248949050903	24.452970027923584	4.102943181991577	[18.341789960861206, 18.458642959594727, 19.443647861480713, 19.610137939453125, 20.377443075180054, 20.477482080459595, 20.594285011291504, 20.711050987243652, 20.82780885696411, 20.944591999053955, 21.061357021331787, 21.178189039230347, 21.295037031173706, 21.4118709564209, 21.52870202064514, 21.645392894744873, 21.76216197013855, 21.87907600402832, 21.995940923690796, 22.11260485649109, 22.2294499874115, 22.452970027923584]	[18.34910095367433, 18.465767620340998, 19.448767620341, 19.615467620340997, 20.365467620340997, 20.482134287007664, 20.59880095367433, 20.715467620341, 20.832134287007666, 20.948800953674333, 21.065467620341, 21.182134287007667, 21.298800953674334, 21.415467620341, 21.53213428700767, 21.648800953674336, 21.765467620341003, 21.88213428700767, 21.998800953674337, 22.115467620341004, 22.23213428700767, 22.465467620341006]	2021_Feb_05_1728	59.94954540841778	1	1
26	5	FALSE	NN	v	['Z', 'A', 'E', 'M', 'B', 'J', 'T', 'P', 'H', 'R', 'V', 'Y', 'W', 'G', 'U', 'K']	[2911, 697, 904, 1224, 760, 1029, 1888, 1456, 986, 1587, 2245, 2670, 2448, 944, 2059, 1122]	13	Absent	NA	NA	ABSENT	0.68352508544921875	24.45931887626648	26.46610689163208	27.63331890106201	27.982921838760376	30.569336891174316	4.103229999542236	[24.46523904800415, 24.581888914108276, 25.566304922103882, 25.733239889144897, 26.484081029891968, 26.600852012634277, 26.717505931854248, 26.834383964538574, 26.951056957244873, 27.067930936813354, 27.184736013412476, 27.30157208442688, 27.41818594932556, 27.53494906425476, 27.651824951171875, 27.768773078918457, 27.88559103012085, 28.002290964126587, 28.119317054748535, 28.236037015914917, 28.352563858032227, 28.5693359375]	[24.465467620341006, 24.582134287007673, 25.565134287007673, 25.731834287007672, 26.481834287007672, 26.59850095367434, 26.715167620341006, 26.831834287007673, 26.94850095367434, 27.065167620341008, 27.181834287007675, 27.298500953674342, 27.41516762034101, 27.531834287007676, 27.648500953674343, 27.76516762034101, 27.881834287007678, 27.998500953674345, 28.115167620341012, 28.23183428700768, 28.348500953674346, 28.58183428700768]	2021_Feb_05_1728	59.94954540841778	1	1
26	6	FALSE	NA	v	['Y', 'R', 'E', 'A', 'T', 'J', 'M', 'Z', 'U', 'V', 'K', 'W', 'H', 'X', 'N', 'P']	[2670, 1587, 904, 697, 1888, 1029, 1224, 2911, 2059, 2245, 1122, 2448, 986, 4000, 1335, 1456]	14	Present	NA	NA	PRESENT	0.7207660675048828	30.58296489715576	32.58265686035156	33.86604285240173	34.216110944747925	36.68570399284363	4.103047132492065	[30.588885068893433, 30.70518398284912, 31.689612865447998, 31.856284856796265, 32.60707998275757, 32.72403001785278, 32.840651988983154, 32.957634925842285, 33.07435989379883, 33.19100999832153, 33.30787801742554, 33.424668073654175, 33.54155898094177, 33.65838694572449, 33.77501893043518, 33.891911029815674, 34.00883197784424, 34.1253080368042, 34.2421989440918, 34.35899090766907, 34.459073066711426, 34.685704946517944]	[30.58183428700768, 30.698500953674348, 31.681500953674348, 31.848200953674347, 32.59820095367435, 32.71486762034102, 32.831534287007685, 32.94820095367435, 33.06486762034102, 33.181534287007686, 33.29820095367435, 33.41486762034102, 33.53153428700769, 33.648200953674355, 33.76486762034102, 33.88153428700769, 33.998200953674356, 34.11486762034102, 34.23153428700769, 34.34820095367436, 34.464867620341025, 34.69820095367436]	2021_Feb_05_1728	59.94954540841778	1	1
26	7	FALSE	NA	v	['N', 'T', 'J', 'W', 'P', 'U', 'Y', 'M', 'C', 'E', 'Z', 'X', 'K', 'G', 'R', 'S']	[1335, 1888, 1029, 2448, 1456, 2059, 2670, 1224, 829, 904, 2911, 4000, 1122, 944, 1587, 1731]	12	Present	NA	NA	PRESENT	0.3013269901275635	36.68897891044617	38.69892501831055	39.74934697151184	40.099437952041626	42.80206990242005	4.103144884109497	[36.69489789009094, 36.81157898902893, 37.79608988761902, 37.962944984436035, 38.713626861572266, 38.830414056777954, 38.947043895721436, 39.0641188621521, 39.18089008331299, 39.297515869140625, 39.414511919021606, 39.53121590614319, 39.648029088974, 39.76485896110535, 39.881592988967896, 39.99839496612549, 40.11501693725586, 40.231987953186035, 40.34894585609436, 40.46557307243347, 40.582284927368164, 40.80207085609436]	[36.69820095367436, 36.814867620341026, 37.79786762034102, 37.96456762034102, 38.71456762034102, 38.83123428700769, 38.947900953674356, 39.06456762034102, 39.18123428700769, 39.29790095367436, 39.414567620341025, 39.53123428700769, 39.64790095367436, 39.764567620341026, 39.88123428700769, 39.99790095367436, 40.11456762034103, 40.231234287007695, 40.34790095367436, 40.46456762034103, 40.581234287007696, 40.81456762034103]	2021_Feb_05_1728	59.94954540841778	1	1
26	8	FALSE	NA	v	['U', 'P', 'T', 'E', 'H', 'R', 'M', 'V', 'Z', 'G', 'S', 'Y', 'X', 'C', 'N', 'K']	[2059, 1456, 1888, 904, 986, 1587, 1224, 2245, 2911, 944, 1731, 2670, 4000, 829, 1335, 1122]	13	Present	NA	NA	PRESENT	0.649975061416626	42.81226396560669	44.81532382965088	45.98232388496399	46.33226180076599	48.918437004089355	4.103113174438477	[42.81818389892578, 42.934839963912964, 43.91914200782776, 44.08607292175293, 44.83666801452637, 44.95376992225647, 45.07054090499878, 45.18719291687012, 45.30399703979492, 45.420772075653076, 45.53747606277466, 45.65416193008423, 45.771076917648315, 45.88794803619385, 46.00471305847168, 46.12155103683472, 46.23832106590271, 46.35518789291382, 46.47188186645508, 46.58873987197876, 46.7054169178009, 46.91843605041504]	[42.81456762034103, 42.9312342870077, 43.914234287007694, 44.08093428700769, 44.83093428700769, 44.94760095367436, 45.06426762034103, 45.180934287007695, 45.29760095367436, 45.41426762034103, 45.530934287007696, 45.64760095367436, 45.76426762034103, 45.8809342870077, 45.997600953674365, 46.11426762034103, 46.2309342870077, 46.347600953674366, 46.46426762034103, 46.5809342870077, 46.69760095367437, 46.9309342870077]	2021_Feb_05_1728	59.94954540841778	1	1
26	9	FALSE	NN	v	['H', 'W', 'V', 'R', 'K', 'Z', 'G', 'A', 'M', 'E', 'N', 'S', 'J', 'P', 'B', 'T']	[986, 2448, 2245, 1587, 1122, 2911, 944, 697, 1224, 904, 1335, 1731, 1029, 1456, 760, 1888]	14	Absent	NA	NA	PRESENT	0.6952099800109863	48.91846489906311	50.931694984436035	52.2151780128479	52.56558799743652	55.03480291366577	4.103107929229736	[48.92439389228821, 49.0414080619812, 50.025497913360596, 50.19241404533386, 50.96024298667908, 51.060075998306274, 51.17675805091858, 51.2937068939209, 51.41028690338135, 51.52705788612366, 51.644120931625366, 51.760765075683594, 51.87741494178772, 51.99444603919983, 52.11119103431702, 52.22800803184509, 52.34466791152954, 52.461652994155884, 52.57829308509827, 52.69528889656067, 52.81198596954346, 53.034801959991455]	[48.9309342870077, 49.04760095367437, 50.030600953674366, 50.197300953674365, 50.947300953674365, 51.06396762034103, 51.1806342870077, 51.297300953674366, 51.41396762034103, 51.5306342870077, 51.64730095367437, 51.763967620341035, 51.8806342870077, 51.99730095367437, 52.113967620341036, 52.2306342870077, 52.34730095367437, 52.46396762034104, 52.580634287007705, 52.69730095367437, 52.81396762034104, 53.04730095367437]	2021_Feb_05_1728	59.94954540841778	1	1
26	10	FALSE	AV	v	['G', 'W', 'E', 'H', 'P', 'C', 'T', 'surprise', 'Z', 'M', 'X', 'B', 'N', 'A', 'U', 'R']	[944, 2448, 904, 986, 1456, 829, 1888, 'stimAuditory/all_stimAuditory/224.wav', 2911, 1224, 4000, 760, 1335, 697, 2059, 1587]	11	Present	stimAuditory/all_stimAuditory/224.wav	stimVisual/all_stimVisual/113.jpg	ABSENT	0.8517570495605469	55.04183197021485	57.04822778701782	57.98213291168213	58.33172678947449	61.15117001533508	4.102942228317261	[55.047751903533936, 55.16436195373535, 56.14883899688721, 56.31572389602661, 57.06645488739014, 57.18332386016846, 57.30008792877197, 57.41692495346069, 57.53359508514404, 57.650542974472046, 57.76720905303955, 57.900585889816284, 58.00080990791321, 58.11749291419983, 58.23433303833008, 58.351101875305176, 58.46789288520813, 58.58484387397766, 58.70147490501404, 58.818366050720215, 58.93515586853027, 59.1511709690094]	[55.04730095367437, 55.16396762034104, 56.14696762034104, 56.313667620341036, 57.063667620341036, 57.1803342870077, 57.29700095367437, 57.41366762034104, 57.530334287007705, 57.64700095367437, 57.76366762034104, 57.880334287007706, 57.99700095367437, 58.11366762034104, 58.23033428700771, 58.347000953674375, 58.46366762034104, 58.58033428700771, 58.697000953674376, 58.81366762034104, 58.93033428700771, 59.163667620341045]	2021_Feb_05_1728	59.94954540841778	1	1
26	11	FALSE	NA	v	['M', 'N', 'P', 'B', 'W', 'R', 'Y', 'C', 'X', 'Z', 'S', 'G', 'H', 'J', 'T', 'U']	[1224, 1335, 1456, 760, 2448, 1587, 2670, 829, 4000, 2911, 1731, 944, 986, 1029, 1888, 2059]	9	Present	NA	NA	PRESENT	0.3049910068511963	61.16517996788025	63.16443490982056	63.8646719455719	64.21466279029846	67.26753687858582	4.103101968765259	[61.17109990119934, 61.28751993179321, 62.27199196815491, 62.43882703781128, 63.18970704078674, 63.3065710067749, 63.42323088645935, 63.5399968624115, 63.65677094459534, 63.77360987663269, 63.890305042266846, 64.00719594955444, 64.12385392189026, 64.2406849861145, 64.35749888420105, 64.4744610786438, 64.59111595153809, 64.7079348564148, 64.82478499412537, 64.94158697128296, 65.04164791107178, 65.2675359249115]	[61.163667620341045, 61.28033428700771, 62.26333428700771, 62.43003428700771, 63.18003428700771, 63.296700953674375, 63.41336762034104, 63.53003428700771, 63.646700953674376, 63.76336762034104, 63.88003428700771, 63.99670095367438, 64.11336762034104, 64.2300342870077, 64.34670095367436, 64.46336762034102, 64.58003428700768, 64.69670095367434, 64.813367620341, 64.93003428700766, 65.04670095367432, 65.28003428700765]	2021_Feb_05_1728	59.94954540841778	1	1
26	12	FALSE	NA	v	['P', 'C', 'R', 'G', 'B', 'U', 'M', 'W', 'S', 'X', 'J', 'H', 'K', 'T', 'N', 'A']	[1456, 829, 1587, 944, 760, 2059, 1224, 2448, 1731, 4000, 1029, 986, 1122, 1888, 1335, 697]	10	Present	NA	NA	PRESENT	0.5417149066925049	67.27155494689941	69.28087091445923	70.09785580635071	70.44748091697693	73.38390302658081	4.103032112121582	[67.27749586105347, 67.39418601989746, 68.37843108177185, 68.54542207717896, 69.29595804214478, 69.4130048751831, 69.52962803840637, 69.64658188819885, 69.76343607902527, 69.88020491600037, 69.99665904045105, 70.11378407478333, 70.23025894165039, 70.34722995758057, 70.46413588523865, 70.58079600334167, 70.6974868774414, 70.81447100639343, 70.93118190765381, 71.04801201820374, 71.16472792625427, 71.38390398025513]	[67.28003428700765, 67.39670095367431, 68.37970095367432, 68.54640095367432, 69.29640095367432, 69.41306762034098, 69.52973428700764, 69.6464009536743, 69.76306762034096, 69.87973428700762, 69.99640095367428, 70.11306762034094, 70.2297342870076, 70.34640095367426, 70.46306762034092, 70.57973428700758, 70.69640095367424, 70.8130676203409, 70.92973428700756, 71.04640095367422, 71.16306762034088, 71.39640095367422]	2021_Feb_05_1728	59.94954540841778	1	1
26	13	FALSE	NV	v	['M', 'R', 'Y', 'P', 'B', 'Z', 'C', 'A', 'V', 'X', 'J', 'T', 'U', 'N', 'E', 'K']	[1224, 1587, 2670, 1456, 760, 2911, 829, 697, 2245, 4000, 1029, 1888, 2059, 1335, 904, 1122]	10	Present	NA	NA	PRESENT	0.3382561206817627	73.39466500282288	75.39708185195923	76.21410393714905	76.56409788131714	79.50026988983154	4.1031880378723145	[73.40059685707092, 73.51740002632141, 74.50167894363403, 74.66851806640625, 75.41915988922119, 75.53616285324097, 75.65283799171448, 75.76979398727417, 75.8863799571991, 76.053395986557, 76.1200680732727, 76.23688197135925, 76.3534619808197, 76.47043299674988, 76.58720302581787, 76.70406007766724, 76.8207459449768, 76.93760895729065, 77.05427408218384, 77.17103791236877, 77.28807187080383, 77.50026893615723]	[73.39640095367422, 73.51306762034088, 74.49606762034088, 74.66276762034089, 75.41276762034089, 75.52943428700755, 75.6461009536742, 75.76276762034087, 75.87943428700753, 75.99610095367419, 76.11276762034085, 76.2294342870075, 76.34610095367417, 76.46276762034083, 76.57943428700749, 76.69610095367415, 76.81276762034081, 76.92943428700747, 77.04610095367413, 77.16276762034079, 77.27943428700745, 77.51276762034078]	2021_Feb_05_1728	59.94954540841778	1	1
26	14	FALSE	NV	v	['T', 'G', 'B', 'K', 'A', 'P', 'E', 'X', 'U', 'J', 'W', 'V', 'N', 'M', 'Y', 'C']	[1888, 944, 760, 1122, 697, 1456, 904, 4000, 2059, 1029, 2448, 2245, 1335, 1224, 2670, 829]	8	Present	NA	NA	PRESENT	0.3996450901031494	79.50093793869019	81.51351594924927	82.09712100028992	82.44705486297607	85.61663603782654	4.1031200885772705	[79.50685596466064, 79.6237280368805, 80.60832500457764, 80.77505302429199, 81.54246997833252, 81.64251208305359, 81.75941300392151, 81.87604904174805, 81.99301886558533, 82.10969400405884, 82.22662496566772, 82.34326004981995, 82.45994591712952, 82.57685708999634, 82.6938259601593, 82.8105399608612, 82.9271719455719, 83.04414892196655, 83.16071391105652, 83.27765607833862, 83.39435696601868, 83.61663699150085]	[79.51276762034078, 79.62943428700744, 80.61243428700745, 80.77913428700745, 81.52913428700745, 81.64580095367411, 81.76246762034077, 81.87913428700743, 81.99580095367409, 82.11246762034075, 82.22913428700741, 82.34580095367407, 82.46246762034073, 82.57913428700739, 82.69580095367405, 82.81246762034071, 82.92913428700737, 83.04580095367403, 83.16246762034069, 83.27913428700735, 83.39580095367401, 83.62913428700735]	2021_Feb_05_1728	59.94954540841778	1	1
26	15	FALSE	NV	v	['E', 'V', 'T', 'G', 'Z', 'S', 'C', 'N', 'W', 'H', 'M', 'X', 'B', 'P', 'R', 'J']	[904, 2245, 1888, 944, 2911, 1731, 829, 1335, 2448, 986, 1224, 4000, 760, 1456, 1587, 1029]	12	Present	NA	NA	PRESENT	0.2759511470794678	85.6241819858551	87.62973380088806	88.6803069114685	89.03004097938538	91.73300290107728	4.103269100189209	[85.63010096549988, 85.74695086479187, 86.73138189315796, 86.89823889732361, 87.64896988868713, 87.76571297645569, 87.88268494606018, 87.99938797950745, 88.11619400978088, 88.23307490348816, 88.3496720790863, 88.46660089492798, 88.58320093154907, 88.70008993148804, 88.8169379234314, 88.93369889259338, 89.05039095878601, 89.1672670841217, 89.28401303291321, 89.40065503120422, 89.51761507987976, 89.73300385475159]	[85.62913428700735, 85.745800953674, 86.72880095367401, 86.89550095367402, 87.64550095367402, 87.76216762034068, 87.87883428700734, 87.995500953674, 88.11216762034066, 88.22883428700732, 88.34550095367398, 88.46216762034064, 88.5788342870073, 88.69550095367396, 88.81216762034062, 88.92883428700728, 89.04550095367394, 89.1621676203406, 89.27883428700726, 89.39550095367392, 89.51216762034058, 89.74550095367391]	2021_Feb_05_1728	59.94954540841778	1	1
26	16	FALSE	NA	v	['W', 'Y', 'C', 'N', 'R', 'B', 'G', 'M', 'E', 'X', 'K', 'J', 'Z', 'T', 'S', 'P']	[2448, 2670, 829, 1335, 1587, 760, 944, 1224, 904, 4000, 1122, 1029, 2911, 1888, 1731, 1456]	10	Present	NA	NA	PRESENT	0.29743289947509766	91.74772596359252	93.74628186225893	94.56312799453735	94.9129638671875	97.84937000274658	4.103088140487671	[91.75364589691162, 91.8701319694519, 92.83758807182312, 93.00446105003357, 93.77208495140076, 93.88902592658997, 94.00560808181763, 94.12253308296204, 94.23955702781677, 94.3560619354248, 94.47292804718018, 94.58981108665466, 94.70632696151733, 94.82319402694702, 94.94014286994934, 95.05673408508301, 95.17366003990173, 95.27351498603821, 95.39033198356628, 95.5071930885315, 95.62398886680603, 95.84936904907227]	[91.74550095367391, 91.86216762034057, 92.84516762034058, 93.01186762034058, 93.76186762034058, 93.87853428700724, 93.9952009536739, 94.11186762034056, 94.22853428700722, 94.34520095367388, 94.46186762034054, 94.5785342870072, 94.69520095367386, 94.81186762034052, 94.92853428700718, 95.04520095367384, 95.1618676203405, 95.27853428700716, 95.39520095367382, 95.51186762034048, 95.62853428700714, 95.86186762034048]	2021_Feb_05_1728	59.94954540841778	1	1
26	17	FALSE	AA	v	['Z', 'A', 'S', 'V', 'P', 'M', 'B', 'surprise', 'W', 'N', 'X', 'U', 'R', 'K', 'Y', 'E']	[2911, 697, 1731, 2245, 1456, 1224, 760, 'stimAuditory/all_stimAuditory/110.wav', 2448, 1335, 4000, 2059, 1587, 1122, 2670, 904]	11	Present	stimAuditory/all_stimAuditory/110.wav	stimVisual/all_stimVisual/0.jpg	PRESENT	0.6378579139709473	97.85373091697691	99.86279487609865	100.79653596878052	101.14622688293456	103.96573686599731	4.102941989898682	[97.8596498966217, 97.97656989097595, 98.96100401878357, 99.12779188156128, 99.87857007980347, 99.99525785446167, 100.11202788352966, 100.22897005081177, 100.34562706947327, 100.46268105506897, 100.57934904098511, 100.71297597885132, 100.81287002563477, 100.92975187301636, 101.04656386375427, 101.16317200660706, 101.28010106086731, 101.39724898338318, 101.51372003555298, 101.63048005104065, 101.7473669052124, 101.96573495864868]	[97.86186762034048, 97.97853428700714, 98.96153428700714, 99.12823428700715, 99.87823428700715, 99.9949009536738, 100.11156762034047, 100.22823428700713, 100.34490095367379, 100.46156762034045, 100.5782342870071, 100.69490095367377, 100.81156762034043, 100.92823428700709, 101.04490095367375, 101.1615676203404, 101.27823428700707, 101.39490095367373, 101.51156762034039, 101.62823428700705, 101.7449009536737, 101.97823428700704]	2021_Feb_05_1728	59.94954540841778	1	1
26	18	FALSE	NN	v	['M', 'V', 'Z', 'N', 'T', 'J', 'K', 'S', 'U', 'H', 'B', 'E', 'P', 'G', 'A', 'R']	[1224, 2245, 2911, 1335, 1888, 1029, 1122, 1731, 2059, 986, 760, 904, 1456, 944, 697, 1587]	14	Absent	NA	NA	ABSENT	0.3712980747222901	103.9771249294281	105.97899889945984	107.2625470161438	107.61269998550416	110.08210396766664	4.103105068206787	[103.98305606842041, 104.09981989860535, 105.0842969417572, 105.25086903572083, 106.00177788734436, 106.11857199668884, 106.23537087440491, 106.35207200050354, 106.46888709068298, 106.58582091331482, 106.70254707336426, 106.81915497779846, 106.93616700172424, 107.05305600166321, 107.16974401473999, 107.2864339351654, 107.40317106246948, 107.51997089385986, 107.63692498207092, 107.75348496437073, 107.85359191894531, 108.08210301399231]	[103.97823428700704, 104.0949009536737, 105.0779009536737, 105.24460095367371, 105.99460095367371, 106.11126762034037, 106.22793428700703, 106.34460095367369, 106.46126762034035, 106.57793428700701, 106.69460095367367, 106.81126762034033, 106.92793428700699, 107.04460095367365, 107.16126762034031, 107.27793428700697, 107.39460095367363, 107.51126762034029, 107.62793428700695, 107.74460095367361, 107.86126762034027, 108.0946009536736]	2021_Feb_05_1728	59.94954540841778	1	1
26	19	FALSE	NA	v	['S', 'R', 'U', 'V', 'Y', 'H', 'N', 'W', 'X', 'P', 'T', 'G', 'K', 'C', 'M', 'E']	[1731, 1587, 2059, 2245, 2670, 986, 1335, 2448, 4000, 1456, 1888, 944, 1122, 829, 1224, 904]	9	Present	NA	NA	PRESENT	0.2958338260650635	110.08339285850523	112.09527397155762	112.79553294181824	113.14578294754028	116.19846987724304	4.103195905685425	[110.0893120765686, 110.20615005493164, 111.19071102142334, 111.35776495933533, 112.12494397163391, 112.22506403923035, 112.34167003631592, 112.4586250782013, 112.57543587684631, 112.69231796264648, 112.80891585350037, 112.92597389221191, 113.04249596595764, 113.15949296951294, 113.2760820388794, 113.39293789863586, 113.50964498519897, 113.62649989128113, 113.74317502975464, 113.86025500297546, 113.97699189186096, 114.19846892356873]	[110.0946009536736, 110.21126762034027, 111.19426762034027, 111.36096762034028, 112.11096762034028, 112.22763428700694, 112.3443009536736, 112.46096762034026, 112.57763428700692, 112.69430095367358, 112.81096762034024, 112.9276342870069, 113.04430095367356, 113.16096762034022, 113.27763428700688, 113.39430095367354, 113.5109676203402, 113.62763428700686, 113.74430095367352, 113.86096762034018, 113.97763428700684, 114.21096762034017]	2021_Feb_05_1728	59.94954540841778	1	1
26	20	FALSE	NA	v	['B', 'N', 'J', 'E', 'W', 'T', 'K', 'X', 'V', 'Y', 'C', 'R', 'A', 'H', 'G', 'Z']	[760, 1335, 1029, 904, 2448, 1888, 1122, 4000, 2245, 2670, 829, 1587, 697, 986, 944, 2911]	8	Present	NA	NA	PRESENT	0.2602829933166504	116.2067608833313	118.21151685714722	118.79510688781738	119.14537692070007	122.31483697891235	4.103320121765137	[116.21267986297607, 116.32960391044617, 117.31387686729431, 117.48046803474426, 118.23137402534485, 118.34815502166748, 118.46500301361084, 118.58193588256836, 118.69860696792603, 118.8154079914093, 118.93211889266968, 119.04900193214417, 119.1658148765564, 119.28258109092712, 119.39944291114807, 119.51619291305542, 119.63302707672119, 119.74957299232483, 119.86647200584412, 119.98329997062683, 120.10001993179321, 120.31483602523804]	[116.21096762034017, 116.32763428700683, 117.31063428700683, 117.47733428700684, 118.22733428700684, 118.3440009536735, 118.46066762034016, 118.57733428700682, 118.69400095367348, 118.81066762034014, 118.9273342870068, 119.04400095367346, 119.16066762034012, 119.27733428700678, 119.39400095367344, 119.5106676203401, 119.62733428700676, 119.74400095367342, 119.86066762034008, 119.97733428700674, 120.0940009536734, 120.32733428700674]	2021_Feb_05_1728	59.94954540841778	1	1
26	21	FALSE	NV	v	['U', 'Y', 'T', 'H', 'C', 'B', 'S', 'X', 'G', 'W', 'E', 'A', 'V', 'R', 'N', 'M']	[2059, 2670, 1888, 986, 829, 760, 1731, 4000, 944, 2448, 904, 697, 2245, 1587, 1335, 1224]	8	Present	NA	NA	PRESENT	0.42545199394226074	122.33045482635498	124.32790088653564	124.91217589378356	125.26156783103944	128.43120288848877	4.103302001953125	[122.33637404441833, 122.45245099067688, 123.42017102241516, 123.58700585365295, 124.35452508926392, 124.47126889228821, 124.5883219242096, 124.70483589172363, 124.82160305976868, 124.93867897987366, 125.03847694396973, 125.17219686508179, 125.27207493782043, 125.38885688781738, 125.50571799278259, 125.62251305580139, 125.73921608924866, 125.85601496696472, 125.97280502319336, 126.08963704109192, 126.20651388168335, 126.43120193481445]	[122.32733428700674, 122.4440009536734, 123.4270009536734, 123.5937009536734, 124.3437009536734, 124.46036762034007, 124.57703428700673, 124.69370095367339, 124.81036762034005, 124.9270342870067, 125.04370095367337, 125.16036762034003, 125.27703428700669, 125.39370095367335, 125.51036762034, 125.62703428700667, 125.74370095367333, 125.86036762033999, 125.97703428700665, 126.0937009536733, 126.21036762033997, 126.4437009536733]	2021_Feb_05_1728	59.94954540841778	1	1
26	22	FALSE	VV	v	['V', 'H', 'M', 'K', 'T', 'N', 'surprise', 'U', 'J', 'X', 'S', 'R', 'C', 'A', 'B', 'E']	[2245, 986, 1224, 1122, 1888, 1335, 'stimAuditory/all_stimAuditory/119.wav', 2059, 1029, 4000, 1731, 1587, 829, 697, 760, 904]	10	Present	NA	stimVisual/all_stimVisual/219.jpg	ABSENT	0.6862120628356934	128.43621397018433	130.44457483291626	131.26144099235535	131.61150097846985	134.54756999015808	4.102995157241821	[128.4421329498291, 128.55899095535278, 129.54345703125, 129.71024990081787, 130.46093201637268, 130.5779938697815, 130.69468688964844, 130.81151294708252, 130.9281690120697, 131.04487895965576, 131.17871594429016, 131.27856588363647, 131.39574098587036, 131.51215386390686, 131.62909293174744, 131.74595499038696, 131.86269307136536, 131.97946906089783, 132.0961458683014, 132.21279096603394, 132.32982301712036, 132.54756903648376]	[128.4437009536733, 128.56036762033997, 129.54336762033998, 129.71006762033997, 130.46006762033997, 130.57673428700664, 130.69340095367332, 130.81006762034, 130.92673428700667, 131.04340095367334, 131.16006762034002, 131.2767342870067, 131.39340095367336, 131.51006762034004, 131.6267342870067, 131.7434009536734, 131.86006762034006, 131.97673428700674, 132.0934009536734, 132.21006762034008, 132.32673428700676, 132.56006762034008]	2021_Feb_05_1728	59.94954540841778	1	1
26	23	FALSE	NN	v	['K', 'E', 'C', 'H', 'T', 'N', 'M', 'G', 'S', 'P', 'V', 'Y', 'W', 'Z', 'B', 'A']	[1122, 904, 829, 986, 1888, 1335, 1224, 944, 1731, 1456, 2245, 2670, 2448, 2911, 760, 697]	14	Absent	NA	NA	ABSENT	0.8434710502624512	134.55946588516235	136.5608139038086	137.84429478645325	138.19439387321472	140.6639368534088	4.10312294960022	[134.56539702415466, 134.68215990066528, 135.66679286956787, 135.83354806900024, 136.584233045578, 136.70114493370056, 136.81791400909424, 136.93471789360046, 137.05153799057007, 137.16829586029053, 137.28510808944702, 137.40180587768555, 137.5184030532837, 137.6354169845581, 137.75231504440308, 137.86905193328857, 137.9856128692627, 138.10243701934814, 138.21930599212646, 138.3360869884491, 138.43614292144775, 138.6639358997345]	[134.56006762034008, 134.67673428700675, 135.65973428700676, 135.82643428700675, 136.57643428700675, 136.69310095367342, 136.8097676203401, 136.92643428700677, 137.04310095367345, 137.15976762034012, 137.2764342870068, 137.39310095367347, 137.50976762034014, 137.62643428700682, 137.7431009536735, 137.85976762034016, 137.97643428700684, 138.0931009536735, 138.2097676203402, 138.32643428700686, 138.44310095367354, 138.67643428700686]	2021_Feb_05_1728	59.94954540841778	1	1
26	24	FALSE	NA	v	['J', 'G', 'Z', 'A', 'U', 'B', 'M', 'R', 'N', 'C', 'V', 'E', 'X', 'W', 'S', 'K']	[1029, 944, 2911, 697, 2059, 760, 1224, 1587, 1335, 829, 2245, 904, 4000, 2448, 1731, 1122]	13	Present	NA	NA	PRESENT	0.4560408592224121	140.66610980033877	142.67696690559387	143.84407782554626	144.19416880607605	146.78030395507812	4.103337049484253	[140.6720290184021, 140.78868007659912, 141.77315998077393, 141.94009399414062, 142.69054293632507, 142.80763006210327, 142.9241919517517, 143.04113006591797, 143.1578049659729, 143.27473187446594, 143.3914189338684, 143.50831389427185, 143.62493801116943, 143.74189400672913, 143.8587350845337, 143.97553396224976, 144.09218192100525, 144.20910906791687, 144.32575798034668, 144.44239807128906, 144.55940294265747, 144.78030395507812]	[140.67643428700686, 140.79310095367353, 141.77610095367353, 141.94280095367353, 142.69280095367353, 142.8094676203402, 142.92613428700687, 143.04280095367355, 143.15946762034022, 143.2761342870069, 143.39280095367357, 143.50946762034025, 143.62613428700692, 143.7428009536736, 143.85946762034027, 143.97613428700694, 144.09280095367362, 144.2094676203403, 144.32613428700697, 144.44280095367364, 144.5594676203403, 144.79280095367363]	2021_Feb_05_1728	59.94954540841778	1	1
26	25	FALSE	NV	v	['J', 'M', 'B', 'T', 'Z', 'C', 'V', 'R', 'E', 'P', 'X', 'K', 'S', 'W', 'Y', 'U']	[1029, 1224, 760, 1888, 2911, 829, 2245, 1587, 904, 1456, 4000, 1122, 1731, 2448, 2670, 2059]	11	Present	NA	NA	PRESENT	0.3008110523223877	146.78901386260986	148.79333400726318	149.72715282440186	150.07722878456116	152.89666986465454	4.103335857391357	[146.79493308067322, 146.91200304031372, 147.89640402793884, 148.0632119178772, 148.81379103660583, 148.9304859638214, 149.04742097854614, 149.16432905197144, 149.28095293045044, 149.39790201187134, 149.514643907547, 149.63129687309265, 149.74829387664795, 149.86509704589844, 149.98192596435547, 150.09870505332947, 150.2155430316925, 150.33235907554626, 150.44911694526672, 150.5657250881195, 150.68239402770996, 150.8966679573059]	[146.79280095367363, 146.9094676203403, 147.8924676203403, 148.0591676203403, 148.8091676203403, 148.92583428700698, 149.04250095367365, 149.15916762034033, 149.275834287007, 149.39250095367368, 149.50916762034035, 149.62583428700702, 149.7425009536737, 149.85916762034037, 149.97583428700705, 150.09250095367372, 150.2091676203404, 150.32583428700707, 150.44250095367374, 150.55916762034042, 150.6758342870071, 150.9091676203404]	2021_Feb_05_1728	59.94954540841778	1	1
26	26	FALSE	NV	v	['Y', 'C', 'J', 'A', 'B', 'U', 'H', 'K', 'X', 'G', 'V', 'S', 'R', 'P', 'T', 'Z']	[2670, 829, 1029, 697, 760, 2059, 986, 1122, 4000, 944, 2245, 1731, 1587, 1456, 1888, 2911]	9	Present	NA	NA	PRESENT	0.5621669292449951	152.9126479625702	154.9100739955902	155.61016988754272	155.96020793914795	159.01303696632385	4.102962970733643	[152.91856694221497, 153.0181679725647, 154.0028109550476, 154.16965508460999, 154.9370138645172, 155.03701496124268, 155.15378093719482, 155.27056288719177, 155.38739895820618, 155.50420308113098, 155.62097001075745, 155.754625082016, 155.85463905334473, 155.97138094902039, 156.08820390701294, 156.20497393608093, 156.32178902626038, 156.43878197669983, 156.5554358959198, 156.67209100723267, 156.78910303115845, 157.01303601264954]	[152.9091676203404, 153.0258342870071, 154.0088342870071, 154.17553428700708, 154.92553428700708, 155.04220095367376, 155.15886762034043, 155.2755342870071, 155.39220095367378, 155.50886762034045, 155.62553428700713, 155.7422009536738, 155.85886762034048, 155.97553428700715, 156.09220095367382, 156.2088676203405, 156.32553428700717, 156.44220095367385, 156.55886762034052, 156.6755342870072, 156.79220095367387, 157.0255342870072]	2021_Feb_05_1728	59.94954540841778	1	1
26	27	FALSE	NV	v	['N', 'T', 'C', 'R', 'H', 'J', 'Y', 'G', 'E', 'A', 'V', 'Z', 'S', 'X', 'P', 'M']	[1335, 1888, 829, 1587, 986, 1029, 2670, 944, 904, 697, 2245, 2911, 1731, 4000, 1456, 1224]	14	Present	NA	NA	PRESENT	0.34246301651000977	159.01891493797302	161.02620482444763	162.3097620010376	162.66006779670715	165.12940287590027	4.103198051452637	[159.0248339176178, 159.14161086082458, 160.12596607208252, 160.29285407066345, 161.0434799194336, 161.16045689582825, 161.27708792686462, 161.39401006698608, 161.51067399978638, 161.62764191627502, 161.74433708190918, 161.8612859249115, 161.977942943573, 162.09452295303345, 162.21145105361938, 162.32817888259888, 162.44539308547974, 162.56190991401672, 162.6787450313568, 162.79533004760742, 162.91225004196167, 163.12940287590027]	[159.0255342870072, 159.14220095367386, 160.12520095367387, 160.29190095367386, 161.04190095367386, 161.15856762034053, 161.2752342870072, 161.39190095367388, 161.50856762034056, 161.62523428700723, 161.7419009536739, 161.85856762034058, 161.97523428700725, 162.09190095367393, 162.2085676203406, 162.32523428700728, 162.44190095367395, 162.55856762034063, 162.6752342870073, 162.79190095367397, 162.90856762034065, 163.14190095367397]	2021_Feb_05_1728	59.94954540841778	1	1
26	28	FALSE	NN	v	['U', 'V', 'R', 'G', 'P', 'H', 'S', 'T', 'C', 'A', 'Y', 'B', 'J', 'M', 'N', 'E']	[2059, 2245, 1587, 944, 1456, 986, 1731, 1888, 829, 697, 2670, 760, 1029, 1224, 1335, 904]	14	Absent	NA	NA	ABSENT	0.31564903259277344	165.14207983016968	167.14264178276062	168.4266288280487	168.77611088752747	171.24576997756958	4.10312819480896	[165.14801692962646, 165.26456308364868, 166.24904990196228, 166.41586804389954, 167.16676497459412, 167.2834050655365, 167.40028595924377, 167.51690292358398, 167.63387203216553, 167.75077199935913, 167.86757493019104, 167.98428392410278, 168.10106992721558, 168.217915058136, 168.33459305763245, 168.45151901245117, 168.56815004348755, 168.68520402908325, 168.8019359111786, 168.91864705085754, 169.01871490478516, 169.24576997756958]	[165.14190095367397, 165.25856762034064, 166.24156762034065, 166.40826762034064, 167.15826762034064, 167.2749342870073, 167.391600953674, 167.50826762034066, 167.62493428700733, 167.741600953674, 167.85826762034068, 167.97493428700736, 168.09160095367403, 168.2082676203407, 168.32493428700738, 168.44160095367405, 168.55826762034073, 168.6749342870074, 168.79160095367408, 168.90826762034075, 169.02493428700743, 169.25826762034075]	2021_Feb_05_1728	59.94954540841778	1	1
26	29	FALSE	NA	v	['R', 'V', 'G', 'N', 'M', 'Y', 'C', 'X', 'T', 'J', 'S', 'Z', 'E', 'W', 'A', 'U']	[1587, 2245, 944, 1335, 1224, 2670, 829, 4000, 1888, 1029, 1731, 2911, 904, 2448, 697, 2059]	8	Present	NA	NA	PRESENT	0.29614901542663574	171.24852681159973	173.2590057849884	173.84254384040833	174.19258093833923	177.3621370792389	4.103131294250488	[171.2544460296631, 171.3713240623474, 172.35600399971008, 172.52250790596008, 173.27299904823303, 173.39008688926697, 173.50673508644104, 173.62353897094727, 173.74026107788086, 173.8571639060974, 173.97381496429443, 174.09081101417542, 174.20741486549377, 174.3244218826294, 174.44120693206787, 174.5578260421753, 174.67485189437866, 174.79144597053528, 174.90825700759888, 175.02504301071167, 175.14201188087463, 175.362135887146]	[171.25826762034075, 171.37493428700742, 172.35793428700742, 172.52463428700742, 173.27463428700742, 173.3913009536741, 173.50796762034076, 173.62463428700744, 173.7413009536741, 173.8579676203408, 173.97463428700746, 174.09130095367414, 174.2079676203408, 174.32463428700748, 174.44130095367416, 174.55796762034083, 174.6746342870075, 174.79130095367418, 174.90796762034086, 175.02463428700753, 175.1413009536742, 175.37463428700752]	2021_Feb_05_1728	59.94954540841778	1	1
26	30	FALSE	VA	v	['V', 'B', 'U', 'Z', 'K', 'P', 'S', 'E', 'surprise', 'N', 'Y', 'X', 'G', 'H', 'R', 'J']	[2245, 760, 2059, 2911, 1122, 1456, 1731, 904, 'stimAuditory/all_stimAuditory/102.wav', 1335, 2670, 4000, 944, 986, 1587, 1029]	12	Present	NA	stimVisual/all_stimVisual/108.jpg	PRESENT	0.3569340705871582	177.37147879600525	179.37509083747864	180.42563891410828	180.7756609916687	183.4785029888153	4.10341215133667	[177.3773980140686, 177.4942638874054, 178.47889399528503, 178.64559197425842, 179.3963119983673, 179.51322889328003, 179.6299250125885, 179.7466070652008, 179.86360502243042, 179.9804048538208, 180.09721398353577, 180.21401405334473, 180.33062100410461, 180.44749689102173, 180.56434106826782, 180.681086063385, 180.797954082489, 180.91477394104004, 181.03135585784912, 181.14843606948853, 181.26513695716858, 181.4785029888153]	[177.37463428700752, 177.4913009536742, 178.4743009536742, 178.6410009536742, 179.3910009536742, 179.50766762034087, 179.62433428700754, 179.74100095367422, 179.8576676203409, 179.97433428700757, 180.09100095367424, 180.2076676203409, 180.3243342870076, 180.44100095367426, 180.55766762034094, 180.6743342870076, 180.79100095367428, 180.90766762034096, 181.02433428700763, 181.1410009536743, 181.25766762034098, 181.4910009536743]	2021_Feb_05_1728	59.94954540841778	1	1
26	31	FALSE	NA	v	['V', 'R', 'T', 'S', 'M', 'P', 'C', 'B', 'G', 'Z', 'E', 'J', 'H', 'X', 'Y', 'A']	[2245, 1587, 1888, 1731, 1224, 1456, 829, 760, 944, 2911, 904, 1029, 986, 4000, 2670, 697]	14	Present	NA	NA	PRESENT	0.3141000270843506	183.47827696800232	185.4916889667511	186.77531099319455	187.12538385391235	189.59487009048465	4.1031811237335205	[183.4841959476471, 183.6006999015808, 184.58513808250427, 184.75197005271912, 185.5196750164032, 185.6194908618927, 185.73627495765686, 185.8531289100647, 185.9698429107666, 186.08670091629028, 186.20346093177795, 186.32021498680115, 186.43715286254883, 186.55384492874146, 186.67066597938538, 186.787437915802, 186.90434503555298, 187.0210440158844, 187.1379270553589, 187.25484991073608, 187.3716058731079, 187.59486889839172]	[183.4910009536743, 183.60766762034098, 184.59066762034098, 184.75736762034097, 185.50736762034097, 185.62403428700765, 185.74070095367432, 185.857367620341, 185.97403428700767, 186.09070095367434, 186.20736762034102, 186.3240342870077, 186.44070095367437, 186.55736762034104, 186.67403428700771, 186.7907009536744, 186.90736762034106, 187.02403428700774, 187.1407009536744, 187.25736762034109, 187.37403428700776, 187.60736762034108]	2021_Feb_05_1728	59.94954540841778	1	1
26	32	FALSE	NA	v	['C', 'Z', 'V', 'Y', 'S', 'M', 'J', 'A', 'U', 'P', 'K', 'H', 'W', 'X', 'G', 'B']	[829, 2911, 2245, 2670, 1731, 1224, 1029, 697, 2059, 1456, 1122, 986, 2448, 4000, 944, 760]	14	Present	NA	NA	PRESENT	1.006443977355957	189.60124278068545	191.60822296142575	192.892098903656	193.24155187606812	195.71123695373535	4.10301399230957	[189.6071629524231, 189.72407698631287, 190.7085039615631, 190.87511587142944, 191.62600994110107, 191.74299693107605, 191.85960602760315, 191.97630786895752, 192.09317088127136, 192.21002388000488, 192.32679390907288, 192.4434049129486, 192.56049990653992, 192.67704391479492, 192.79402494430542, 192.91075086593628, 193.0275580883026, 193.14419794082642, 193.26124787330627, 193.3781988620758, 193.49478602409363, 193.71123600006104]	[189.60736762034108, 189.72403428700775, 190.70703428700776, 190.87373428700775, 191.62373428700775, 191.74040095367442, 191.8570676203411, 191.97373428700777, 192.09040095367445, 192.20706762034112, 192.3237342870078, 192.44040095367447, 192.55706762034114, 192.67373428700782, 192.7904009536745, 192.90706762034117, 193.02373428700784, 193.14040095367451, 193.2570676203412, 193.37373428700786, 193.49040095367454, 193.72373428700786]	2021_Feb_05_1728	59.94954540841778	1	1
26	33	FALSE	NN	v	['E', 'U', 'M', 'B', 'G', 'V', 'N', 'Y', 'C', 'J', 'A', 'P', 'K', 'R', 'T', 'W']	[904, 2059, 1224, 760, 944, 2245, 1335, 2670, 829, 1029, 697, 1456, 1122, 1587, 1888, 2448]	10	Absent	NA	NA	ABSENT	0.7878880500793457	195.7246618270874	197.7243819236755	198.5414309501648	198.89143681526184	201.82760190963745	4.103219985961914	[195.73058199882507, 195.84709000587463, 196.8314778804779, 196.9984838962555, 197.74949598312378, 197.8660008907318, 197.98285698890686, 198.0996129512787, 198.2163999080658, 198.3330099582672, 198.45005989074707, 198.5667290687561, 198.68360996246338, 198.80028796195984, 198.91720390319824, 199.03379487991333, 199.15063285827637, 199.26767802238464, 199.3841359615326, 199.50120496749878, 199.60112285614014, 199.82760190963745]	[195.72373428700786, 195.84040095367453, 196.82340095367454, 196.99010095367453, 197.74010095367453, 197.8567676203412, 197.97343428700788, 198.09010095367455, 198.20676762034122, 198.3234342870079, 198.44010095367457, 198.55676762034125, 198.67343428700792, 198.7901009536746, 198.90676762034127, 199.02343428700794, 199.14010095367462, 199.2567676203413, 199.37343428700797, 199.49010095367464, 199.60676762034132, 199.84010095367464]	2021_Feb_05_1728	59.94954540841778	1	1
26	34	FALSE	NV	v	['V', 'P', 'W', 'U', 'G', 'E', 'B', 'N', 'S', 'C', 'J', 'X', 'T', 'M', 'H', 'Z']	[2245, 1456, 2448, 2059, 944, 904, 760, 1335, 1731, 829, 1029, 4000, 1888, 1224, 986, 2911]	12	Present	NA	NA	PRESENT	0.26454591751098633	201.83083391189575	203.84064483642575	204.89105582237244	205.24108290672305	207.94396996498108	4.103325128555298	[201.83675408363342, 201.95369005203247, 202.9381639957428, 203.1049919128418, 203.85579800605774, 203.97257590293884, 204.08929800987244, 204.20610189437866, 204.32289099693298, 204.43969702720642, 204.5564489364624, 204.67327690124512, 204.79005002975464, 204.90690398216248, 205.0236189365387, 205.14032196998596, 205.25721192359924, 205.37386989593506, 205.49080300331116, 205.60761499404907, 205.72429990768433, 205.94396901130676]	[201.84010095367464, 201.9567676203413, 202.9397676203413, 203.1064676203413, 203.8564676203413, 203.97313428700798, 204.08980095367465, 204.20646762034133, 204.323134287008, 204.43980095367468, 204.55646762034135, 204.67313428700803, 204.7898009536747, 204.90646762034137, 205.02313428700805, 205.13980095367472, 205.2564676203414, 205.37313428700807, 205.48980095367475, 205.60646762034142, 205.7231342870081, 205.9564676203414]	2021_Feb_05_1728	59.94954540841778	1	1
26	35	FALSE	NN	v	['W', 'V', 'J', 'Y', 'H', 'M', 'A', 'C', 'E', 'R', 'K', 'U', 'G', 'P', 'N', 'B']	[2448, 2245, 1029, 2670, 986, 1224, 697, 829, 904, 1587, 1122, 2059, 944, 1456, 1335, 760]	12	Absent	NA	NA	PRESENT	0.27695703506469727	207.95419883728027	209.9572730064392	211.0075647830963	211.35735988616943	214.0603370666504	4.103064060211182	[207.96011805534363, 208.07702088356018, 209.0613329410553, 209.22817397117615, 209.9788839817047, 210.0958149433136, 210.21265387535095, 210.32915091514587, 210.44613003730774, 210.56283807754517, 210.6795289516449, 210.79655003547668, 210.9131760597229, 211.0300419330597, 211.14683389663696, 211.26349997520447, 211.38023805618286, 211.49713587760925, 211.61399006843567, 211.7308099269867, 211.8474760055542, 212.0603358745575]	[207.9564676203414, 208.0731342870081, 209.0561342870081, 209.22283428700808, 209.97283428700808, 210.08950095367476, 210.20616762034143, 210.3228342870081, 210.43950095367478, 210.55616762034145, 210.67283428700813, 210.7895009536748, 210.90616762034148, 211.02283428700815, 211.13950095367483, 211.2561676203415, 211.37283428700817, 211.48950095367485, 211.60616762034152, 211.7228342870082, 211.83950095367487, 212.0728342870082]	2021_Feb_05_1728	59.94954540841778	1	1
26	36	FALSE	NN	v	['R', 'G', 'S', 'U', 'C', 'T', 'P', 'B', 'A', 'Z', 'M', 'H', 'E', 'V', 'K', 'W']	[1587, 944, 1731, 2059, 829, 1888, 1456, 760, 697, 2911, 1224, 986, 904, 2245, 1122, 2448]	11	Absent	NA	NA	ABSENT	0.29018187522888184	214.060791015625	216.07346200942993	217.00703501701355	217.35699892044067	220.1767029762268	4.103240966796875	[214.06670999526978, 214.18320202827454, 215.16773104667664, 215.33435702323914, 216.10203099250793, 216.20209193229675, 216.31889986991882, 216.43567991256714, 216.55252695083618, 216.66913294792175, 216.78600907325745, 216.90287590026855, 217.0195870399475, 217.13630294799805, 217.25328397750854, 217.37018704414368, 217.4868679046631, 217.60367107391357, 217.72045493125916, 217.83724689483643, 217.95392298698425, 218.1767020225525]	[214.0728342870082, 214.18950095367487, 215.17250095367487, 215.33920095367486, 216.08920095367486, 216.20586762034154, 216.3225342870082, 216.43920095367488, 216.55586762034156, 216.67253428700823, 216.7892009536749, 216.90586762034158, 217.02253428700826, 217.13920095367493, 217.2558676203416, 217.37253428700828, 217.48920095367495, 217.60586762034163, 217.7225342870083, 217.83920095367498, 217.95586762034165, 218.18920095367497]	2021_Feb_05_1728	59.94954540841778	1	1
26	37	FALSE	AA	v	['P', 'G', 'H', 'S', 'E', 'W', 'surprise', 'J', 'V', 'X', 'U', 'Z', 'N', 'C', 'T', 'Y']	[1456, 944, 986, 1731, 904, 2448, 'stimAuditory/all_stimAuditory/115.wav', 1029, 2245, 4000, 2059, 2911, 1335, 829, 1888, 2670]	10	Present	stimAuditory/all_stimAuditory/119.wav	stimVisual/all_stimVisual/212.jpg	PRESENT	0.24688386917114255	220.18393993377688	222.1899118423462	223.0070009231567	223.3567249774933	226.29307007789612	4.103158235549927	[220.18987107276917, 220.30667686462402, 221.29101991653442, 221.4577009677887, 222.2084128856659, 222.32533597946167, 222.44213104248047, 222.55879497528076, 222.6757938861847, 222.79258799552917, 222.92590403556824, 223.02611589431763, 223.14269590377808, 223.25955200195312, 223.37651896476746, 223.49313187599182, 223.6100869178772, 223.72676992416382, 223.84374499320984, 223.9603660106659, 224.07726907730103, 224.29306888580322]	[220.18920095367497, 220.30586762034164, 221.28886762034165, 221.45556762034164, 222.20556762034164, 222.3222342870083, 222.438900953675, 222.55556762034166, 222.67223428700834, 222.788900953675, 222.90556762034169, 223.02223428700836, 223.13890095367503, 223.2555676203417, 223.37223428700838, 223.48890095367506, 223.60556762034173, 223.7222342870084, 223.83890095367508, 223.95556762034175, 224.07223428700843, 224.30556762034175]	2021_Feb_05_1728	59.94954540841778	1	1
26	38	FALSE	NA	v	['P', 'R', 'H', 'K', 'U', 'G', 'Y', 'A', 'C', 'T', 'E', 'N', 'V', 'X', 'Z', 'B']	[1456, 1587, 986, 1122, 2059, 944, 2670, 697, 829, 1888, 904, 1335, 2245, 4000, 2911, 760]	14	Present	NA	NA	PRESENT	1.356060028076172	226.3070719242096	228.30605387687683	229.5899999141693	229.9397850036621	232.40943598747253	4.103382110595703	[226.31299090385437, 226.42962789535522, 227.41408586502075, 227.563973903656, 228.33167505264282, 228.44858193397522, 228.56544995307922, 228.6820719242096, 228.7988269329071, 228.9156129360199, 229.03242802619934, 229.1492440700531, 229.26582503318787, 229.38284492492676, 229.49965405464172, 229.61657786369324, 229.73312497138977, 229.84982800483704, 229.96663308143616, 230.0840780735016, 230.1837809085846, 230.40943694114685]	[226.30556762034175, 226.42223428700842, 227.40523428700843, 227.57193428700842, 228.32193428700842, 228.4386009536751, 228.55526762034177, 228.67193428700844, 228.78860095367511, 228.9052676203418, 229.02193428700846, 229.13860095367514, 229.2552676203418, 229.3719342870085, 229.48860095367516, 229.60526762034183, 229.7219342870085, 229.83860095367518, 229.95526762034186, 230.07193428700853, 230.1886009536752, 230.42193428700853]	2021_Feb_05_1728	59.94954540841778	1	1
26	39	FALSE	NA	v	['J', 'Y', 'E', 'K', 'U', 'V', 'M', 'X', 'G', 'R', 'N', 'S', 'A', 'C', 'Z', 'H']	[1029, 2670, 904, 1122, 2059, 2245, 1224, 4000, 944, 1587, 1335, 1731, 697, 829, 2911, 986]	8	Present	NA	NA	PRESENT	0.36069703102111816	232.4133338928223	234.42263984680176	235.00615286827087	235.35663986206055	238.52580308914185	4.103163242340088	[232.41925287246704, 232.5363209247589, 233.52088403701782, 233.68739008903503, 234.4381148815155, 234.55508399009705, 234.671856880188, 234.78871393203735, 234.90536904335022, 235.02231693267822, 235.13901495933533, 235.2557408809662, 235.37262606620789, 235.48919200897217, 235.60599398612976, 235.72281694412231, 235.83978390693665, 235.95630502700806, 236.07330203056335, 236.19014501571655, 236.30672693252563, 236.52580308914185]	[232.42193428700853, 232.5386009536752, 233.5216009536752, 233.6883009536752, 234.4383009536752, 234.55496762034187, 234.67163428700854, 234.78830095367522, 234.9049676203419, 235.02163428700857, 235.13830095367524, 235.25496762034192, 235.3716342870086, 235.48830095367526, 235.60496762034194, 235.7216342870086, 235.8383009536753, 235.95496762034196, 236.07163428700864, 236.1883009536753, 236.30496762034198, 236.5383009536753]	2021_Feb_05_1728	59.94954540841778	1	1
26	40	FALSE	NN	v	['U', 'C', 'Z', 'P', 'T', 'N', 'R', 'B', 'V', 'Y', 'A', 'W', 'G', 'K', 'E', 'J']	[2059, 829, 2911, 1456, 1888, 1335, 1587, 760, 2245, 2670, 697, 2448, 944, 1122, 904, 1029]	11	Absent	NA	NA	ABSENT	0.5503261089324951	238.53661394119263	240.53882479667664	241.47243285179135	241.82249188423157	244.64216995239255	4.103345155715942	[238.54253387451172, 238.65945887565613, 239.64380598068237, 239.81058192253113, 240.5613238811493, 240.67827486991882, 240.7950689792633, 240.91160106658936, 241.02865600585938, 241.14543294906616, 241.2622458934784, 241.3787829875946, 241.49573493003845, 241.61244893074036, 241.72935700416565, 241.8460569381714, 241.96289992332458, 242.0795669555664, 242.1964888572693, 242.31324791908264, 242.43013095855713, 242.6421709060669]	[238.5383009536753, 238.65496762034198, 239.63796762034198, 239.80466762034197, 240.55466762034197, 240.67133428700865, 240.78800095367532, 240.904667620342, 241.02133428700867, 241.13800095367534, 241.25466762034202, 241.3713342870087, 241.48800095367537, 241.60466762034204, 241.72133428700872, 241.8380009536754, 241.95466762034206, 242.07133428700874, 242.1880009536754, 242.3046676203421, 242.42133428700876, 242.65466762034208]	2021_Feb_05_1728	59.94954540841778	1	1
26	41	FALSE	NV	v	['J', 'A', 'H', 'S', 'U', 'W', 'G', 'X', 'N', 'R', 'Z', 'B', 'K', 'T', 'C', 'Y']	[1029, 697, 986, 1731, 2059, 2448, 944, 4000, 1335, 1587, 2911, 760, 1122, 1888, 829, 2670]	8	Present	NA	NA	PRESENT	0.338623046875	244.6433229446411	246.65543293952945	247.23897981643677	247.58902192115784	250.7585370540619	4.103104114532471	[244.6492428779602, 244.76591205596924, 245.75007891654968, 245.91689896583557, 246.68457198143005, 246.78466892242432, 246.90135407447815, 247.01825499534607, 247.13492393493652, 247.25189208984375, 247.368558883667, 247.48524594306946, 247.60222601890564, 247.71878695487976, 247.83580803871155, 247.952565908432, 248.06924486160278, 248.18597602844238, 248.302983045578, 248.41974306106567, 248.5365390777588, 248.7585380077362]	[244.65466762034208, 244.77133428700876, 245.75433428700876, 245.92103428700875, 246.67103428700875, 246.78770095367543, 246.9043676203421, 247.02103428700877, 247.13770095367545, 247.25436762034212, 247.3710342870088, 247.48770095367547, 247.60436762034215, 247.72103428700882, 247.8377009536755, 247.95436762034217, 248.07103428700884, 248.18770095367552, 248.3043676203422, 248.42103428700887, 248.53770095367554, 248.77103428700886]	2021_Feb_05_1728	59.94954540841778	1	1
26	42	FALSE	NN	v	['R', 'Y', 'T', 'J', 'W', 'V', 'N', 'P', 'A', 'G', 'K', 'H', 'C', 'E', 'Z', 'B']	[1587, 2670, 1888, 1029, 2448, 2245, 1335, 1456, 697, 944, 1122, 986, 829, 904, 2911, 760]	13	Absent	NA	NA	ABSENT	0.39150500297546387	250.76619291305545	252.77179598808289	253.93867683410645	254.28859901428223	256.8749029636383	4.10310697555542	[250.7721130847931, 250.88898587226868, 251.87343907356262, 252.04029393196106, 252.79097390174866, 252.90787601470947, 253.0246410369873, 253.1414430141449, 253.25826907157898, 253.37509489059448, 253.49197602272034, 253.6084680557251, 253.72550106048584, 253.84209394454956, 253.95894289016724, 254.07567691802979, 254.19234490394592, 254.3091700077057, 254.4262409210205, 254.5428478717804, 254.6598460674286, 254.8749029636383]	[250.77103428700886, 250.88770095367553, 251.87070095367554, 252.03740095367553, 252.78740095367553, 252.9040676203422, 253.02073428700888, 253.13740095367555, 253.25406762034223, 253.3707342870089, 253.48740095367558, 253.60406762034225, 253.72073428700892, 253.8374009536756, 253.95406762034227, 254.07073428700895, 254.18740095367562, 254.3040676203423, 254.42073428700897, 254.53740095367564, 254.65406762034232, 254.88740095367564]	2021_Feb_05_1728	59.94954540841778	1	1
26	43	FALSE	AA	v	['Z', 'E', 'Y', 'C', 'U', 'N', 'M', 'K', 'W', 'surprise', 'J', 'T', 'X', 'P', 'A', 'V']	[2911, 904, 2670, 829, 2059, 1335, 1224, 1122, 2448, 'stimAuditory/all_stimAuditory/211.wav', 1029, 1888, 4000, 1456, 697, 2245]	13	Present	stimAuditory/all_stimAuditory/102.wav	stimVisual/all_stimVisual/116.jpg	PRESENT	0.35651612281799316	256.88944387435913	258.8878619670868	260.055077791214	260.40501499176025	262.9912700653076	4.103408098220825	[256.8953628540039, 257.01211285591125, 257.9796929359436, 258.14652490615845, 258.9141960144043, 259.0309998989105, 259.14792799949646, 259.26462602615356, 259.38121700286865, 259.4982740879059, 259.6147689819336, 259.7317478656769, 259.84839487075806, 259.96519207954407, 260.0824980735779, 260.198930978775, 260.29875087738037, 260.4156379699707, 260.5324330329895, 260.64922308921814, 260.7661578655243, 260.9912679195404]	[256.88740095367564, 257.0040676203423, 257.9870676203423, 258.1537676203423, 258.9037676203423, 259.020434287009, 259.13710095367566, 259.25376762034233, 259.370434287009, 259.4871009536757, 259.60376762034235, 259.720434287009, 259.8371009536757, 259.9537676203424, 260.07043428700905, 260.1871009536757, 260.3037676203424, 260.4204342870091, 260.53710095367575, 260.6537676203424, 260.7704342870091, 261.00376762034244]	2021_Feb_05_1728	59.94954540841778	1	1
26	44	FALSE	NA	v	['B', 'E', 'U', 'K', 'Z', 'W', 'G', 'X', 'J', 'P', 'H', 'C', 'R', 'S', 'N', 'A']	[760, 904, 2059, 1122, 2911, 2448, 944, 4000, 1029, 1456, 986, 829, 1587, 1731, 1335, 697]	8	Present	NA	NA	PRESENT	0.4969880580902099	262.99588680267334	265.00428795814514	265.5882329940796	265.9380929470062	269.10763692855835	4.103348970413208	[263.001806974411, 263.1187160015106, 264.1030490398407, 264.2697808742523, 265.02094292640686, 265.13754391670227, 265.25436997413635, 265.3709809780121, 265.4879939556122, 265.6045298576355, 265.72156596183777, 265.8381190299988, 265.9551520347595, 266.0718939304352, 266.1886019706726, 266.3052010536194, 266.42212891578674, 266.53884291648865, 266.6557250022888, 266.77249693870544, 266.889447927475, 267.10763692855835]	[263.00376762034244, 263.1204342870091, 264.1034342870091, 264.2701342870091, 265.0201342870091, 265.1368009536758, 265.25346762034246, 265.37013428700914, 265.4868009536758, 265.6034676203425, 265.72013428700916, 265.83680095367583, 265.9534676203425, 266.0701342870092, 266.18680095367586, 266.30346762034253, 266.4201342870092, 266.5368009536759, 266.65346762034255, 266.7701342870092, 266.8868009536759, 267.12013428700925]	2021_Feb_05_1728	59.94954540841778	1	1
26	45	FALSE	NN	v	['Y', 'K', 'J', 'H', 'T', 'C', 'V', 'M', 'A', 'N', 'R', 'U', 'W', 'E', 'G', 'P']	[2670, 1122, 1029, 986, 1888, 829, 2245, 1224, 697, 1335, 1587, 2059, 2448, 904, 944, 1456]	14	Absent	NA	NA	ABSENT	0.7104501724243164	269.11912989616394	271.1206908226013	272.40460896492004	272.7544319629669	275.22400403022766	4.103313207626343	[269.1250488758087, 269.24185705184937, 270.2262978553772, 270.3931350708008, 271.1437749862671, 271.2606039047241, 271.3773548603058, 271.494332075119, 271.6110010147095, 271.7278480529785, 271.84447503089905, 271.9614839553833, 272.0780608654022, 272.1951529979706, 272.31166791915894, 272.4286050796509, 272.54536604881287, 272.6620759963989, 272.7789840698242, 272.89582991600037, 272.9956660270691, 273.224004983902]	[269.12013428700925, 269.2368009536759, 270.21980095367593, 270.3865009536759, 271.1365009536759, 271.2531676203426, 271.36983428700927, 271.48650095367594, 271.6031676203426, 271.7198342870093, 271.83650095367597, 271.95316762034264, 272.0698342870093, 272.186500953676, 272.30316762034266, 272.41983428700934, 272.536500953676, 272.6531676203427, 272.76983428700936, 272.88650095367603, 273.0031676203427, 273.23650095367606]	2021_Feb_05_1728	59.94954540841778	1	1
26	46	FALSE	NN	v	['E', 'Z', 'B', 'R', 'T', 'C', 'G', 'P', 'M', 'U', 'Y', 'H', 'W', 'N', 'A', 'K']	[904, 2911, 760, 1587, 1888, 829, 944, 1456, 1224, 2059, 2670, 986, 2448, 1335, 697, 1122]	9	Absent	NA	NA	ABSENT	0.33091115951538086	275.2259109020233	277.2370808124542	277.9374828338623	278.28739190101624	281.3403699398041	4.1032891273498535	[275.2318298816681, 275.34818387031555, 276.3325469493866, 276.4994640350342, 277.2670500278473, 277.3671889305115, 277.48388600349426, 277.6008040904999, 277.7175769805908, 277.83432602882385, 277.95118403434753, 278.0677299499512, 278.184720993042, 278.3015089035034, 278.4182689189911, 278.53509187698364, 278.6519260406494, 278.7686779499054, 278.88539004325867, 279.0021069049835, 279.1190049648285, 279.34036898612976]	[275.23650095367606, 275.35316762034273, 276.33616762034274, 276.5028676203427, 277.2528676203427, 277.3695342870094, 277.4862009536761, 277.60286762034275, 277.7195342870094, 277.8362009536761, 277.9528676203428, 278.06953428700945, 278.1862009536761, 278.3028676203428, 278.41953428700947, 278.53620095367614, 278.6528676203428, 278.7695342870095, 278.88620095367617, 279.00286762034284, 279.1195342870095, 279.35286762034286]	2021_Feb_05_1728	59.94954540841778	1	1
26	47	FALSE	NN	v	['R', 'A', 'S', 'H', 'Z', 'Y', 'E', 'U', 'G', 'P', 'K', 'N', 'W', 'J', 'B', 'C']	[1587, 697, 1731, 986, 2911, 2670, 904, 2059, 944, 1456, 1122, 1335, 2448, 1029, 760, 829]	13	Absent	NA	NA	ABSENT	0.2555558681488037	281.34871101379395	283.3535900115967	284.52057099342346	284.8704459667206	287.4567370414734	4.103147029876709	[281.354651927948, 281.4713430404663, 282.4559528827667, 282.6228520870209, 283.37347507476807, 283.490257024765, 283.60707688331604, 283.7238869667053, 283.8407130241394, 283.9573049545288, 284.07432293891907, 284.19103598594666, 284.30798387527466, 284.42497205734253, 284.54145407676697, 284.6581509113312, 284.7748670578003, 284.8917570114136, 285.0084550380707, 285.12536001205444, 285.2420959472656, 285.4567360877991]	[281.35286762034286, 281.46953428700954, 282.45253428700954, 282.61923428700953, 283.36923428700953, 283.4859009536762, 283.6025676203429, 283.71923428700956, 283.83590095367623, 283.9525676203429, 284.0692342870096, 284.18590095367625, 284.3025676203429, 284.4192342870096, 284.5359009536763, 284.65256762034295, 284.7692342870096, 284.8859009536763, 285.002567620343, 285.11923428700965, 285.2359009536763, 285.46923428700967]	2021_Feb_05_1728	59.94954540841778	1	1
26	48	FALSE	NN	v	['P', 'N', 'S', 'Z', 'V', 'T', 'G', 'H', 'A', 'E', 'C', 'Y', 'W', 'B', 'M', 'R']	[1456, 1335, 1731, 2911, 2245, 1888, 944, 986, 697, 904, 829, 2670, 2448, 760, 1224, 1587]	10	Absent	NA	NA	ABSENT	0.42089295387268066	287.47192692756653	289.46992778778076	290.2868208885193	290.63701701164246	293.5731029510498	4.103175163269043	[287.47784900665283, 287.59456300735474, 288.5622808933258, 288.7291030883789, 289.4968500137329, 289.61352801322937, 289.7303650379181, 289.8472890853882, 289.94690799713135, 290.0637218952179, 290.18049001693726, 290.2973449230194, 290.41418290138245, 290.53100395202637, 290.6477949619293, 290.76458191871643, 290.88133096694946, 290.9980728626251, 291.1148750782013, 291.23163986206055, 291.34844303131104, 291.5731039047241]	[287.46923428700967, 287.58590095367634, 288.56890095367635, 288.73560095367634, 289.48560095367634, 289.602267620343, 289.7189342870097, 289.83560095367636, 289.95226762034304, 290.0689342870097, 290.1856009536764, 290.30226762034306, 290.41893428700973, 290.5356009536764, 290.6522676203431, 290.76893428700976, 290.88560095367643, 291.0022676203431, 291.1189342870098, 291.23560095367645, 291.3522676203431, 291.5856009536765]	2021_Feb_05_1728	59.94954540841778	1	1
26	49	FALSE	NV	v	['N', 'K', 'S', 'H', 'M', 'E', 'B', 'J', 'A', 'X', 'T', 'G', 'P', 'R', 'U', 'V']	[1335, 1122, 1731, 986, 1224, 904, 760, 1029, 697, 4000, 1888, 944, 1456, 1587, 2059, 2245]	10	Present	NA	NA	PRESENT	0.2891569137573242	293.57834696769714	295.5862648487091	296.4031858444214	296.75325179100037	299.6894700527191	4.10320520401001	[293.5842659473419, 293.700963973999, 294.6857669353485, 294.8523609638214, 295.60304403305054, 295.7198429107666, 295.836807012558, 295.9534809589386, 296.0703589916229, 296.1870958805084, 296.3038558959961, 296.4205870628357, 296.537556886673, 296.6542160511017, 296.77115988731384, 296.8878538608551, 297.0047779083252, 297.12135004997253, 297.2381808757782, 297.3550879955292, 297.4717209339142, 297.6894700527191]	[293.5856009536765, 293.70226762034315, 294.68526762034315, 294.85196762034315, 295.60196762034315, 295.7186342870098, 295.8353009536765, 295.95196762034317, 296.06863428700984, 296.1853009536765, 296.3019676203432, 296.41863428700987, 296.53530095367654, 296.6519676203432, 296.7686342870099, 296.88530095367656, 297.00196762034324, 297.1186342870099, 297.2353009536766, 297.35196762034326, 297.46863428700993, 297.7019676203433]	2021_Feb_05_1728	59.94954540841778	1	1
26	50	FALSE	NA	v	['T', 'V', 'W', 'K', 'C', 'U', 'P', 'B', 'M', 'H', 'G', 'X', 'Y', 'N', 'S', 'Z']	[1888, 2245, 2448, 1122, 829, 2059, 1456, 760, 1224, 986, 944, 4000, 2670, 1335, 1731, 2911]	12	Present	NA	NA	PRESENT	0.5908060073852539	299.70161294937134	301.70245695114136	302.75291895866394	303.1030128002167	305.80583691596985	4.103379964828491	[299.7075319290161, 299.8243758678436, 300.80882692337036, 300.9756648540497, 301.72626399993896, 301.84317994117737, 301.9599618911743, 302.076621055603, 302.19359397888184, 302.3102490901947, 302.4271750450134, 302.5439438819885, 302.66051602363586, 302.777379989624, 302.8943200111389, 303.0110719203949, 303.1277449131012, 303.2447590827942, 303.3614408969879, 303.47819685935974, 303.57814288139343, 303.80583596229553]	[299.7019676203433, 299.81863428700996, 300.80163428700996, 300.96833428700995, 301.71833428700995, 301.8350009536766, 301.9516676203433, 302.06833428701, 302.18500095367665, 302.3016676203433, 302.41833428701, 302.5350009536767, 302.65166762034335, 302.76833428701, 302.8850009536767, 303.00166762034337, 303.11833428701004, 303.2350009536767, 303.3516676203434, 303.46833428701007, 303.58500095367674, 303.8183342870101]	2021_Feb_05_1728	59.94954540841778	1	1
26	51	FALSE	NV	v	['N', 'J', 'M', 'R', 'B', 'S', 'C', 'K', 'X', 'H', 'G', 'U', 'Y', 'Z', 'E', 'V']	[1335, 1029, 1224, 1587, 760, 1731, 829, 1122, 4000, 986, 944, 2059, 2670, 2911, 904, 2245]	9	Present	NA	NA	PRESENT	0.3231840133666992	305.8079810142517	307.8189959526062	308.5195438861847	308.8694679737091	311.92220401763916	4.103208065032959	[305.8138999938965, 305.93059396743774, 306.915020942688, 307.08213901519775, 307.83260798454285, 307.9496650695801, 308.0664019584656, 308.18316102027893, 308.299959897995, 308.416640996933, 308.53366708755493, 308.6504499912262, 308.7672600746155, 308.88408303260803, 309.00089597702026, 309.11743998527527, 309.2343280315399, 309.3510420322418, 309.4679560661316, 309.58466386795044, 309.7014560699463, 309.92220401763916]	[305.8183342870101, 305.93500095367676, 306.91800095367677, 307.08470095367676, 307.83470095367676, 307.95136762034343, 308.0680342870101, 308.1847009536768, 308.30136762034346, 308.41803428701013, 308.5347009536768, 308.6513676203435, 308.76803428701015, 308.8847009536768, 309.0013676203435, 309.1180342870102, 309.23470095367685, 309.3513676203435, 309.4680342870102, 309.5847009536769, 309.70136762034355, 309.9347009536769]	2021_Feb_05_1728	59.94954540841778	1	1
26	52	FALSE	VV	v	['C', 'B', 'V', 'E', 'S', 'A', 'Y', 'M', 'surprise', 'R', 'U', 'X', 'T', 'W', 'H', 'J']	[829, 760, 2245, 904, 1731, 697, 2670, 1224, 'stimAuditory/all_stimAuditory/107.wav', 1587, 2059, 4000, 1888, 2448, 986, 1029]	12	Present	NA	stimVisual/all_stimVisual/200.jpg	PRESENT	0.31177592277526855	311.93119597435	313.9351489543915	314.9862768650055	315.3357779979706	318.0385699272156	4.103420972824097	[311.93711590766907, 312.0537929534912, 313.0383360385895, 313.2051179409027, 313.9559988975525, 314.07285594940186, 314.18946504592896, 314.3063108921051, 314.4234230518341, 314.5398180484772, 314.6565668582916, 314.7733540534973, 314.8901538848877, 315.00722193717957, 315.1239619255066, 315.240779876709, 315.35745096206665, 315.4742670059204, 315.5912070274353, 315.7076270580292, 315.8245289325714, 316.03856897354126]	[311.9347009536769, 312.05136762034357, 313.0343676203436, 313.20106762034357, 313.95106762034357, 314.06773428701024, 314.1844009536769, 314.3010676203436, 314.41773428701026, 314.53440095367694, 314.6510676203436, 314.7677342870103, 314.88440095367696, 315.00106762034363, 315.1177342870103, 315.234400953677, 315.35106762034366, 315.46773428701033, 315.584400953677, 315.7010676203437, 315.81773428701035, 316.0510676203437]	2021_Feb_05_1728	59.94954540841778	1	1
26	53	FALSE	NV	v	['B', 'Z', 'T', 'Y', 'N', 'P', 'M', 'U', 'K', 'X', 'R', 'S', 'C', 'H', 'E', 'W']	[760, 2911, 1888, 2670, 1335, 1456, 1224, 2059, 1122, 4000, 1587, 1731, 829, 986, 904, 2448]	10	Present	NA	NA	PRESENT	0.34093499183654785	318.0542538166046	320.05172896385193	320.8687160015106	321.21899580955505	324.1549370288849	4.103208065032959	[318.06017303466797, 318.1603350639343, 319.14497900009155, 319.31163907051086, 320.0791928768158, 320.1791000366211, 320.29588890075684, 320.4126629829407, 320.52947902679443, 320.646283864975, 320.76304602622986, 320.8797879219055, 320.99664402008057, 321.11345386505127, 321.23021507263184, 321.347048997879, 321.4638080596924, 321.5806739330292, 321.6974868774414, 321.814404964447, 321.9311239719391, 322.1549370288849]	[318.0510676203437, 318.1677342870104, 319.1507342870104, 319.31743428701037, 320.06743428701037, 320.18410095367705, 320.3007676203437, 320.4174342870104, 320.53410095367707, 320.65076762034374, 320.7674342870104, 320.8841009536771, 321.00076762034377, 321.11743428701044, 321.2341009536771, 321.3507676203438, 321.46743428701046, 321.58410095367714, 321.7007676203438, 321.8174342870105, 321.93410095367716, 322.1674342870105]	2021_Feb_05_1728	59.94954540841778	1	1
26	54	FALSE	NA	v	['R', 'P', 'C', 'G', 'A', 'K', 'E', 'S', 'B', 'X', 'U', 'Z', 'M', 'J', 'Y', 'V']	[1587, 1456, 829, 944, 697, 1122, 904, 1731, 760, 4000, 2059, 2911, 1224, 1029, 2670, 2245]	10	Present	NA	NA	PRESENT	0.2974081039428711	324.16090083122253	326.1680657863617	326.985102891922	327.3349709510803	330.2713029384613	4.103237152099609	[324.1668200492859, 324.28357696533203, 325.2682330608368, 325.4348840713501, 326.1855089664459, 326.30235385894775, 326.4192669391632, 326.53603506088257, 326.65283703804016, 326.76947593688965, 326.8864200115204, 327.003112077713, 327.1200749874115, 327.23679304122925, 327.3534688949585, 327.4704580307007, 327.58719396591187, 327.7040419578552, 327.82065987586975, 327.93752789497375, 328.0541920661926, 328.2713029384613]	[324.1674342870105, 324.2841009536772, 325.2671009536772, 325.4338009536772, 326.1838009536772, 326.30046762034385, 326.4171342870105, 326.5338009536772, 326.6504676203439, 326.76713428701055, 326.8838009536772, 327.0004676203439, 327.1171342870106, 327.23380095367725, 327.3504676203439, 327.4671342870106, 327.58380095367727, 327.70046762034394, 327.8171342870106, 327.9338009536773, 328.05046762034397, 328.2838009536773]	2021_Feb_05_1728	59.94954540841778	1	1
26	55	FALSE	VN	v	['S', 'A', 'G', 'B', 'Z', 'surprise', 'H', 'E', 'J', 'T', 'R', 'W', 'P', 'K', 'M', 'N']	[1731, 697, 944, 760, 2911, 'stimAuditory/all_stimAuditory/218.wav', 986, 904, 1029, 1888, 1587, 2448, 1456, 1122, 1224, 1335]	9	Absent	NA	stimVisual/all_stimVisual/150.jpg	ABSENT	0.7505989074707031	330.2841238975525	332.2846188545227	332.9848139286041	333.3348000049591	336.3876700401306	4.10305118560791	[330.29004287719727, 330.40669894218445, 331.3911919593811, 331.558189868927, 332.3087840080261, 332.4254810810089, 332.542268037796, 332.6591999530792, 332.77586793899536, 332.892795085907, 333.00945687294006, 333.12635588645935, 333.24318289756775, 333.35999488830566, 333.47658801078796, 333.59339904785156, 333.7101619243622, 333.82716488838196, 333.9440178871155, 334.0608479976654, 334.16078996658325, 334.3876700401306]	[330.2838009536773, 330.400467620344, 331.383467620344, 331.550167620344, 332.300167620344, 332.41683428701066, 332.53350095367733, 332.650167620344, 332.7668342870107, 332.88350095367736, 333.00016762034403, 333.1168342870107, 333.2335009536774, 333.35016762034405, 333.4668342870107, 333.5835009536774, 333.7001676203441, 333.81683428701075, 333.9335009536774, 334.0501676203441, 334.1668342870108, 334.4001676203441]	2021_Feb_05_1728	59.94954540841778	1	1
26	56	FALSE	NA	v	['Z', 'P', 'Y', 'R', 'V', 'T', 'G', 'M', 'E', 'U', 'S', 'X', 'W', 'A', 'N', 'K']	[2911, 1456, 2670, 1587, 2245, 1888, 944, 1224, 904, 2059, 1731, 4000, 2448, 697, 1335, 1122]	12	Present	NA	NA	PRESENT	0.2994511127471924	336.3904960155487	338.40075492858887	339.4515709877014	339.80119800567627	342.50403690338135	4.1032819747924805	[336.3964149951935, 336.513277053833, 337.49751806259155, 337.66450786590576, 338.41502499580383, 338.53187799453735, 338.6488540172577, 338.765732049942, 338.8821680545807, 338.99927592277527, 339.1161239147186, 339.2331609725952, 339.3497109413147, 339.46634793281555, 339.583340883255, 339.69997000694275, 339.81664299964905, 339.9335210323334, 340.05045199394226, 340.16725897789, 340.28392601013184, 340.50403690338135]	[336.4001676203441, 336.5168342870108, 337.4998342870108, 337.6665342870108, 338.4165342870108, 338.53320095367746, 338.64986762034414, 338.7665342870108, 338.8832009536775, 338.99986762034416, 339.11653428701084, 339.2332009536775, 339.3498676203442, 339.46653428701086, 339.58320095367753, 339.6998676203442, 339.8165342870109, 339.93320095367756, 340.04986762034423, 340.1665342870109, 340.2832009536776, 340.5165342870109]	2021_Feb_05_1728	59.94954540841778	1	1
26	57	FALSE	NN	v	['H', 'B', 'E', 'U', 'P', 'W', 'A', 'K', 'V', 'Z', 'G', 'S', 'C', 'J', 'R', 'Y']	[986, 760, 904, 2059, 1456, 2448, 697, 1122, 2245, 2911, 944, 1731, 829, 1029, 1587, 2670]	14	Absent	NA	NA	ABSENT	0.2800009250640869	342.5135769844055	344.5172028541565	345.8011758327484	346.15109395980835	348.62040400505066	4.103201150894165	[342.5194959640503, 342.63651990890503, 343.6208050251007, 343.7877428531647, 344.53884196281433, 344.6552128791809, 344.77204298973083, 344.88887906074524, 345.0056400299072, 345.12250304222107, 345.23927187919617, 345.356036901474, 345.47284388542175, 345.5896260738373, 345.706503868103, 345.8231899738312, 345.93991899490356, 346.05667185783386, 346.17350792884827, 346.2905149459839, 346.40709495544434, 346.620404958725]	[342.5165342870109, 342.6332009536776, 343.6162009536776, 343.7829009536776, 344.5329009536776, 344.64956762034427, 344.76623428701095, 344.8829009536776, 344.9995676203443, 345.11623428701097, 345.23290095367764, 345.3495676203443, 345.466234287011, 345.58290095367767, 345.69956762034434, 345.816234287011, 345.9329009536777, 346.04956762034436, 346.16623428701104, 346.2829009536777, 346.3995676203444, 346.63290095367773]	2021_Feb_05_1728	59.94954540841778	1	1
26	58	FALSE	NV	v	['T', 'H', 'W', 'S', 'Z', 'M', 'K', 'U', 'R', 'X', 'J', 'A', 'C', 'G', 'Y', 'P']	[1888, 986, 2448, 1731, 2911, 1224, 1122, 2059, 1587, 4000, 1029, 697, 829, 944, 2670, 1456]	10	Present	NA	NA	PRESENT	0.30129480361938477	348.62014293670654	350.63351488113403	351.4506039619446	351.80074286460876	354.7367699146271	4.103255033493042	[348.6260619163513, 348.7426929473877, 349.7272379398346, 349.89410305023193, 350.6617760658264, 350.76170086860657, 350.8782980442047, 350.995099067688, 351.11191606521606, 351.2287218570709, 351.34573101997375, 351.46229004859924, 351.57909893989563, 351.6959788799286, 351.81270003318787, 351.9296090602875, 352.0465099811554, 352.16321897506714, 352.28012204170227, 352.39682698249817, 352.5137720108032, 352.7367699146271]	[348.63290095367773, 348.7495676203444, 349.7325676203444, 349.8992676203444, 350.6492676203444, 350.7659342870111, 350.88260095367775, 350.9992676203444, 351.1159342870111, 351.2326009536778, 351.34926762034445, 351.4659342870111, 351.5826009536778, 351.6992676203445, 351.81593428701115, 351.9326009536778, 352.0492676203445, 352.16593428701117, 352.28260095367784, 352.3992676203445, 352.5159342870112, 352.74926762034454]	2021_Feb_05_1728	59.94954540841778	1	1
26	59	FALSE	NA	v	['Y', 'C', 'S', 'H', 'A', 'K', 'R', 'U', 'T', 'N', 'P', 'W', 'M', 'X', 'V', 'J']	[2670, 829, 1731, 986, 697, 1122, 1587, 2059, 1888, 1335, 1456, 2448, 1224, 4000, 2245, 1029]	14	Present	NA	NA	PRESENT	0.7218239307403564	354.7437767982483	356.74967193603516	358.0336480140686	358.38365387916565	360.8531370162964	4.1034650802612305	[354.74969601631165, 354.8662328720093, 355.8503329753876, 356.0174639225006, 356.7680869102478, 356.8849699497223, 357.0017910003662, 357.1185259819031, 357.23522090911865, 357.3521509170532, 357.4686670303345, 357.5855870246887, 357.70235300064087, 357.81912088394165, 357.9361228942871, 358.0528109073639, 358.1695349216461, 358.28646302223206, 358.40327501296997, 358.52002906799316, 358.63660502433777, 358.85313606262207]	[354.74926762034454, 354.8659342870112, 355.8489342870112, 356.0156342870112, 356.7656342870112, 356.8823009536779, 356.99896762034456, 357.11563428701123, 357.2323009536779, 357.3489676203446, 357.46563428701126, 357.58230095367793, 357.6989676203446, 357.8156342870113, 357.93230095367795, 358.0489676203446, 358.1656342870113, 358.282300953678, 358.39896762034465, 358.5156342870113, 358.632300953678, 358.86563428701135]	2021_Feb_05_1728	59.94954540841778	1	1
26	60	FALSE	AA	v	['A', 'V', 'N', 'G', 'W', 'Z', 'M', 'C', 'S', 'U', 'surprise', 'P', 'R', 'X', 'T', 'H']	[697, 2245, 1335, 944, 2448, 2911, 1224, 829, 1731, 2059, 'stimAuditory/all_stimAuditory/124.wav', 1456, 1587, 4000, 1888, 986]	14	Present	stimAuditory/all_stimAuditory/115.wav	stimVisual/all_stimVisual/222.jpg	PRESENT	0.4229328632354736	360.86653780937195	362.86641097068787	364.150016784668	364.49998593330383	366.9695029258728	4.1030919551849365	[360.8724570274353, 360.98920702934265, 361.97346091270447, 362.1404130458832, 362.8913290500641, 363.008131980896, 363.12499594688416, 363.2415819168091, 363.3583278656006, 363.4752519130707, 363.5918860435486, 363.70863103866577, 363.8256859779358, 363.94246888160706, 364.05928206443787, 364.1760849952698, 364.2930200099945, 364.4097890853882, 364.5264949798584, 364.6432240009308, 364.7434480190277, 364.9695019721985]	[360.86563428701135, 360.982300953678, 361.965300953678, 362.132000953678, 362.882000953678, 362.9986676203447, 363.11533428701136, 363.23200095367804, 363.3486676203447, 363.4653342870114, 363.58200095367806, 363.69866762034474, 363.8153342870114, 363.9320009536781, 364.04866762034476, 364.16533428701143, 364.2820009536781, 364.3986676203448, 364.51533428701146, 364.63200095367813, 364.7486676203448, 364.98200095367815]	2021_Feb_05_1728	59.94954540841778	1	1
26	61	FALSE	NA	v	['W', 'U', 'K', 'J', 'R', 'V', 'A', 'E', 'T', 'Z', 'N', 'Y', 'X', 'M', 'B', 'H']	[2448, 2059, 1122, 1029, 1587, 2245, 697, 904, 1888, 2911, 1335, 2670, 4000, 1224, 760, 986]	13	Present	NA	NA	PRESENT	0.2836120128631592	366.9732120037079	368.9824869632721	370.14971590042114	370.49961590766907	373.0858700275421	4.1033830642700195	[366.97913098335266, 367.0958960056305, 368.08003187179565, 368.2471010684967, 368.9976589679718, 369.1145589351654, 369.23127007484436, 369.34812688827515, 369.46492290496826, 369.58170795440674, 369.6985659599304, 369.81517004966736, 369.9321279525757, 370.0486979484558, 370.1657540798187, 370.282399892807, 370.39913606643677, 370.51616191864014, 370.63271594047546, 370.7497909069061, 370.8665580749512, 371.0858690738678]	[366.98200095367815, 367.0986676203448, 368.08166762034483, 368.2483676203448, 368.9983676203448, 369.1150342870115, 369.23170095367817, 369.34836762034485, 369.4650342870115, 369.5817009536782, 369.69836762034487, 369.81503428701154, 369.9317009536782, 370.0483676203449, 370.16503428701157, 370.28170095367824, 370.3983676203449, 370.5150342870116, 370.63170095367826, 370.74836762034494, 370.8650342870116, 371.09836762034496]	2021_Feb_05_1728	59.94954540841778	1	1
26	62	FALSE	NA	v	['A', 'C', 'J', 'B', 'U', 'P', 'S', 'W', 'X', 'G', 'T', 'R', 'Z', 'V', 'M', 'H']	[697, 829, 1029, 760, 2059, 1456, 1731, 2448, 4000, 944, 1888, 1587, 2911, 2245, 1224, 986]	9	Present	NA	NA	PRESENT	0.2721679210662842	373.0962069034576	375.099084854126	375.7994430065155	376.1494059562683	379.2022368907929	4.10315203666687	[373.1021270751953, 373.2189350128174, 374.2031600475311, 374.37049293518066, 375.12091302871704, 375.23777198791504, 375.3543999195099, 375.47137689590454, 375.5883278846741, 375.70485401153564, 375.82158303260803, 375.9384870529175, 376.05530285835266, 376.1721570491791, 376.2887020111084, 376.4057469367981, 376.522588968277, 376.63905000686646, 376.7561209201813, 376.87262892723083, 376.9896168708801, 377.20223689079285]	[373.09836762034496, 373.21503428701163, 374.19803428701164, 374.36473428701163, 375.11473428701163, 375.2314009536783, 375.348067620345, 375.46473428701165, 375.5814009536783, 375.698067620345, 375.8147342870117, 375.93140095367835, 376.048067620345, 376.1647342870117, 376.28140095367837, 376.39806762034505, 376.5147342870117, 376.6314009536784, 376.74806762034507, 376.86473428701174, 376.9814009536784, 377.21473428701177]	2021_Feb_05_1728	59.94954540841778	1	1
26	63	FALSE	AN	v	['S', 'J', 'N', 'E', 'Z', 'K', 'surprise', 'V', 'G', 'C', 'A', 'U', 'W', 'Y', 'B', 'R']	[1731, 1029, 1335, 904, 2911, 1122, 'stimAuditory/all_stimAuditory/217.wav', 2245, 944, 829, 697, 2059, 2448, 2670, 760, 1587]	10	Absent	stimAuditory/all_stimAuditory/211.wav	stimVisual/all_stimVisual/117.jpg	ABSENT	0.2774319648742676	379.2027018070221	381.2151780128479	382.032910823822	382.3825328350067	385.31860399246216	4.103425979614258	[379.20862102508545, 379.32545590400696, 380.30981397628784, 380.4767210483551, 381.2441608905792, 381.3443410396576, 381.4610650539398, 381.5776970386505, 381.694669008255, 381.81128907203674, 381.9447500705719, 382.04495906829834, 382.1615710258484, 382.27841901779175, 382.3953740596771, 382.5120930671692, 382.6290159225464, 382.7457699775696, 382.8624849319458, 382.9792959690094, 383.09618496894836, 383.31860399246216]	[379.21473428701177, 379.33140095367844, 380.31440095367844, 380.48110095367844, 381.23110095367844, 381.3477676203451, 381.4644342870118, 381.58110095367846, 381.69776762034513, 381.8144342870118, 381.9311009536785, 382.04776762034516, 382.16443428701183, 382.2811009536785, 382.3977676203452, 382.51443428701185, 382.6311009536785, 382.7477676203452, 382.8644342870119, 382.98110095367855, 383.0977676203452, 383.3311009536786]	2021_Feb_05_1728	59.94954540841778	1	1
26	64	FALSE	NA	v	['M', 'T', 'E', 'Y', 'R', 'W', 'Z', 'C', 'B', 'S', 'X', 'A', 'V', 'U', 'N', 'K']	[1224, 1888, 904, 2670, 1587, 2448, 2911, 829, 760, 1731, 4000, 697, 2245, 2059, 1335, 1122]	11	Present	NA	NA	PRESENT	0.3621349334716797	385.3262679576874	387.3315968513489	388.2654638290405	388.6156368255615	391.4349699020386	4.103373050689697	[385.33218693733215, 385.4484829902649, 386.4329950809479, 386.59978795051575, 387.3505530357361, 387.4672830104828, 387.5841178894043, 387.7010819911957, 387.8177258968353, 387.93471908569336, 388.05115389823914, 388.16799306869507, 388.2847979068756, 388.4017050266266, 388.5183689594269, 388.6351430416107, 388.7520658969879, 388.8689019680023, 388.98572993278503, 389.1024498939514, 389.21919202804565, 389.43496894836426]	[385.3311009536786, 385.44776762034525, 386.43076762034525, 386.59746762034524, 387.34746762034524, 387.4641342870119, 387.5808009536786, 387.69746762034526, 387.81413428701194, 387.9308009536786, 388.0474676203453, 388.16413428701196, 388.28080095367864, 388.3974676203453, 388.514134287012, 388.63080095367866, 388.74746762034533, 388.864134287012, 388.9808009536787, 389.09746762034536, 389.21413428701203, 389.4474676203454]	2021_Feb_05_1728	59.94954540841778	1	1
26	65	FALSE	NN	v	['Y', 'Z', 'R', 'E', 'T', 'W', 'G', 'U', 'K', 'A', 'C', 'J', 'B', 'H', 'V', 'N']	[2670, 2911, 1587, 904, 1888, 2448, 944, 2059, 1122, 697, 829, 1029, 760, 986, 2245, 1335]	14	Absent	NA	NA	ABSENT	0.6553678512573242	391.44928097724915	393.447860956192	394.73243498802185	395.0819737911224	397.5513360500336	4.103475093841553	[391.45520091056824, 391.5716509819031, 392.5392789840698, 392.7061519622803, 393.47380089759827, 393.5908329486847, 393.7072288990021, 393.824147939682, 393.9410710334778, 394.05761194229126, 394.17447304725647, 394.2914478778839, 394.40843391418457, 394.5249900817871, 394.6417498588562, 394.75861406326294, 394.87532901763916, 394.991975069046, 395.10884308815, 395.20882201194763, 395.32583689689636, 395.5513370037079]	[391.4474676203454, 391.56413428701205, 392.54713428701206, 392.71383428701205, 393.46383428701205, 393.5805009536787, 393.6971676203454, 393.81383428701207, 393.93050095367875, 394.0471676203454, 394.1638342870121, 394.28050095367877, 394.39716762034544, 394.5138342870121, 394.6305009536788, 394.74716762034546, 394.86383428701214, 394.9805009536788, 395.0971676203455, 395.21383428701216, 395.33050095367884, 395.5638342870122]	2021_Feb_05_1728	59.94954540841778	1	1
26	66	FALSE	NN	v	['K', 'H', 'Y', 'P', 'Z', 'B', 'S', 'A', 'R', 'J', 'C', 'V', 'G', 'U', 'M', 'N']	[1122, 986, 2670, 1456, 2911, 760, 1731, 697, 1587, 1029, 829, 2245, 944, 2059, 1224, 1335]	13	Absent	NA	NA	ABSENT	0.28385210037231445	397.5555260181427	399.5646698474884	400.7314598560333	401.0819628238678	403.6677029132843	4.103033065795898	[397.56144404411316, 397.6783220767975, 398.6626489162445, 398.8293490409851, 399.58026003837585, 399.6969220638275, 399.81392097473145, 399.9306559562683, 400.0475158691406, 400.1641809940338, 400.28088903427124, 400.3978509902954, 400.5145490169525, 400.63146591186523, 400.74806094169617, 400.8650200366974, 400.9816529750824, 401.0985219478607, 401.21517992019653, 401.33216190338135, 401.448832988739, 401.6677260398865]	[397.5638342870122, 397.68050095367886, 398.66350095367886, 398.83020095367885, 399.58020095367885, 399.69686762034553, 399.8135342870122, 399.9302009536789, 400.04686762034555, 400.1635342870122, 400.2802009536789, 400.3968676203456, 400.51353428701225, 400.6302009536789, 400.7468676203456, 400.86353428701227, 400.98020095367895, 401.0968676203456, 401.2135342870123, 401.33020095367897, 401.44686762034564, 401.680200953679]	2021_Feb_05_1728	59.94954540841778	1	1
26	67	FALSE	NV	v	['S', 'E', 'P', 'W', 'C', 'Y', 'J', 'H', 'A', 'M', 'V', 'N', 'X', 'G', 'B', 'T']	[1731, 904, 1456, 2448, 829, 2670, 1029, 986, 697, 1224, 2245, 1335, 4000, 944, 760, 1888]	13	Present	NA	NA	PRESENT	0.30544304847717285	403.67883801460266	405.68077778816223	406.84785294532776	407.1978328227997	409.7840700149536	4.103292226791382	[403.6847698688507, 403.80139088630676, 404.7861409187317, 404.9527440071106, 405.70346999168396, 405.8203749656677, 405.9369659423828, 406.05392503738403, 406.1706368923187, 406.28752398490906, 406.40417194366455, 406.520987033844, 406.63766503334045, 406.75454902648926, 406.8714129924774, 406.9882378578186, 407.1047558784485, 407.2217879295349, 407.33834290504456, 407.45537090301514, 407.55532908439636, 407.7840690612793]	[403.680200953679, 403.79686762034567, 404.77986762034567, 404.94656762034566, 405.69656762034566, 405.81323428701234, 405.929900953679, 406.0465676203457, 406.16323428701236, 406.27990095367903, 406.3965676203457, 406.5132342870124, 406.62990095367905, 406.74656762034573, 406.8632342870124, 406.9799009536791, 407.09656762034575, 407.2132342870124, 407.3299009536791, 407.4465676203458, 407.56323428701245, 407.7965676203458]	2021_Feb_05_1728	59.94954540841778	1	1
26	68	FALSE	NN	v	['A', 'H', 'S', 'C', 'V', 'K', 'G', 'M', 'E', 'R', 'T', 'P', 'Z', 'B', 'Y', 'N']	[697, 986, 1731, 829, 2245, 1122, 944, 1224, 904, 1587, 1888, 1456, 2911, 760, 2670, 1335]	14	Absent	NA	NA	ABSENT	0.4856908321380615	409.7851588726044	411.7972629070282	413.08093786239624	413.4309229850769	415.90043592453	4.103173017501831	[409.79107689857483, 409.9077830314636, 410.8921148777008, 411.0591609477997, 411.82654094696045, 411.92664098739624, 412.04358100891113, 412.16020607948303, 412.2772469520569, 412.3937919139862, 412.5105118751526, 412.627454996109, 412.7441620826721, 412.86100792884827, 412.9777488708496, 413.09440302848816, 413.2114100456238, 413.3281669616699, 413.4450030326843, 413.5618178844452, 413.67848205566406, 413.90043687820435]	[409.7965676203458, 409.9132342870125, 410.8962342870125, 411.06293428701247, 411.81293428701247, 411.92960095367914, 412.0462676203458, 412.1629342870125, 412.27960095367916, 412.39626762034584, 412.5129342870125, 412.6296009536792, 412.74626762034586, 412.86293428701254, 412.9796009536792, 413.0962676203459, 413.21293428701256, 413.32960095367923, 413.4462676203459, 413.5629342870126, 413.67960095367926, 413.9129342870126]	2021_Feb_05_1728	59.94954540841778	1	1
26	69	FALSE	NV	v	['M', 'J', 'T', 'N', 'B', 'E', 'P', 'W', 'S', 'H', 'R', 'X', 'G', 'Z', 'Y', 'A']	[1224, 1029, 1888, 1335, 760, 904, 1456, 2448, 1731, 986, 1587, 4000, 944, 2911, 2670, 697]	12	Present	NA	NA	PRESENT	0.26630187034606934	415.9081997871399	417.913419008255	418.96405696868896	419.31384682655334	422.01680397987366	4.103384971618652	[415.91411900520325, 416.03096985816956, 417.0153489112854, 417.18206906318665, 417.93300700187683, 418.04984188079834, 418.16650390625, 418.283411026001, 418.4001450538635, 418.51721692085266, 418.63380694389343, 418.7507200241089, 418.8673529624939, 418.9841990470886, 419.1009440422058, 419.21758794784546, 419.33451104164124, 419.45150685310364, 419.56820797920227, 419.684956073761, 419.80175590515137, 420.01680397987366]	[415.9129342870126, 416.0296009536793, 417.0126009536793, 417.1793009536793, 417.9293009536793, 418.04596762034595, 418.1626342870126, 418.2793009536793, 418.39596762034597, 418.51263428701265, 418.6293009536793, 418.745967620346, 418.86263428701267, 418.97930095367934, 419.095967620346, 419.2126342870127, 419.32930095367936, 419.44596762034604, 419.5626342870127, 419.6793009536794, 419.79596762034606, 420.0293009536794]	2021_Feb_05_1728	59.94954540841778	1	1
26	70	FALSE	NA	v	['T', 'H', 'E', 'M', 'K', 'J', 'N', 'Z', 'X', 'G', 'U', 'A', 'C', 'B', 'P', 'Y']	[1888, 986, 904, 1224, 1122, 1029, 1335, 2911, 4000, 944, 2059, 697, 829, 760, 1456, 2670]	9	Present	NA	NA	PRESENT	0.24768614768981936	422.031543970108	424.0298738479614	424.7303400039673	425.080531835556	428.1331698894501	4.1032960414886475	[422.0374619960785, 422.1541509628296, 423.1217589378357, 423.28861904144287, 424.0561239719391, 424.1731960773468, 424.2900390625, 424.40702295303345, 424.52356791496277, 424.6403019428253, 424.75711488723755, 424.8568708896637, 424.99054408073425, 425.1075210571289, 425.20734000205994, 425.3240990638733, 425.44091796875, 425.557697057724, 425.6745128631592, 425.7913088798523, 425.90827894210815, 426.13317108154297]	[422.0293009536794, 422.1459676203461, 423.1289676203461, 423.2956676203461, 424.0456676203461, 424.16233428701275, 424.27900095367943, 424.3956676203461, 424.5123342870128, 424.62900095367945, 424.7456676203461, 424.8623342870128, 424.9790009536795, 425.09566762034615, 425.2123342870128, 425.3290009536795, 425.44566762034617, 425.56233428701285, 425.6790009536795, 425.7956676203462, 425.91233428701287, 426.1456676203462]	2021_Feb_05_1728	59.94954540841778	1	1
26	71	FALSE	NV	v	['R', 'Z', 'G', 'K', 'V', 'A', 'Y', 'H', 'X', 'M', 'U', 'W', 'C', 'E', 'T', 'N']	[1587, 2911, 944, 1122, 2245, 697, 2670, 986, 4000, 1224, 2059, 2448, 829, 904, 1888, 1335]	9	Present	NA	NA	PRESENT	0.2762269973754883	428.1380829811096	430.14614391326904	430.84666991233826	431.19658279418945	434.2495369911194	4.103393077850342	[428.1440019607544, 428.2605619430542, 429.24503207206726, 429.4120309352875, 430.1626739501953, 430.279639005661, 430.39641404151917, 430.51323986053467, 430.6298260688782, 430.7468409538269, 430.8635859489441, 430.9803810119629, 431.09693002700806, 431.2140119075775, 431.33082699775696, 431.4473750591278, 431.5641059875488, 431.6809940338135, 431.79774498939514, 431.91471099853516, 432.03137588500977, 432.2495379447937]	[428.1456676203462, 428.2623342870129, 429.2453342870129, 429.4120342870129, 430.1620342870129, 430.27870095367956, 430.39536762034624, 430.5120342870129, 430.6287009536796, 430.74536762034626, 430.86203428701293, 430.9787009536796, 431.0953676203463, 431.21203428701295, 431.32870095367963, 431.4453676203463, 431.562034287013, 431.67870095367965, 431.7953676203463, 431.912034287013, 432.0287009536797, 432.262034287013]	2021_Feb_05_1728	59.94954540841778	1	1
26	72	FALSE	NV	v	['P', 'Y', 'U', 'A', 'B', 'J', 'Z', 'H', 'M', 'V', 'C', 'X', 'G', 'E', 'T', 'N']	[1456, 2670, 2059, 697, 760, 1029, 2911, 986, 1224, 2245, 829, 4000, 944, 904, 1888, 1335]	12	Present	NA	NA	PRESENT	0.5535118579864502	434.26109790802	436.2626688480377	437.3129909038544	437.6631259918213	440.3659029006958	4.103234052658081	[434.2670159339905, 434.3843820095062, 435.368469953537, 435.53498792648315, 436.2858488559723, 436.4028220176697, 436.51939392089844, 436.6363570690155, 436.7529320716858, 436.8697679042816, 436.9867560863495, 437.10346007347107, 437.2202479839325, 437.3369140625, 437.45406103134155, 437.57067704200745, 437.68743801116943, 437.8040699958801, 437.92081689834595, 438.03780698776245, 438.13771200180054, 438.3659029006958]	[434.262034287013, 434.3787009536797, 435.3617009536797, 435.5284009536797, 436.2784009536797, 436.39506762034637, 436.51173428701304, 436.6284009536797, 436.7450676203464, 436.86173428701306, 436.97840095367974, 437.0950676203464, 437.2117342870131, 437.32840095367976, 437.44506762034644, 437.5617342870131, 437.6784009536798, 437.79506762034646, 437.91173428701313, 438.0284009536798, 438.1450676203465, 438.37840095367983]	2021_Feb_05_1728	59.94954540841778	1	1
26	73	FALSE	NN	v	['K', 'B', 'G', 'J', 'M', 'T', 'A', 'N', 'S', 'U', 'H', 'R', 'C', 'Y', 'W', 'Z']	[1122, 760, 944, 1029, 1224, 1888, 697, 1335, 1731, 2059, 986, 1587, 829, 2670, 2448, 2911]	10	Absent	NA	NA	ABSENT	0.8456220626831055	440.3674838542938	442.3790078163147	443.1960928440094	443.5459229946137	446.4822700023651	4.103262186050415	[440.3734118938446, 440.4903860092163, 441.4747200012207, 441.64171504974365, 442.4091019630432, 442.5089600086212, 442.62612199783325, 442.7427730560303, 442.85942697525024, 442.97640204429626, 443.09312295913696, 443.21003007888794, 443.3267879486084, 443.44374799728394, 443.5601589679718, 443.6771500110626, 443.79378294944763, 443.9107279777527, 444.02741503715515, 444.1440489292145, 444.26098704338074, 444.4822700023651]	[440.37840095367983, 440.4950676203465, 441.4780676203465, 441.6447676203465, 442.3947676203465, 442.5114342870132, 442.62810095367985, 442.7447676203465, 442.8614342870132, 442.97810095367987, 443.09476762034654, 443.2114342870132, 443.3281009536799, 443.44476762034657, 443.56143428701324, 443.6781009536799, 443.7947676203466, 443.91143428701326, 444.02810095367994, 444.1447676203466, 444.2614342870133, 444.49476762034664]	2021_Feb_05_1728	59.94954540841778	1	1
26	74	FALSE	NN	v	['U', 'E', 'T', 'J', 'R', 'W', 'S', 'Z', 'K', 'H', 'C', 'A', 'M', 'Y', 'G', 'V']	[2059, 904, 1888, 1029, 1587, 2448, 1731, 2911, 1122, 986, 829, 697, 1224, 2670, 944, 2245]	10	Absent	NA	NA	ABSENT	0.3066859245300293	446.4909110069275	448.4953718185425	449.3122828006744	449.66248893737793	452.59863686561584	4.103265047073364	[446.49682998657227, 446.61337900161743, 447.5980589389801, 447.7649099826813, 448.5155739784241, 448.63246989250183, 448.7489869594574, 448.8659579753876, 448.9827928543091, 449.0994300842285, 449.2162790298462, 449.3331608772278, 449.44989109039307, 449.5668349266052, 449.68344497680664, 449.80045890808105, 449.9172019958496, 450.0339210033417, 450.1505949497223, 450.2673749923706, 450.3840448856354, 450.59863686561584]	[446.49476762034664, 446.6114342870133, 447.5944342870133, 447.7611342870133, 448.5111342870133, 448.62780095368, 448.74446762034665, 448.86113428701333, 448.97780095368, 449.0944676203467, 449.21113428701335, 449.32780095368, 449.4444676203467, 449.5611342870134, 449.67780095368005, 449.7944676203467, 449.9111342870134, 450.02780095368007, 450.14446762034675, 450.2611342870134, 450.3778009536801, 450.61113428701344]	2021_Feb_05_1728	59.94954540841778	1	1
26	75	FALSE	NV	v	['T', 'B', 'Y', 'U', 'Z', 'E', 'A', 'X', 'J', 'N', 'K', 'G', 'W', 'C', 'P', 'R']	[1888, 760, 2670, 2059, 2911, 904, 697, 4000, 1029, 1335, 1122, 944, 2448, 829, 1456, 1587]	8	Present	NA	NA	PRESENT	0.9199140071868896	452.6138458251953	454.61162996292114	455.19555497169495	455.5456428527832	458.7150039672851	4.103374004364014	[452.619765996933, 452.73683285713196, 453.7042489051819, 453.87135791778564, 454.63905906677246, 454.7555558681488, 454.8722379207611, 454.9722628593445, 455.1058859825134, 455.20586705207825, 455.3226170539856, 455.4394509792328, 455.55619192123413, 455.67304396629333, 455.78989005088806, 455.90659403800964, 456.023423910141, 456.14022397994995, 456.2569489479065, 456.37390995025635, 456.4906370639801, 456.71500301361084]	[452.61113428701344, 452.7278009536801, 453.7108009536801, 453.8775009536801, 454.6275009536801, 454.7441676203468, 454.86083428701346, 454.97750095368013, 455.0941676203468, 455.2108342870135, 455.32750095368016, 455.44416762034683, 455.5608342870135, 455.6775009536802, 455.79416762034685, 455.91083428701353, 456.0275009536802, 456.1441676203469, 456.26083428701355, 456.3775009536802, 456.4941676203469, 456.72750095368025]	2021_Feb_05_1728	59.94954540841778	1	1
26	76	FALSE	NN	v	['E', 'P', 'G', 'H', 'Z', 'M', 'V', 'A', 'W', 'S', 'N', 'K', 'U', 'Y', 'C', 'B']	[904, 1456, 944, 986, 2911, 1224, 2245, 697, 2448, 1731, 1335, 1122, 2059, 2670, 829, 760]	12	Absent	NA	NA	ABSENT	0.5482649803161621	458.7205159664154	460.7280218601227	461.7785608768463	462.1285967826843	464.83136892318726	4.103347063064575	[458.7264349460602, 458.8431899547577, 459.82765007019043, 459.99459886550903, 460.74519085884094, 460.8620250225067, 460.9788999557495, 461.0955340862274, 461.21219992637634, 461.32929706573486, 461.44605803489685, 461.5628559589386, 461.67946791648865, 461.7962338924408, 461.9130790233612, 462.0299789905548, 462.1467008590698, 462.26354002952576, 462.38026189804077, 462.4971408843994, 462.61393308639526, 462.83136892318726]	[458.72750095368025, 458.8441676203469, 459.8271676203469, 459.9938676203469, 460.7438676203469, 460.8605342870136, 460.97720095368027, 461.09386762034694, 461.2105342870136, 461.3272009536803, 461.44386762034696, 461.56053428701364, 461.6772009536803, 461.793867620347, 461.91053428701366, 462.02720095368034, 462.143867620347, 462.2605342870137, 462.37720095368036, 462.49386762034703, 462.6105342870137, 462.84386762034705]	2021_Feb_05_1728	59.94954540841778	1	1
26	77	FALSE	VA	v	['S', 'P', 'E', 'W', 'J', 'G', 'Z', 'R', 'surprise', 'C', 'U', 'X', 'A', 'V', 'M', 'K']	[1731, 1456, 904, 2448, 1029, 944, 2911, 1587, 'stimAuditory/all_stimAuditory/201.wav', 829, 2059, 4000, 697, 2245, 1224, 1122]	12	Present	NA	stimVisual/all_stimVisual/250.jpg	PRESENT	0.7378849983215332	464.84394693374634	466.84435296058655	467.8953049182892	468.2448899745941	470.9477369785309	4.103384017944336	[464.8498659133911, 464.9661920070648, 465.95081186294556, 466.1175060272217, 466.8682510852814, 466.9852600097656, 467.10196900367737, 467.21888494491577, 467.33554792404175, 467.45225405693054, 467.5691900253296, 467.68581104278564, 467.80268597602844, 467.9196710586548, 468.036395072937, 468.1531820297241, 468.27002000808716, 468.386834859848, 468.50347995758057, 468.6202518939972, 468.7202479839325, 468.94773507118225]	[464.84386762034705, 464.96053428701373, 465.94353428701373, 466.1102342870137, 466.8602342870137, 466.9769009536804, 467.0935676203471, 467.21023428701375, 467.3269009536804, 467.4435676203471, 467.56023428701377, 467.67690095368044, 467.7935676203471, 467.9102342870138, 468.02690095368047, 468.14356762034714, 468.2602342870138, 468.3769009536805, 468.49356762034716, 468.61023428701384, 468.7269009536805, 468.96023428701386]	2021_Feb_05_1728	59.94954540841778	1	1
26	78	FALSE	NN	v	['R', 'N', 'S', 'A', 'U', 'J', 'K', 'B', 'M', 'Z', 'V', 'P', 'C', 'H', 'Y', 'E']	[1587, 1335, 1731, 697, 2059, 1029, 1122, 760, 1224, 2911, 2245, 1456, 829, 986, 2670, 904]	14	Absent	NA	NA	ABSENT	0.3422830104827881	470.950059890747	472.96084785461426	474.2449798583984	474.5947690010071	477.064101934433	4.103254079818726	[470.95597887039185, 471.07335090637207, 472.05726885795593, 472.2241358757019, 472.9747049808502, 473.09160590171814, 473.2084610462189, 473.32521891593933, 473.4418580532074, 473.55893087387085, 473.67569494247437, 473.79251289367676, 473.909147977829, 474.0261309146881, 474.1428020000458, 474.25961089134216, 474.37672901153564, 474.49329686164856, 474.60997700691223, 474.7268249988556, 474.843523979187, 475.064101934433]	[470.96023428701386, 471.07690095368054, 472.05990095368054, 472.22660095368053, 472.97660095368053, 473.0932676203472, 473.2099342870139, 473.32660095368055, 473.4432676203472, 473.5599342870139, 473.6766009536806, 473.79326762034725, 473.9099342870139, 474.0266009536806, 474.1432676203473, 474.25993428701395, 474.3766009536806, 474.4932676203473, 474.60993428701397, 474.72660095368065, 474.8432676203473, 475.07660095368067]	2021_Feb_05_1728	59.94954540841778	1	1
26	79	FALSE	NN	v	['W', 'G', 'S', 'Z', 'P', 'V', 'N', 'E', 'Y', 'C', 'M', 'J', 'A', 'R', 'B', 'T']	[2448, 944, 1731, 2911, 1456, 2245, 1335, 904, 2670, 829, 1224, 1029, 697, 1587, 760, 1888]	8	Absent	NA	NA	ABSENT	0.32291698455810547	477.07330679893494	479.0771899223328	479.6610519886017	480.0109338760376	483.1804699897766	4.103280067443848	[477.0792269706726, 477.1961259841919, 478.18031096458435, 478.3473799228668, 479.09786105155945, 479.2148349285126, 479.3315739631653, 479.4483320713043, 479.56518387794495, 479.68217396736145, 479.79883885383606, 479.9156138896942, 480.0324718952179, 480.14902901649475, 480.26610493659973, 480.38288402557373, 480.499568939209, 480.6163818836212, 480.7332170009613, 480.84985995292664, 480.9665250778198, 481.1804699897766]	[477.07660095368067, 477.19326762034734, 478.17626762034735, 478.34296762034734, 479.09296762034734, 479.209634287014, 479.3263009536807, 479.44296762034736, 479.55963428701403, 479.6763009536807, 479.7929676203474, 479.90963428701406, 480.02630095368073, 480.1429676203474, 480.2596342870141, 480.37630095368075, 480.49296762034743, 480.6096342870141, 480.7263009536808, 480.84296762034745, 480.9596342870141, 481.1929676203475]	2021_Feb_05_1728	59.94954540841778	1	1
