participant	trial_num	practice	task	condition	RSVP	RAP	probePos	probe_presence	surprise_sound	surprise_img	probe_response	probe_resp_time	first_fixation_time	trial_start_time	surprise_start_time	probe_start_time	trial_end_time	trial_duration	actualEventTimes	plannedEventTimes	date	framerate	marker_vol	RAP_vol
26	1	FALSE	NV	a	['V', 'Y', 'K', 'G', 'R', 'H', 'N', 'X', 'E', 'A', 'M', 'P', 'C', 'J', 'S', 'Z']	[2245, 2670, 1122, 944, 1587, 986, 1335, 4000, 904, 697, 1224, 1456, 829, 1029, 1731, 2911]	8	Present	NA	NA	PRESENT	0.06711888313293457	3.0994415283203125e-6	1.9969611167907717	2.5803054173454103	2.930307324674043	6.1038689613342285	4.106907844543457	[0.012475967407226562, 0.11207199096679688, 1.0871949195861816, 1.2634050846099854, 2.0139479637145996, 2.130976915359497, 2.247663974761963, 2.3645288944244385, 2.4812350273132324, 2.598134994506836, 2.714884042739868, 2.8315160274505615, 2.9485580921173096, 3.065063953399658, 3.1819610595703125, 3.2987120151519775, 3.4156880378723145, 3.5329511165618896, 3.6493608951568604, 3.7660269737243652, 3.882643938064575, 4.103869915008545]	[9.5367431640625e-07, 0.11666762033431641, 1.0996676203343163, 1.2663676203343164, 2.016367620334316, 2.133034286994316, 2.249700953654316, 2.3663676203143162, 2.4830342869743163, 2.5997009536343163, 2.7163676202943163, 2.8330342869543164, 2.9497009536143164, 3.0663676202743164, 3.1830342869343164, 3.2997009535943165, 3.4163676202543165, 3.5330342869143165, 3.6497009535743166, 3.7663676202343166, 3.8830342868943166, 4.11636762022765]	2021_Feb_05_1705	59.917515817563384	1	0.375
26	2	FALSE	NA	a	['A', 'C', 'Y', 'Z', 'R', 'P', 'W', 'M', 'V', 'H', 'X', 'G', 'J', 'K', 'U', 'N']	[697, 829, 2670, 2911, 1587, 1456, 2448, 1224, 2245, 986, 4000, 944, 1029, 1122, 2059, 1335]	11	Present	NA	NA	PRESENT	0.8634111881256104	6.105998992919922	8.110315084457397	9.043656285550508	9.39365843129772	12.22023606300354	4.109920978546143	[6.118472099304199, 6.2353270053863525, 7.203561067581177, 7.386544942855835, 8.1373450756073, 8.254220962524414, 8.37087607383728, 8.487682104110718, 8.604619979858398, 8.72117805480957, 8.83798098564148, 8.954731941223145, 9.071582078933716, 9.188254117965698, 9.3053719997406, 9.422049045562744, 9.538830995559692, 9.655723094940186, 9.77225112915039, 9.889149904251099, 10.005849123001099, 10.22023606300354]	[6.11636762022765, 6.23303428688765, 7.216034286887649, 7.382734286887649, 8.132734286887649, 8.24940095354765, 8.36606762020765, 8.48273428686765, 8.59940095352765, 8.716067620187651, 8.832734286847652, 8.949400953507652, 9.066067620167653, 9.182734286827653, 9.299400953487654, 9.416067620147654, 9.532734286807655, 9.649400953467655, 9.766067620127656, 9.882734286787656, 9.999400953447656, 10.232734286780989]	2021_Feb_05_1705	59.917515817563384	1	0.375
26	3	FALSE	NN	a	['H', 'Z', 'Y', 'G', 'A', 'R', 'S', 'E', 'W', 'M', 'C', 'J', 'K', 'U', 'V', 'N']	[986, 2911, 2670, 944, 697, 1587, 1731, 904, 2448, 1224, 829, 1029, 1122, 2059, 2245, 1335]	13	Absent	NA	NA	ABSENT	0.868682861328125	12.229032039642334	14.226510047912598	15.393184820744288	15.74318672807292	18.336602926254272	4.110092878341675	[12.241504907608032, 12.341654062271118, 13.319926977157593, 13.492804050445557, 14.243676900863647, 14.360688924789429, 14.47736406326294, 14.594197988510132, 14.710777997970581, 14.82765507698059, 14.944359064102173, 15.061322927474976, 15.177989959716797, 15.294954061508179, 15.411622047424316, 15.528510093688965, 15.645360946655273, 15.761976957321167, 15.878895998001099, 15.995662927627563, 16.112550973892212, 16.336601972579956]	[12.232734286780989, 12.34940095344099, 13.33240095344099, 13.49910095344099, 14.24910095344099, 14.365767620100991, 14.482434286760991, 14.599100953420992, 14.715767620080992, 14.832434286740993, 14.949100953400993, 15.065767620060994, 15.182434286720994, 15.299100953380995, 15.415767620040995, 15.532434286700996, 15.649100953360996, 15.765767620020997, 15.882434286680997, 15.999100953340998, 16.115767620000998, 16.349100953334332]	2021_Feb_05_1705	59.917515817563384	1	0.375
26	4	FALSE	NN	a	['U', 'M', 'C', 'Y', 'J', 'E', 'Z', 'R', 'A', 'G', 'T', 'K', 'P', 'W', 'S', 'V']	[2059, 1224, 829, 2670, 1029, 904, 2911, 1587, 697, 944, 1888, 1122, 1456, 2448, 1731, 2245]	14	Absent	NA	NA	ABSENT	1.0332441329956057	18.33562707901001	20.343037128448486	21.626378329521597	21.976379283175913	24.452969074249268	4.109931945800781	[18.348099946975708, 18.46495294570923, 19.436293125152588, 19.61649799346924, 20.366923093795776, 20.483805894851685, 20.60052990913391, 20.7172749042511, 20.83399796485901, 20.950786113739014, 21.06767511367798, 21.184534072875977, 21.301388025283813, 21.41798710823059, 21.534770011901855, 21.651684045791626, 21.768476009368896, 21.88524103164673, 22.00188708305359, 22.11879801750183, 22.235647916793823, 22.452969074249268]	[18.349100953334332, 18.46576761999433, 19.44876761999433, 19.61546761999433, 20.36546761999433, 20.48213428665433, 20.598800953314328, 20.715467619974326, 20.832134286634325, 20.948800953294324, 21.065467619954322, 21.18213428661432, 21.29880095327432, 21.41546761993432, 21.532134286594317, 21.648800953254316, 21.765467619914315, 21.882134286574313, 21.998800953234312, 22.11546761989431, 22.23213428655431, 22.465467619887644]	2021_Feb_05_1705	59.917515817563384	1	0.375
26	5	FALSE	NV	a	['J', 'E', 'T', 'A', 'V', 'S', 'Z', 'P', 'K', 'W', 'C', 'M', 'N', 'X', 'Y', 'H']	[1029, 904, 1888, 697, 2245, 1731, 2911, 1456, 1122, 2448, 829, 1224, 1335, 4000, 2670, 986]	14	Present	NA	NA	PRESENT	0.8308751583099365	24.458821058273315	26.459391117095947	27.74273136449474	28.092733271823377	30.5693359375	4.109944820404053	[24.471292972564697, 24.58824610710144, 25.552661895751953, 25.73941206932068, 26.4900860786438, 26.60683512687683, 26.723814010620117, 26.840474128723145, 26.95726490020752, 27.057167053222656, 27.173934936523438, 27.29085111618042, 27.40757703781128, 27.524372100830078, 27.641168117523193, 27.757946014404297, 27.874753952026367, 27.99156093597412, 28.108330011367798, 28.22509503364563, 28.34204602241516, 28.5693359375]	[24.465467619887644, 24.582134286547642, 25.565134286547643, 25.73183428654764, 26.48183428654764, 26.59850095320764, 26.71516761986764, 26.831834286527638, 26.948500953187636, 27.065167619847635, 27.181834286507634, 27.298500953167633, 27.41516761982763, 27.53183428648763, 27.64850095314763, 27.765167619807627, 27.881834286467626, 27.998500953127625, 28.115167619787623, 28.231834286447622, 28.34850095310762, 28.581834286440955]	2021_Feb_05_1705	59.917515817563384	1	0.375
26	6	FALSE	NV	a	['K', 'P', 'S', 'U', 'B', 'V', 'G', 'Z', 'N', 'Y', 'A', 'C', 'X', 'T', 'J', 'E']	[1122, 1456, 1731, 2059, 760, 2245, 944, 2911, 1335, 2670, 697, 829, 4000, 1888, 1029, 904]	13	Present	NA	NA	PRESENT	0.20322012901306152	30.565359115600582	32.57599210739136	33.74266664180447	34.09266878755168	36.68570303916931	4.109710931777954	[30.577831983566284, 30.69466209411621, 31.66902804374695, 31.845678091049194, 32.59652090072632, 32.713526010513306, 32.830174922943115, 32.94712710380554, 33.06374907493591, 33.18044400215149, 33.297364950180054, 33.41393303871155, 33.5312979221344, 33.64752411842346, 33.764540910720825, 33.88132691383362, 33.998071908950806, 34.114928007125854, 34.2316529750824, 34.34839105606079, 34.46527290344238, 34.68570399284363]	[30.581834286440955, 30.698500953100954, 31.681500953100954, 31.848200953100953, 32.59820095310096, 32.71486761976096, 32.83153428642096, 32.94820095308096, 33.064867619740966, 33.18153428640097, 33.29820095306097, 33.41486761972097, 33.531534286380975, 33.64820095304098, 33.76486761970098, 33.88153428636098, 33.998200953020984, 34.114867619680986, 34.23153428634099, 34.34820095300099, 34.46486761966099, 34.69820095299433]	2021_Feb_05_1705	59.917515817563384	1	0.375
26	7	FALSE	NN	a	['C', 'J', 'R', 'E', 'Z', 'W', 'M', 'S', 'K', 'A', 'Y', 'V', 'H', 'B', 'N', 'T']	[829, 1029, 1587, 904, 2911, 2448, 1224, 1731, 1122, 697, 2670, 2245, 986, 760, 1335, 1888]	13	Absent	NA	NA	ABSENT	0.4959261417388916	36.68848395347595	38.69195103645325	39.85862580928494	40.20862771661357	42.80206990242005	4.110118865966797	[36.70095610618591, 36.817842960357666, 37.78539299964905, 37.96899104118347, 38.71981596946716, 38.83665204048157, 38.95345401763916, 39.0701699256897, 39.186819076538086, 39.3040668964386, 39.420562982559204, 39.53730010986328, 39.65418004989624, 39.770955085754395, 39.88750696182251, 40.00446391105652, 40.12136697769165, 40.23790907859802, 40.35486698150635, 40.47163200378418, 40.58838510513306, 40.80206894874573]	[36.69820095299433, 36.81486761965433, 37.797867619654326, 37.964567619654325, 38.714567619654325, 38.83123428631433, 38.94790095297433, 39.06456761963433, 39.181234286294334, 39.297900952954336, 39.41456761961434, 39.53123428627434, 39.64790095293434, 39.764567619594345, 39.88123428625435, 39.99790095291435, 40.11456761957435, 40.231234286234354, 40.347900952894356, 40.46456761955436, 40.58123428621436, 40.814567619547695]	2021_Feb_05_1705	59.917515817563384	1	0.375
26	8	FALSE	NV	a	['H', 'U', 'Z', 'W', 'P', 'T', 'G', 'C', 'M', 'A', 'B', 'K', 'X', 'S', 'V', 'R']	[986, 2059, 2911, 2448, 1456, 1888, 944, 829, 1224, 697, 760, 1122, 4000, 1731, 2245, 1587]	13	Present	NA	NA	PRESENT	0.3970670700073242	42.811772108078	44.80845499038696	45.97513071689297	46.3251326242216	48.91843605041504	4.109981060028076	[42.824256896972656, 42.92406511306763, 43.90176010131836, 44.075275897979736, 44.82612895965576, 44.94289803504944, 45.059699058532715, 45.176762104034424, 45.29341912269592, 45.41027903556824, 45.526942014694214, 45.64377808570862, 45.760634899139404, 45.877357006073, 45.994296073913574, 46.111023902893066, 46.22783303260803, 46.34445095062256, 46.461342096328735, 46.578020095825195, 46.69499897956848, 46.91843605041504]	[42.814567619547695, 42.9312342862077, 43.914234286207694, 44.08093428620769, 44.83093428620769, 44.947600952867695, 45.0642676195277, 45.1809342861877, 45.2976009528477, 45.414267619507704, 45.53093428616771, 45.64760095282771, 45.76426761948771, 45.88093428614771, 45.997600952807716, 46.11426761946772, 46.23093428612772, 46.34760095278772, 46.464267619447725, 46.58093428610773, 46.69760095276773, 46.93093428610106]	2021_Feb_05_1705	59.917515817563384	1	0.375
26	9	FALSE	NA	a	['J', 'Z', 'R', 'N', 'A', 'W', 'M', 'G', 'Y', 'V', 'S', 'K', 'X', 'E', 'H', 'T']	[1029, 2911, 1587, 1335, 697, 2448, 1224, 944, 2670, 2245, 1731, 1122, 4000, 904, 986, 1888]	13	Present	NA	NA	PRESENT	0.4821949005126953	48.918177127838135	50.92467498779297	52.09134976062466	52.44135166795329	55.03480291366577	4.110127925872803	[48.93064999580383, 49.04748296737671, 50.01812505722046, 50.199033975601196, 50.94946503639221, 51.066253900527954, 51.18285608291626, 51.299668073654175, 51.416749000549316, 51.53346800804138, 51.650278091430664, 51.76704502105713, 51.88367509841919, 52.00065207481384, 52.11733794212341, 52.233980894088745, 52.35092902183533, 52.46757102012634, 52.58459711074829, 52.70132303237915, 52.818119049072266, 53.03480410575867]	[48.93093428610106, 49.047600952761066, 50.03060095276106, 50.19730095276106, 50.94730095276106, 51.063967619421064, 51.180634286081066, 51.29730095274107, 51.41396761940107, 51.53063428606107, 51.647300952721075, 51.76396761938108, 51.88063428604108, 51.99730095270108, 52.113967619361084, 52.230634286021086, 52.34730095268109, 52.46396761934109, 52.58063428600109, 52.697300952661095, 52.8139676193211, 53.04730095265443]	2021_Feb_05_1705	59.917515817563384	1	0.375
26	10	FALSE	NV	a	['V', 'Z', 'W', 'H', 'P', 'S', 'G', 'N', 'M', 'A', 'B', 'K', 'X', 'T', 'C', 'R']	[2245, 2911, 2448, 986, 1456, 1731, 944, 1335, 1224, 697, 760, 1122, 4000, 1888, 829, 1587]	13	Present	NA	NA	PRESENT	0.5588958263397217	55.04141402244568	57.04150700569153	58.20818177852322	58.55818368585185	61.15117001533508	4.109663009643555	[55.053887128829956, 55.170515060424805, 56.1344940662384, 56.32180309295654, 57.07253313064575, 57.1725549697876, 57.28941106796265, 57.40611910820007, 57.52296495437622, 57.63977599143982, 57.75654196739197, 57.873384952545166, 57.99003195762634, 58.106849908828735, 58.22382211685181, 58.34042501449585, 58.45730495452881, 58.574026107788086, 58.69099402427673, 58.80759000778198, 58.9245719909668, 59.15117001533508]	[55.04730095265443, 55.163967619314434, 56.14696761931443, 56.31366761931443, 57.06366761931443, 57.18033428597443, 57.297000952634434, 57.413667619294436, 57.53033428595444, 57.64700095261444, 57.76366761927444, 57.880334285934445, 57.99700095259445, 58.11366761925445, 58.23033428591445, 58.347000952574454, 58.46366761923446, 58.58033428589446, 58.69700095255446, 58.81366761921446, 58.930334285874466, 59.1636676192078]	2021_Feb_05_1705	59.917515817563384	1	0.375
26	11	FALSE	AV	a	['A', 'W', 'R', 'K', 'S', 'T', 'Y', 'Z', 'surprise', 'M', 'C', 'X', 'N', 'B', 'J', 'H']	[697, 2448, 1587, 1122, 1731, 1888, 2670, 2911, 'stimAuditory/all_stimAuditory/206.wav', 1224, 829, 4000, 1335, 760, 1029, 986]	12	Present	stimAuditory/all_stimAuditory/206.wav	NA	PRESENT	0.5956439971923828	61.1477370262146	63.1578049659729	64.20781307214459	64.55781497947322	67.2675359249115	4.109730958938599	[61.1602098941803, 61.27723407745361, 62.250860929489136, 62.42834711074829, 63.179054975509644, 63.29593110084534, 63.412672996520996, 63.52948498725891, 63.646323919296265, 63.76310205459595, 63.87987804412842, 63.996711015701294, 64.11342692375183, 64.2300980091095, 64.34702897071838, 64.46354413032532, 64.58061695098877, 64.69727206230164, 64.81427001953125, 64.93092799186707, 65.04785203933716, 65.2675371170044]	[61.1636676192078, 61.2803342858678, 62.2633342858678, 62.4300342858678, 63.1800342858678, 63.2967009525278, 63.4133676191878, 63.530034285847805, 63.64670095250781, 63.76336761916781, 63.88003428582781, 63.996700952487814, 64.11336761914781, 64.2300342858078, 64.3467009524678, 64.4633676191278, 64.58003428578779, 64.69670095244778, 64.81336761910778, 64.93003428576777, 65.04670095242777, 65.2800342857611]	2021_Feb_05_1705	59.917515817563384	1	0.375
26	12	FALSE	NV	a	['R', 'N', 'V', 'Z', 'P', 'H', 'M', 'U', 'B', 'E', 'J', 'X', 'A', 'Y', 'S', 'C']	[1587, 1335, 2245, 2911, 1456, 986, 1224, 2059, 760, 904, 1029, 4000, 697, 2670, 1731, 829]	12	Present	NA	NA	PRESENT	0.05608081817626953	67.27081203460693	69.27395105361938	70.32395915979107	70.67396202079402	73.3839020729065	4.109951019287109	[67.28328609466553, 67.4003438949585, 68.36722707748413, 68.55142092704773, 69.30241298675537, 69.41910290718079, 69.53594303131104, 69.65265703201294, 69.76924991607666, 69.88616299629211, 70.00294399261475, 70.11978101730347, 70.23650193214417, 70.35334706306458, 70.47005295753479, 70.58698606491089, 70.70371103286743, 70.82037591934204, 70.93736410140991, 71.0541479587555, 71.17091393470764, 71.38390398025513]	[67.2800342857611, 67.3967009524211, 68.3797009524211, 68.54640095242111, 69.29640095242111, 69.4130676190811, 69.5297342857411, 69.6464009524011, 69.76306761906109, 69.87973428572109, 69.99640095238108, 70.11306761904108, 70.22973428570107, 70.34640095236107, 70.46306761902106, 70.57973428568106, 70.69640095234105, 70.81306761900105, 70.92973428566104, 71.04640095232104, 71.16306761898103, 71.39640095231437]	2021_Feb_05_1705	59.917515817563384	1	0.375
26	13	FALSE	NA	a	['Z', 'R', 'M', 'J', 'K', 'C', 'V', 'A', 'S', 'H', 'X', 'G', 'T', 'U', 'E', 'B']	[2911, 1587, 1224, 1029, 1122, 829, 2245, 697, 1731, 986, 4000, 944, 1888, 2059, 904, 760]	11	Present	NA	NA	PRESENT	0.2053840160369873	73.3773500919342	75.39017295837402	76.3235134442114	76.67351535154003	79.50026893615723	4.110095977783203	[73.3898229598999, 73.50655889511108, 74.48359107971191, 74.65784406661987, 75.40863704681396, 75.52553105354309, 75.64242911338806, 75.75919198989868, 75.87602090835571, 75.99280405044556, 76.10966992378235, 76.22638511657715, 76.34316897392273, 76.45979499816895, 76.57648396492004, 76.69327998161316, 76.81015205383301, 76.92676091194153, 77.0436429977417, 77.16057801246643, 77.27740097045898, 77.50026893615723]	[73.39640095231437, 73.51306761897436, 74.49606761897437, 74.66276761897437, 75.41276761897437, 75.52943428563437, 75.64610095229436, 75.76276761895436, 75.87943428561435, 75.99610095227435, 76.11276761893434, 76.22943428559434, 76.34610095225433, 76.46276761891433, 76.57943428557432, 76.69610095223432, 76.81276761889431, 76.92943428555431, 77.0461009522143, 77.1627676188743, 77.2794342855343, 77.51276761886763]	2021_Feb_05_1705	59.917515817563384	1	0.375
26	14	FALSE	NN	a	['C', 'W', 'J', 'U', 'Z', 'S', 'B', 'A', 'E', 'N', 'G', 'K', 'M', 'V', 'T', 'H']	[829, 2448, 1029, 2059, 2911, 1731, 760, 697, 904, 1335, 944, 1122, 1224, 2245, 1888, 986]	8	Absent	NA	NA	ABSENT	0.4500458240509033	79.50086498260498	81.50659894943237	82.08993943528975	82.43994134261838	85.61663603782654	4.110037088394165	[79.51333904266357, 79.62981104850769, 80.59996199607849, 80.78111600875854, 81.53186011314392, 81.64844989776611, 81.76525092124939, 81.88204312324524, 81.99898290634155, 82.11573004722595, 82.23281192779541, 82.34945392608643, 82.46607708930969, 82.58302211761475, 82.69976592063904, 82.81654405593872, 82.93337392807007, 83.05015397071838, 83.16698694229126, 83.28379392623901, 83.40066695213318, 83.61663699150085]	[79.51276761886763, 79.62943428552762, 80.61243428552763, 80.77913428552763, 81.52913428552763, 81.64580095218763, 81.76246761884762, 81.87913428550762, 81.99580095216761, 82.11246761882761, 82.2291342854876, 82.3458009521476, 82.4624676188076, 82.57913428546759, 82.69580095212758, 82.81246761878758, 82.92913428544757, 83.04580095210757, 83.16246761876756, 83.27913428542756, 83.39580095208755, 83.62913428542089]	2021_Feb_05_1705	59.917515817563384	1	0.375
26	15	FALSE	NA	a	['Z', 'C', 'T', 'M', 'E', 'V', 'W', 'X', 'K', 'A', 'S', 'B', 'H', 'P', 'R', 'J']	[2911, 829, 1888, 1224, 904, 2245, 2448, 4000, 1122, 697, 1731, 760, 986, 1456, 1587, 1029]	8	Present	NA	NA	PRESENT	0.0553750991821289	85.62393498420715	87.62292909622192	88.20627029733504	88.55627244308225	91.73300194740295	4.11007285118103	[85.63640809059143, 85.75293493270874, 86.71632790565491, 86.9043710231781, 87.65510702133179, 87.75502109527588, 87.87184596061707, 87.98866391181946, 88.10555696487427, 88.2221999168396, 88.33892893791199, 88.45574593544006, 88.57273006439209, 88.68938994407654, 88.80637907981873, 88.92303204536438, 89.03987503051758, 89.15641713142395, 89.27384901046753, 89.39017796516418, 89.50721311569214, 89.73300290107727]	[85.62913428542089, 85.74580095208088, 86.72880095208089, 86.8955009520809, 87.6455009520809, 87.76216761874089, 87.87883428540088, 87.99550095206088, 88.11216761872087, 88.22883428538087, 88.34550095204087, 88.46216761870086, 88.57883428536086, 88.69550095202085, 88.81216761868085, 88.92883428534084, 89.04550095200084, 89.16216761866083, 89.27883428532083, 89.39550095198082, 89.51216761864082, 89.74550095197415]	2021_Feb_05_1705	59.917515817563384	1	0.375
26	16	FALSE	NA	a	['W', 'Y', 'R', 'A', 'B', 'N', 'C', 'E', 'P', 'X', 'J', 'Z', 'K', 'V', 'S', 'M']	[2448, 2670, 1587, 697, 760, 1335, 829, 904, 1456, 4000, 1029, 2911, 1122, 2245, 1731, 1224]	10	Present	NA	NA	PRESENT	0.2759270668029785	91.73015809059144	93.73938393592834	94.55605870878004	94.90606061610866	97.84936904907228	4.109985113143921	[91.74263095855713, 91.8595449924469, 92.8326940536499, 93.01072001457214, 93.7615270614624, 93.87825393676758, 93.9951229095459, 94.1119921207428, 94.22871994972229, 94.34555912017822, 94.46245193481445, 94.57902097702026, 94.69603490829468, 94.81270909309387, 94.92961597442627, 95.04612994194031, 95.16292405128479, 95.27983713150024, 95.39657807350159, 95.5132999420166, 95.63003897666931, 95.84937000274658]	[91.74550095197415, 91.86216761863415, 92.84516761863415, 93.01186761863416, 93.76186761863416, 93.87853428529415, 93.99520095195415, 94.11186761861414, 94.22853428527414, 94.34520095193413, 94.46186761859413, 94.57853428525412, 94.69520095191412, 94.81186761857411, 94.92853428523411, 95.0452009518941, 95.1618676185541, 95.27853428521409, 95.39520095187409, 95.51186761853408, 95.62853428519408, 95.86186761852741]	2021_Feb_05_1705	59.917515817563384	1	0.375
26	17	FALSE	AA	a	['R', 'Z', 'W', 'N', 'H', 'surprise', 'U', 'E', 'X', 'V', 'P', 'Y', 'S', 'A', 'J', 'C']	[1587, 2911, 2448, 1335, 986, 'stimAuditory/all_stimAuditory/108.wav', 2059, 904, 4000, 2245, 1456, 2670, 1731, 697, 1029, 829]	9	Present	stimAuditory/all_stimAuditory/108.wav	NA	PRESENT	0.3203399181365967	97.8535270690918	99.85588216781616	100.5558909892636	100.9058919429179	103.965735912323	4.109853744506836	[97.86602306365967, 97.98275303840637, 98.949059009552, 99.13378310203552, 99.88494896888733, 100.00155591964722, 100.11835098266602, 100.23506093025208, 100.35199809074402, 100.46872997283936, 100.58537101745605, 100.70227408409119, 100.81900906562805, 100.93594598770142, 101.05254411697388, 101.16954803466797, 101.28623509407043, 101.40292596817017, 101.51983904838562, 101.63670301437378, 101.75332903862, 101.9657371044159]	[97.86186761852741, 97.97853428518741, 98.96153428518741, 99.12823428518742, 99.87823428518742, 99.99490095184741, 100.11156761850741, 100.2282342851674, 100.3449009518274, 100.4615676184874, 100.57823428514739, 100.69490095180738, 100.81156761846738, 100.92823428512737, 101.04490095178737, 101.16156761844736, 101.27823428510736, 101.39490095176735, 101.51156761842735, 101.62823428508734, 101.74490095174734, 101.97823428508067]	2021_Feb_05_1705	59.917515817563384	1	0.375
26	18	FALSE	NA	a	['K', 'U', 'P', 'S', 'T', 'J', 'N', 'Z', 'C', 'R', 'W', 'Y', 'X', 'H', 'E', 'M']	[1122, 2059, 1456, 1731, 1888, 1029, 1335, 2911, 829, 1587, 2448, 2670, 4000, 986, 904, 1224]	13	Present	NA	NA	PRESENT	0.4456291198730469	103.95978999137878	105.97253704071044	107.13921062144924	107.48921372087077	110.082102060318	4.109565019607544	[103.97226190567017, 104.08918809890747, 105.06542611122131, 105.24029898643494, 105.99108004570007, 106.10791301727295, 106.22480511665344, 106.34168791770935, 106.45844602584839, 106.57524108886719, 106.69207906723022, 106.80864810943604, 106.92541003227234, 107.04234504699707, 107.15925908088684, 107.27586913108826, 107.3926100730896, 107.50947189331055, 107.62622308731079, 107.74300193786621, 107.85996103286743, 108.08210396766663]	[103.97823428508067, 104.09490095174067, 105.07790095174067, 105.24460095174068, 105.99460095174068, 106.11126761840067, 106.22793428506067, 106.34460095172066, 106.46126761838066, 106.57793428504066, 106.69460095170065, 106.81126761836065, 106.92793428502064, 107.04460095168064, 107.16126761834063, 107.27793428500063, 107.39460095166062, 107.51126761832062, 107.62793428498061, 107.7446009516406, 107.8612676183006, 108.09460095163394]	2021_Feb_05_1705	59.917515817563384	1	0.375
26	19	FALSE	NN	a	['G', 'S', 'Z', 'P', 'K', 'Y', 'A', 'N', 'W', 'M', 'V', 'H', 'J', 'B', 'C', 'E']	[944, 1731, 2911, 1456, 1122, 2670, 697, 1335, 2448, 1224, 2245, 986, 1029, 760, 829, 904]	8	Absent	NA	NA	ABSENT	0.8103790283203125	110.08339095115662	112.08836793899536	112.67170937852704	113.02171128585567	116.19846892356873	4.110100984573364	[110.0958640575409, 110.2122130393982, 111.18179512023926, 111.36349511146545, 112.11441206932068, 112.2312319278717, 112.34805607795715, 112.4646430015564, 112.58160305023193, 112.69837403297424, 112.8151741027832, 112.93199896812439, 113.048574924469, 113.16558504104614, 113.28222990036011, 113.39916491508484, 113.515939950943, 113.63267302513123, 113.74955296516418, 113.86623311042786, 113.98279809951782, 114.19847011566162]	[110.09460095163394, 110.21126761829393, 111.19426761829394, 111.36096761829394, 112.11096761829394, 112.22763428495394, 112.34430095161393, 112.46096761827393, 112.57763428493392, 112.69430095159392, 112.81096761825391, 112.9276342849139, 113.0443009515739, 113.1609676182339, 113.27763428489389, 113.39430095155389, 113.51096761821388, 113.62763428487388, 113.74430095153387, 113.86096761819387, 113.97763428485386, 114.2109676181872]	2021_Feb_05_1705	59.917515817563384	1	0.375
26	20	FALSE	VV	a	['K', 'B', 'A', 'J', 'E', 'H', 'C', 'G', 'S', 'surprise', 'Z', 'U', 'X', 'V', 'N', 'R']	[1122, 760, 697, 1029, 904, 986, 829, 944, 1731, 'stimAuditory/all_stimAuditory/107.wav', 2911, 2059, 4000, 2245, 1335, 1587]	13	Present	NA	NA	PRESENT	0.9517390727996826	116.2062690258026	118.20488595962524	119.3715597787826	119.72156168611124	122.31483602523804	4.109950065612793	[116.21874189376831, 116.33550500869751, 117.29816007614136, 117.46993803977966, 118.23760104179382, 118.33749389648438, 118.45430493354797, 118.57107496261597, 118.68806004524231, 118.80483198165894, 118.92168712615967, 119.03831195831299, 119.15532612800598, 119.27224802970886, 119.38889694213867, 119.50540900230408, 119.62222290039062, 119.73903894424438, 119.8559160232544, 119.97252893447876, 120.08949494361877, 120.31483602523804]	[116.2109676181872, 116.32763428484719, 117.3106342848472, 117.4773342848472, 118.2273342848472, 118.3440009515072, 118.4606676181672, 118.57733428482719, 118.69400095148718, 118.81066761814718, 118.92733428480717, 119.04400095146717, 119.16066761812716, 119.27733428478716, 119.39400095144715, 119.51066761810715, 119.62733428476714, 119.74400095142714, 119.86066761808713, 119.97733428474713, 120.09400095140712, 120.32733428474046]	2021_Feb_05_1705	59.917515817563384	1	0.375
26	21	FALSE	NA	a	['R', 'C', 'N', 'V', 'S', 'H', 'E', 'Y', 'J', 'X', 'T', 'Z', 'A', 'M', 'B', 'P']	[1587, 829, 1335, 2245, 1731, 986, 904, 2670, 1029, 4000, 1888, 2911, 697, 1224, 760, 1456]	10	Present	NA	NA	PRESENT	0.06027698516845703	122.31270503997804	124.32109808921814	125.13777166997691	125.48777381572414	128.43120193481445	4.1101038455963135	[122.32517790794373, 122.44210004806519, 123.41452312469482, 123.5934510231018, 124.34395003318787, 124.46071910858154, 124.57765102386475, 124.69438195228577, 124.81132793426514, 124.9279351234436, 125.04499793052673, 125.16153812408447, 125.27842712402344, 125.39511489868164, 125.5120050907135, 125.62869310379028, 125.7452940940857, 125.86232399940491, 125.9791750907898, 126.09589195251465, 126.21261692047119, 126.43120193481445]	[122.32733428474046, 122.44400095140045, 123.42700095140046, 123.59370095140046, 124.34370095140046, 124.46036761806046, 124.57703428472045, 124.69370095138045, 124.81036761804044, 124.92703428470044, 125.04370095136044, 125.16036761802043, 125.27703428468043, 125.39370095134042, 125.51036761800042, 125.62703428466041, 125.7437009513204, 125.8603676179804, 125.9770342846404, 126.09370095130039, 126.21036761796039, 126.44370095129372]	2021_Feb_05_1705	59.917515817563384	1	0.375
26	22	FALSE	NV	a	['K', 'V', 'S', 'E', 'J', 'B', 'N', 'T', 'X', 'Z', 'R', 'A', 'H', 'W', 'M', 'C']	[1122, 2245, 1731, 904, 1029, 760, 1335, 1888, 4000, 2911, 1587, 697, 986, 2448, 1224, 829]	9	Present	NA	NA	PRESENT	1.60870099067688	128.43594908714294	130.4375331401825	131.1375410079556	131.48754315370283	134.54756999015808	4.110036849975586	[128.44842195510864, 128.56504106521606, 129.53089499473572, 129.71677494049072, 130.46719908714294, 130.5838758945465, 130.70073008537292, 130.81770205497742, 130.93430495262146, 131.05121493339539, 131.16800689697266, 131.28463697433472, 131.40139198303223, 131.5183699131012, 131.63503193855286, 131.75202798843384, 131.86888599395752, 131.9685709476471, 132.08540296554565, 132.2022681236267, 132.31901812553406, 132.54756999015808]	[128.44370095129372, 128.56036761795372, 129.54336761795372, 129.7100676179537, 130.4600676179537, 130.5767342846137, 130.6934009512737, 130.8100676179337, 130.9267342845937, 131.0434009512537, 131.16006761791368, 131.27673428457368, 131.39340095123367, 131.51006761789367, 131.62673428455366, 131.74340095121366, 131.86006761787365, 131.97673428453365, 132.09340095119364, 132.21006761785364, 132.32673428451363, 132.56006761784695]	2021_Feb_05_1705	59.917515817563384	1	0.375
26	23	FALSE	NA	a	['B', 'N', 'A', 'H', 'C', 'W', 'J', 'K', 'G', 'T', 'M', 'R', 'E', 'X', 'Z', 'S']	[760, 1335, 697, 986, 829, 2448, 1029, 1122, 944, 1888, 1224, 1587, 904, 4000, 2911, 1731]	14	Present	NA	NA	PRESENT	1.094041109085083	134.54230999946594	136.55385398864746	137.83719447446484	138.18719638179346	140.6639358997345	4.110081911087036	[134.55478310585022, 134.6717290878296, 135.64726090431213, 135.82289004325867, 136.5736289024353, 136.6903200149536, 136.80734395980835, 136.92399191856384, 137.04086804389954, 137.15753602981567, 137.27439093589783, 137.39113092422485, 137.50798511505127, 137.62473607063293, 137.74162912368774, 137.8583219051361, 137.97531700134277, 138.09189701080322, 138.20893692970276, 138.32565307617188, 138.44215512275696, 138.6639370918274]	[134.56006761784695, 134.67673428450695, 135.65973428450695, 135.82643428450695, 136.57643428450695, 136.69310095116694, 136.80976761782694, 136.92643428448693, 137.04310095114693, 137.15976761780692, 137.27643428446692, 137.3931009511269, 137.5097676177869, 137.6264342844469, 137.7431009511069, 137.8597676177669, 137.9764342844269, 138.09310095108688, 138.20976761774688, 138.32643428440687, 138.44310095106687, 138.6764342844002]	2021_Feb_05_1705	59.917515817563384	1	0.375
26	24	FALSE	NV	a	['H', 'Z', 'W', 'A', 'T', 'P', 'C', 'X', 'Y', 'M', 'B', 'N', 'V', 'J', 'R', 'S']	[986, 2911, 2448, 697, 1888, 1456, 829, 4000, 2670, 1224, 760, 1335, 2245, 1029, 1587, 1731]	8	Present	NA	NA	PRESENT	0.33052587509155273	140.66564297676086	142.67032194137573	143.25366338090743	143.60366433456173	146.7803030014038	4.109981060028076	[140.67811608314514, 140.79485201835632, 141.76362705230713, 141.9461328983307, 142.69678711891174, 142.81362390518188, 142.93027305603027, 143.04725193977356, 143.16401410102844, 143.28096795082092, 143.397607088089, 143.5143051147461, 143.63125610351562, 143.74789094924927, 143.86460995674133, 143.98162293434143, 144.09828805923462, 144.2151288986206, 144.33178901672363, 144.4488809108734, 144.56548810005188, 144.7803020477295]	[140.6764342844002, 140.79310095106018, 141.7761009510602, 141.94280095106018, 142.69280095106018, 142.80946761772017, 142.92613428438017, 143.04280095104016, 143.15946761770016, 143.27613428436015, 143.39280095102015, 143.50946761768014, 143.62613428434014, 143.74280095100013, 143.85946761766013, 143.97613428432012, 144.09280095098012, 144.20946761764012, 144.3261342843001, 144.4428009509601, 144.5594676176201, 144.79280095095342]	2021_Feb_05_1705	59.917515817563384	1	0.375
26	25	FALSE	NN	a	['C', 'G', 'J', 'H', 'V', 'Y', 'M', 'E', 'Z', 'P', 'S', 'R', 'A', 'U', 'K', 'B']	[829, 944, 1029, 986, 2245, 2670, 1224, 904, 2911, 1456, 1731, 1587, 697, 2059, 1122, 760]	11	Absent	NA	NA	ABSENT	1.0318429470062256	146.7887589931488	148.7865550518036	149.71989649131527	150.06989839864391	152.89667010307312	4.110115051269531	[146.80124497413635, 146.91801810264587, 147.87999391555786, 148.05238699913025, 148.81989693641663, 148.9201259613037, 149.03696703910828, 149.153568983078, 149.27083611488342, 149.38712811470032, 149.50411295890808, 149.620952129364, 149.73764491081238, 149.85430312156677, 149.97131490707397, 150.0880000591278, 150.20489811897278, 150.32155013084412, 150.43849110603333, 150.55520009994507, 150.67206597328186, 150.89666891098022]	[146.79280095095342, 146.90946761761342, 147.89246761761342, 148.0591676176134, 148.8091676176134, 148.9258342842734, 149.0425009509334, 149.1591676175934, 149.2758342842534, 149.3925009509134, 149.50916761757338, 149.62583428423338, 149.74250095089337, 149.85916761755337, 149.97583428421336, 150.09250095087336, 150.20916761753335, 150.32583428419335, 150.44250095085334, 150.55916761751334, 150.67583428417333, 150.90916761750665]	2021_Feb_05_1705	59.917515817563384	1	0.375
26	26	FALSE	NV	a	['Y', 'W', 'J', 'P', 'H', 'A', 'G', 'X', 'K', 'U', 'Z', 'N', 'R', 'S', 'V', 'C']	[2670, 2448, 1029, 1456, 986, 697, 944, 4000, 1122, 2059, 2911, 1335, 1587, 1731, 2245, 829]	8	Present	NA	NA	PRESENT	0.4604208469390869	152.89501309394836	154.90291810035706	155.48625834779585	155.83626049354305	159.01303601264954	4.1101179122924805	[152.90748596191406, 153.0243980884552, 153.99635791778564, 154.1756250858307, 154.92658710479736, 155.04317092895508, 155.16008591651917, 155.2767789363861, 155.39350605010986, 155.51038694381714, 155.6272840499878, 155.74377989768982, 155.86090993881226, 155.97764205932617, 156.09448790550232, 156.2112500667572, 156.32792210578918, 156.44490003585815, 156.56143808364868, 156.6783139705658, 156.7950599193573, 157.01303601264954]	[152.90916761750665, 153.02583428416665, 154.00883428416665, 154.17553428416664, 154.92553428416664, 155.04220095082664, 155.15886761748664, 155.27553428414663, 155.39220095080663, 155.50886761746662, 155.62553428412662, 155.7422009507866, 155.8588676174466, 155.9755342841066, 156.0922009507666, 156.2088676174266, 156.3255342840866, 156.44220095074658, 156.55886761740658, 156.67553428406657, 156.79220095072657, 157.0255342840599]	2021_Feb_05_1705	59.917515817563384	1	0.375
26	27	FALSE	NA	a	['V', 'K', 'R', 'J', 'N', 'U', 'Y', 'H', 'E', 'S', 'T', 'X', 'C', 'W', 'B', 'P']	[2245, 1122, 1587, 1029, 1335, 2059, 2670, 986, 904, 1731, 1888, 4000, 829, 2448, 760, 1456]	12	Present	NA	NA	PRESENT	0.5138189792633057	159.01894211769104	161.01934909820557	162.0693569659587	162.4193591117059	165.12940311431885	4.110054016113281	[159.03141593933105, 159.14777612686157, 160.11272597312927, 160.29923510551453, 161.04959893226624, 161.1663739681244, 161.28317403793335, 161.39986991882324, 161.5168809890747, 161.63357090950012, 161.7504870891571, 161.86710596084595, 161.96707391738892, 162.1006920337677, 162.2007191181183, 162.31758308410645, 162.4342920780182, 162.5511429309845, 162.66792011260986, 162.7847249507904, 162.90151000022888, 163.12940192222595]	[159.0255342840599, 159.14220095071988, 160.1252009507199, 160.29190095071988, 161.04190095071988, 161.15856761737987, 161.27523428403987, 161.39190095069986, 161.50856761735986, 161.62523428401985, 161.74190095067985, 161.85856761733984, 161.97523428399984, 162.09190095065983, 162.20856761731983, 162.32523428397982, 162.44190095063982, 162.55856761729981, 162.6752342839598, 162.7919009506198, 162.9085676172798, 163.14190095061312]	2021_Feb_05_1705	59.917515817563384	1	0.375
26	28	FALSE	NA	a	['K', 'J', 'A', 'B', 'W', 'M', 'P', 'U', 'X', 'C', 'E', 'Y', 'H', 'S', 'Z', 'R']	[1122, 1029, 697, 760, 2448, 1224, 1456, 2059, 4000, 829, 904, 2670, 986, 1731, 2911, 1587]	9	Present	NA	NA	PRESENT	0.5903899669647217	165.1248550415039	167.13571095466614	167.83571906085783	168.18572096818647	171.24576902389526	4.110058069229126	[165.1373279094696, 165.2541699409485, 166.2290940284729, 166.40534710884094, 167.15609908103943, 167.2728509902954, 167.3897340297699, 167.50640106201172, 167.623291015625, 167.74012804031372, 167.85701608657837, 167.97359609603882, 168.09062600135803, 168.2073199748993, 168.3240818977356, 168.44097089767456, 168.55744695663452, 168.67455291748047, 168.7911810874939, 168.90799713134766, 169.02470803260803, 169.24576902389526]	[165.14190095061312, 165.25856761727312, 166.24156761727312, 166.4082676172731, 167.1582676172731, 167.2749342839331, 167.3916009505931, 167.5082676172531, 167.6249342839131, 167.7416009505731, 167.85826761723308, 167.97493428389308, 168.09160095055307, 168.20826761721307, 168.32493428387306, 168.44160095053306, 168.55826761719305, 168.67493428385305, 168.79160095051304, 168.90826761717304, 169.02493428383303, 169.25826761716635]	2021_Feb_05_1705	59.917515817563384	1	0.375
26	29	FALSE	NV	a	['E', 'M', 'Y', 'U', 'H', 'C', 'P', 'A', 'Z', 'X', 'J', 'K', 'T', 'G', 'B', 'S']	[904, 1224, 2670, 2059, 986, 829, 1456, 697, 2911, 4000, 1029, 1122, 1888, 944, 760, 1731]	10	Present	NA	NA	PRESENT	0.6028010845184326	171.24840807914734	173.25242114067078	174.06909567510388	174.4190978208511	177.3621370792389	4.109715938568115	[171.26088190078735, 171.37715697288513, 172.34546208381653, 172.52861189842224, 173.27939009666443, 173.39613890647888, 173.51284289360046, 173.62971901893616, 173.74650597572327, 173.86334109306335, 173.98010993003845, 174.09681010246277, 174.21360802650452, 174.3304579257965, 174.44733810424805, 174.5640959739685, 174.6807680130005, 174.7976770401001, 174.9143190383911, 175.03117299079895, 175.14793300628662, 175.3621370792389]	[171.25826761716635, 171.37493428382635, 172.35793428382635, 172.52463428382634, 173.27463428382634, 173.39130095048634, 173.50796761714633, 173.62463428380633, 173.74130095046633, 173.85796761712632, 173.97463428378632, 174.0913009504463, 174.2079676171063, 174.3246342837663, 174.4413009504263, 174.5579676170863, 174.6746342837463, 174.79130095040628, 174.90796761706628, 175.02463428372627, 175.14130095038627, 175.3746342837196]	2021_Feb_05_1705	59.917515817563384	1	0.375
26	30	FALSE	VA	a	['N', 'V', 'R', 'E', 'H', 'P', 'J', 'Y', 'C', 'surprise', 'A', 'B', 'X', 'G', 'T', 'K']	[1335, 2245, 1587, 904, 986, 1456, 1029, 2670, 829, 'stimAuditory/all_stimAuditory/201.wav', 697, 760, 4000, 944, 1888, 1122]	13	Present	NA	NA	PRESENT	0.8640949726104736	177.37107801437378	179.36865210533142	180.53532663974457	180.88532878549177	183.4785029888153	4.109850883483887	[177.38355112075806, 177.4836769104004, 178.46183395385742, 178.6350920200348, 179.3856179714203, 179.50251603126526, 179.6194429397583, 179.73603892326355, 179.85295295715332, 179.96957111358643, 180.08634400367737, 180.20320510864258, 180.32021808624268, 180.4368290901184, 180.553808927536, 180.67054510116577, 180.78715991973877, 180.9041531085968, 181.02079510688782, 181.13773393630981, 181.25486397743225, 181.47850108146667]	[177.3746342837196, 177.49130095037958, 178.4743009503796, 178.64100095037958, 179.39100095037958, 179.50766761703957, 179.62433428369957, 179.74100095035956, 179.85766761701956, 179.97433428367955, 180.09100095033955, 180.20766761699954, 180.32433428365954, 180.44100095031953, 180.55766761697953, 180.67433428363952, 180.79100095029952, 180.90766761695951, 181.0243342836195, 181.1410009502795, 181.2576676169395, 181.49100095027282]	2021_Feb_05_1705	59.917515817563384	1	0.375
26	31	FALSE	NV	a	['K', 'N', 'Z', 'G', 'B', 'W', 'Y', 'V', 'E', 'T', 'R', 'H', 'X', 'C', 'P', 'A']	[1122, 1335, 2911, 944, 760, 2448, 2670, 2245, 904, 1888, 1587, 986, 4000, 829, 1456, 697]	13	Present	NA	NA	PRESENT	0.6606779098510742	183.47777605056763	185.4848110675812	186.6514968076675	187.00149871499613	189.59486889839172	4.110057830810547	[183.49024891853333, 183.6068398952484, 184.57819390296936, 184.75824689865112, 185.5090250968933, 185.6258261203766, 185.7423539161682, 185.85940098762512, 185.9761679172516, 186.0929410457611, 186.2097110748291, 186.32663011550903, 186.44330310821533, 186.56015801429749, 186.67698311805725, 186.79378294944763, 186.9104130268097, 187.02731108665466, 187.14419794082642, 187.2607810497284, 187.37758493423462, 187.59487009048462]	[183.49100095027282, 183.60766761693282, 184.59066761693282, 184.7573676169328, 185.5073676169328, 185.6240342835928, 185.7407009502528, 185.8573676169128, 185.9740342835728, 186.0907009502328, 186.20736761689278, 186.32403428355278, 186.44070095021277, 186.55736761687277, 186.67403428353276, 186.79070095019276, 186.90736761685275, 187.02403428351275, 187.14070095017274, 187.25736761683274, 187.37403428349273, 187.60736761682605]	2021_Feb_05_1705	59.917515817563384	1	0.375
26	32	FALSE	NV	a	['J', 'Y', 'G', 'K', 'P', 'S', 'T', 'E', 'W', 'Z', 'N', 'X', 'M', 'U', 'V', 'R']	[1029, 2670, 944, 1122, 1456, 1731, 1888, 904, 2448, 2911, 1335, 4000, 1224, 2059, 2245, 1587]	12	Present	NA	NA	PRESENT	0.7297399044036865	189.60099506378177	191.60126209259033	192.65126996034343	193.00127210609065	195.71123695373535	4.1099748611450195	[189.61346793174744, 189.7301869392395, 190.69456005096436, 190.8813910484314, 191.63233304023743, 191.74913597106934, 191.86590909957886, 191.96566605567932, 192.08253812789917, 192.19922494888306, 192.3160800933838, 192.4327790737152, 192.54963397979736, 192.6664080619812, 192.78322410583496, 192.90000200271606, 193.0167920589447, 193.13358902931213, 193.25038409233093, 193.36718106269836, 193.4841980934143, 193.71123600006104]	[189.60736761682605, 189.72403428348605, 190.70703428348605, 190.87373428348604, 191.62373428348604, 191.74040095014604, 191.85706761680603, 191.97373428346603, 192.09040095012602, 192.20706761678602, 192.32373428344602, 192.440400950106, 192.557067616766, 192.673734283426, 192.790400950086, 192.907067616746, 193.023734283406, 193.14040095006598, 193.25706761672598, 193.37373428338597, 193.49040095004597, 193.7237342833793]	2021_Feb_05_1705	59.917515817563384	1	0.375
26	33	FALSE	AV	a	['Z', 'A', 'W', 'G', 'T', 'M', 'C', 'N', 'J', 'E', 'surprise', 'V', 'P', 'X', 'Y', 'R']	[2911, 697, 2448, 944, 1888, 1224, 829, 1335, 1029, 904, 'stimAuditory/all_stimAuditory/122.wav', 2245, 1456, 4000, 2670, 1587]	14	Present	stimAuditory/all_stimAuditory/107.wav	NA	PRESENT	0.4625010490417481	195.7073471546173	197.7175669670105	199.0009084065022	199.3509093601565	201.82760190963745	4.110034942626953	[195.719820022583, 195.8367419242859, 196.8109269142151, 196.9879059791565, 197.7386350631714, 197.8554449081421, 197.9721279144287, 198.08899092674255, 198.20592999458313, 198.3226408958435, 198.43919491767883, 198.5561261177063, 198.67287611961365, 198.78983807563782, 198.90657711029053, 199.02326893806458, 199.14020991325378, 199.25695490837097, 199.37373304367065, 199.49051594734192, 199.6072061061859, 199.82760310173035]	[195.7237342833793, 195.84040095003928, 196.8234009500393, 196.99010095003928, 197.74010095003928, 197.85676761669927, 197.97343428335927, 198.09010095001926, 198.20676761667926, 198.32343428333925, 198.44010094999925, 198.55676761665924, 198.67343428331924, 198.79010094997923, 198.90676761663923, 199.02343428329922, 199.14010094995922, 199.25676761661921, 199.3734342832792, 199.4901009499392, 199.6067676165992, 199.84010094993252]	2021_Feb_05_1705	59.917515817563384	1	0.375
26	34	FALSE	NA	a	['S', 'Y', 'V', 'M', 'N', 'E', 'B', 'X', 'R', 'U', 'A', 'K', 'H', 'G', 'Z', 'P']	[1731, 2670, 2245, 1224, 1335, 904, 760, 4000, 1587, 2059, 697, 1122, 986, 944, 2911, 1456]	8	Present	NA	NA	PRESENT	0.09898114204406738	201.8309781551361	203.834037065506	204.417379458712	204.7673813660406	207.94396901130676	4.109931945800781	[201.8434510231018, 201.95974206924438, 202.92728996276855, 203.1110429763794, 203.8616979122162, 203.97870206832886, 204.09546208381653, 204.2122220993042, 204.32887506484985, 204.4457950592041, 204.56243705749512, 204.67940402030945, 204.79602789878845, 204.9129319190979, 205.02965092658997, 205.14658093452454, 205.2632029056549, 205.38018894195557, 205.49692797660828, 205.61373209953308, 205.73047399520874, 205.94396901130676]	[201.84010094993252, 201.95676761659251, 202.93976761659252, 203.1064676165925, 203.8564676165925, 203.9731342832525, 204.0898009499125, 204.2064676165725, 204.3231342832325, 204.4398009498925, 204.55646761655248, 204.67313428321248, 204.78980094987247, 204.90646761653247, 205.02313428319246, 205.13980094985246, 205.25646761651245, 205.37313428317245, 205.48980094983244, 205.60646761649244, 205.72313428315243, 205.95646761648575]	2021_Feb_05_1705	59.917515817563384	1	0.375
26	35	FALSE	NN	a	['H', 'W', 'Y', 'B', 'A', 'N', 'K', 'M', 'P', 'V', 'C', 'U', 'Z', 'G', 'J', 'T']	[986, 2448, 2670, 760, 697, 1335, 1122, 1224, 1456, 2245, 829, 2059, 2911, 944, 1029, 1888]	10	Absent	NA	NA	ABSENT	0.712134838104248	207.9368290901184	209.9502539634705	210.76692873632217	211.1169306436508	214.0603370666504	4.110083103179932	[207.9493019580841, 208.0661220550537, 209.0436589717865, 209.2175121307373, 209.9681339263916, 210.0851709842682, 210.20196104049683, 210.31866097450256, 210.43548703193665, 210.55215096473694, 210.66909909248352, 210.78580594062805, 210.90263104438782, 211.01941299438477, 211.13617205619812, 211.25327897071838, 211.36991500854492, 211.48656797409058, 211.6032829284668, 211.7202970981598, 211.83683490753174, 212.0603370666504]	[207.95646761648575, 208.07313428314575, 209.05613428314575, 209.22283428314574, 209.97283428314574, 210.08950094980574, 210.20616761646573, 210.32283428312573, 210.43950094978572, 210.55616761644572, 210.67283428310571, 210.7895009497657, 210.9061676164257, 211.0228342830857, 211.1395009497457, 211.2561676164057, 211.37283428306569, 211.48950094972568, 211.60616761638568, 211.72283428304567, 211.83950094970567, 212.072834283039]	2021_Feb_05_1705	59.917515817563384	1	0.375
26	36	FALSE	NN	a	['A', 'E', 'B', 'V', 'S', 'J', 'Z', 'U', 'M', 'K', 'Y', 'R', 'P', 'W', 'C', 'G']	[697, 904, 760, 2245, 1731, 1029, 2911, 2059, 1224, 1122, 2670, 1587, 1456, 2448, 829, 944]	9	Absent	NA	NA	ABSENT	0.54885101318359375	214.06013798713684	216.06679797172544	216.76680607791715	217.1168079852458	220.1767020225525	4.109904050827026	[214.07261109352112, 214.189435005188, 215.16002702713013, 215.34070205688477, 216.09143900871277, 216.20831894874573, 216.32507991790771, 216.44187808036804, 216.55865001678467, 216.6755349636078, 216.7922661304474, 216.90883207321167, 217.02580404281616, 217.14248895645142, 217.25926208496094, 217.37629890441895, 217.4928560256958, 217.6095690727234, 217.72657203674316, 217.84327101707458, 217.96026301383972, 218.1767029762268]	[214.072834283039, 214.18950094969898, 215.17250094969899, 215.33920094969898, 216.08920094969898, 216.20586761635897, 216.32253428301897, 216.43920094967896, 216.55586761633896, 216.67253428299895, 216.78920094965895, 216.90586761631894, 217.02253428297894, 217.13920094963893, 217.25586761629893, 217.37253428295892, 217.48920094961892, 217.6058676162789, 217.7225342829389, 217.8392009495989, 217.9558676162589, 218.18920094959222]	2021_Feb_05_1705	59.917515817563384	1	0.375
26	37	FALSE	VV	a	['Y', 'U', 'K', 'G', 'E', 'surprise', 'N', 'C', 'X', 'H', 'A', 'J', 'Z', 'R', 'W', 'S']	[2670, 2059, 1122, 944, 904, 'stimAuditory/all_stimAuditory/121.wav', 1335, 829, 4000, 986, 697, 1029, 2911, 1587, 2448, 1731]	9	Present	NA	NA	PRESENT	0.3461918830871582	220.18323397636416	222.18333506584167	222.8833429336148	223.233345079362	226.29307007789612	4.109735012054443	[220.1957070827484, 220.3127360343933, 221.27639412879944, 221.4641649723053, 222.21452713012695, 222.3145489692688, 222.43137407302856, 222.5481960773468, 222.66497611999512, 222.7818260192871, 222.89863395690918, 223.01537108421326, 223.13211297988892, 223.24900698661804, 223.36564302444458, 223.48257493972778, 223.59929895401, 223.7162160873413, 223.83302998542786, 223.94976997375488, 224.0665340423584, 224.2930691242218]	[220.18920094959222, 220.30586761625221, 221.28886761625222, 221.4555676162522, 222.2055676162522, 222.3222342829122, 222.4389009495722, 222.5555676162322, 222.6722342828922, 222.7889009495522, 222.90556761621218, 223.02223428287218, 223.13890094953217, 223.25556761619217, 223.37223428285216, 223.48890094951216, 223.60556761617215, 223.72223428283215, 223.83890094949214, 223.95556761615214, 224.07223428281213, 224.30556761614545]	2021_Feb_05_1705	59.917515817563384	1	0.375
26	38	FALSE	NN	a	['B', 'M', 'K', 'W', 'R', 'N', 'A', 'V', 'P', 'S', 'H', 'J', 'T', 'C', 'G', 'Y']	[760, 1224, 1122, 2448, 1587, 1335, 697, 2245, 1456, 1731, 986, 1029, 1888, 829, 944, 2670]	9	Absent	NA	NA	ABSENT	1.0065369606018066	226.28986501693728	228.2994511127472	228.9994589805203	229.34946112626753	232.40943598747253	4.109984874725342	[226.30233812332153, 226.41907906532288, 227.39276003837585, 227.57026600837708, 228.32113003730774, 228.43792009353638, 228.55486297607422, 228.6715829372406, 228.78821301460266, 228.9051010608673, 229.02193093299866, 229.13867902755737, 229.25534796714783, 229.37220692634583, 229.48887395858765, 229.60583806037903, 229.72250509262085, 229.83938312530518, 229.9561789035797, 230.07303309440613, 230.18971395492554, 230.40943694114685]	[226.30556761614545, 226.42223428280545, 227.40523428280545, 227.57193428280544, 228.32193428280544, 228.43860094946544, 228.55526761612543, 228.67193428278543, 228.78860094944542, 228.90526761610542, 229.02193428276541, 229.1386009494254, 229.2552676160854, 229.3719342827454, 229.4886009494054, 229.6052676160654, 229.72193428272539, 229.83860094938538, 229.95526761604538, 230.07193428270537, 230.18860094936537, 230.4219342826987]	2021_Feb_05_1705	59.917515817563384	1	0.375
26	39	FALSE	NA	a	['W', 'P', 'V', 'J', 'G', 'M', 'C', 'B', 'U', 'T', 'R', 'X', 'E', 'Z', 'H', 'K']	[2448, 1456, 2245, 1029, 944, 1224, 829, 760, 2059, 1888, 1587, 4000, 904, 2911, 986, 1122]	12	Present	NA	NA	PRESENT	0.3632090091705322	232.41310000419617	234.41578197479248	235.46579008096415	235.8157919882928	238.52580404281616	4.110022068023682	[232.42557311058044, 232.54230403900146, 233.5091269016266, 233.6935329437256, 234.4441270828247, 234.56110191345215, 234.67798900604248, 234.79452109336853, 234.91159391403198, 235.02820205688477, 235.14505696296692, 235.2619490623474, 235.37872195243835, 235.4954710006714, 235.61222290992737, 235.7290120124817, 235.84582901000977, 235.96261405944824, 236.07947993278503, 236.19602489471436, 236.31278109550476, 236.52580404281616]	[232.4219342826987, 232.53860094935868, 233.52160094935869, 233.68830094935868, 234.43830094935868, 234.55496761601867, 234.67163428267867, 234.78830094933866, 234.90496761599866, 235.02163428265865, 235.13830094931865, 235.25496761597864, 235.37163428263864, 235.48830094929863, 235.60496761595863, 235.72163428261862, 235.83830094927862, 235.9549676159386, 236.0716342825986, 236.1883009492586, 236.3049676159186, 236.53830094925192]	2021_Feb_05_1705	59.917515817563384	1	0.375
26	40	FALSE	NV	a	['S', 'H', 'U', 'R', 'Y', 'V', 'A', 'J', 'X', 'W', 'B', 'P', 'M', 'Z', 'N', 'K']	[1731, 986, 2059, 1587, 2670, 2245, 697, 1029, 4000, 2448, 760, 1456, 1224, 2911, 1335, 1122]	9	Present	NA	NA	PRESENT	0.4967041015625	238.519296169281	240.53228211402893	241.23228998180204	241.58229212754927	244.64216899871823	4.109886884689331	[238.5317690372467, 238.64854502677917, 239.6254940032959, 239.79993200302124, 240.5506250858307, 240.6674029827118, 240.78435611724854, 240.9009940624237, 241.01802897453308, 241.13469409942627, 241.2519190311432, 241.36823201179504, 241.4850571155548, 241.6019790172577, 241.71868300437927, 241.8355360031128, 241.95210194587708, 242.0691421031952, 242.1857030391693, 242.3024299144745, 242.41953992843628, 242.64216995239258]	[238.53830094925192, 238.65496761591191, 239.63796761591192, 239.8046676159119, 240.5546676159119, 240.6713342825719, 240.7880009492319, 240.9046676158919, 241.0213342825519, 241.1380009492119, 241.25466761587188, 241.37133428253188, 241.48800094919187, 241.60466761585187, 241.72133428251186, 241.83800094917186, 241.95466761583185, 242.07133428249185, 242.18800094915184, 242.30466761581184, 242.42133428247183, 242.65466761580515]	2021_Feb_05_1705	59.917515817563384	1	0.375
26	41	FALSE	NV	a	['G', 'T', 'Z', 'H', 'N', 'A', 'R', 'X', 'E', 'Y', 'J', 'B', 'W', 'S', 'V', 'M']	[944, 1888, 2911, 986, 1335, 697, 1587, 4000, 904, 2670, 1029, 760, 2448, 1731, 2245, 1224]	8	Present	NA	NA	PRESENT	0.2291398048400879	244.6424961090088	246.6484670639038	247.2318085034355	247.58181041076412	250.75853610038757	4.110069036483765	[244.6549689769745, 244.77190399169922, 245.74186205863953, 245.92312097549438, 246.67397499084473, 246.7907590866089, 246.907644033432, 247.0243821144104, 247.14097690582275, 247.25800895690918, 247.37479996681213, 247.4916009902954, 247.6082260608673, 247.72509789466858, 247.84200501441956, 247.95871210098267, 248.0754039287567, 248.19199299812317, 248.3090100288391, 248.42579698562622, 248.5425899028778, 248.75853610038757]	[244.65466761580515, 244.77133428246515, 245.75433428246515, 245.92103428246514, 246.67103428246514, 246.78770094912514, 246.90436761578513, 247.02103428244513, 247.13770094910512, 247.25436761576512, 247.37103428242511, 247.4877009490851, 247.6043676157451, 247.7210342824051, 247.8377009490651, 247.9543676157251, 248.07103428238509, 248.18770094904508, 248.30436761570508, 248.42103428236507, 248.53770094902507, 248.77103428235839]	2021_Feb_05_1705	59.917515817563384	1	0.375
26	42	FALSE	NV	a	['Y', 'U', 'Z', 'W', 'N', 'E', 'M', 'B', 'R', 'T', 'X', 'C', 'P', 'S', 'V', 'J']	[2670, 2059, 2911, 2448, 1335, 904, 1224, 760, 1587, 1888, 4000, 829, 1456, 1731, 2245, 1029]	11	Present	NA	NA	PRESENT	0.6504161357879639	250.76565098762512	252.7650361061096	253.69837730720272	254.04837945294992	256.8749029636383	4.1098668575286865	[250.7781240940094, 250.89507603645325, 251.85822796821594, 252.0296700000763, 252.79701590538025, 252.89709210395813, 253.0138919353485, 253.13061094284058, 253.24743390083313, 253.36428689956665, 253.48106408119202, 253.5979039669037, 253.714674949646, 253.83159589767456, 253.9482409954071, 254.06497812271118, 254.18166589736938, 254.29872298240662, 254.4153060913086, 254.53238105773926, 254.64893293380737, 254.874902009964]	[250.77103428235839, 250.88770094901838, 251.87070094901839, 252.03740094901838, 252.78740094901838, 252.90406761567837, 253.02073428233837, 253.13740094899836, 253.25406761565836, 253.37073428231835, 253.48740094897835, 253.60406761563834, 253.72073428229834, 253.83740094895833, 253.95406761561833, 254.07073428227832, 254.18740094893832, 254.3040676155983, 254.4207342822583, 254.5374009489183, 254.6540676155783, 254.88740094891162]	2021_Feb_05_1705	59.917515817563384	1	0.375
26	43	FALSE	AA	a	['Z', 'N', 'V', 'M', 'W', 'surprise', 'J', 'B', 'X', 'E', 'G', 'C', 'Y', 'H', 'K', 'P']	[2911, 1335, 2245, 1224, 2448, 'stimAuditory/all_stimAuditory/116.wav', 1029, 760, 4000, 904, 944, 829, 2670, 986, 1122, 1456]	9	Present	stimAuditory/all_stimAuditory/201.wav	NA	PRESENT	0.7509748935699463	256.8723111152649	258.8814101219177	259.58141703601655	259.93141894334514	262.9912700653076	4.109859943389893	[256.8847839832306, 257.00144505500793, 257.9745919704437, 258.1526620388031, 258.9035060405731, 259.0203170776367, 259.1372809410095, 259.2539360523224, 259.370726108551, 259.48763489723206, 259.60420393943787, 259.72122502326965, 259.8378870487213, 259.9547619819641, 260.071573972702, 260.1883819103241, 260.30490899086, 260.421795129776, 260.53875207901, 260.655268907547, 260.7721838951111, 260.9912691116333]	[256.8874009489116, 257.0040676155716, 257.9870676155716, 258.1537676155716, 258.9037676155716, 259.02043428223163, 259.13710094889166, 259.2537676155517, 259.3704342822117, 259.4871009488717, 259.60376761553175, 259.7204342821918, 259.8371009488518, 259.9537676155118, 260.07043428217185, 260.18710094883187, 260.3037676154919, 260.4204342821519, 260.53710094881194, 260.65376761547196, 260.770434282132, 261.00376761546534]	2021_Feb_05_1705	59.917515817563384	1	0.375
26	44	FALSE	NV	a	['K', 'J', 'H', 'R', 'C', 'A', 'S', 'B', 'T', 'Z', 'X', 'W', 'E', 'U', 'V', 'G']	[1122, 1029, 986, 1587, 829, 697, 1731, 760, 1888, 2911, 4000, 2448, 904, 2059, 2245, 944]	11	Present	NA	NA	PRESENT	0.6364469528198242	262.99547696113586	264.9976360797882	265.93097728088134	266.2809794266285	269.10763597488403	4.109999895095825	[263.0079491138458, 263.12463307380676, 264.09096002578735, 264.27590012550354, 265.02669310569763, 265.1436200141907, 265.2603371143341, 265.3770270347595, 265.4939820766449, 265.61073994636536, 265.7275390625, 265.84429597854614, 265.96116304397583, 266.07783102989197, 266.19453501701355, 266.3115499019623, 266.42830300331116, 266.5451281070709, 266.6618731021881, 266.7784380912781, 266.89523100852966, 267.10763812065125]	[263.00376761546534, 263.12043428212536, 264.10343428212536, 264.27013428212535, 265.02013428212535, 265.1368009487854, 265.2534676154454, 265.3701342821054, 265.48680094876545, 265.6034676154255, 265.7201342820855, 265.8368009487455, 265.95346761540554, 266.07013428206557, 266.1868009487256, 266.3034676153856, 266.42013428204564, 266.53680094870566, 266.6534676153657, 266.7701342820257, 266.88680094868573, 267.1201342820191]	2021_Feb_05_1705	59.917515817563384	1	0.375
26	45	FALSE	NA	a	['K', 'J', 'B', 'M', 'W', 'C', 'T', 'U', 'H', 'X', 'E', 'A', 'Y', 'P', 'V', 'N']	[1122, 1029, 760, 1224, 2448, 829, 1888, 2059, 986, 4000, 904, 697, 2670, 1456, 2245, 1335]	10	Present	NA	NA	PRESENT	0.6248071193695068	269.10183000564575	271.1139359474182	271.9306097665956	272.28061262759854	275.22400403022766	4.110068082809448	[269.11431312561035, 269.2310869693756, 270.2073290348053, 270.38234090805054, 271.1331651210785, 271.25033497810364, 271.36687994003296, 271.4836299419403, 271.60031390190125, 271.71731090545654, 271.83401107788086, 271.950865983963, 272.0674819946289, 272.1844689846039, 272.301157951355, 272.41798400878906, 272.53489995002747, 272.65153408050537, 272.76832008361816, 272.8850700855255, 273.00188994407654, 273.22400307655334]	[269.1201342820191, 269.2368009486791, 270.2198009486791, 270.3865009486791, 271.1365009486791, 271.2531676153391, 271.36983428199915, 271.48650094865917, 271.6031676153192, 271.7198342819792, 271.83650094863924, 271.95316761529926, 272.0698342819593, 272.1865009486193, 272.30316761527934, 272.41983428193936, 272.5365009485994, 272.6531676152594, 272.76983428191943, 272.88650094857945, 273.0031676152395, 273.2365009485728]	2021_Feb_05_1705	59.917515817563384	1	0.375
26	46	FALSE	NN	a	['T', 'R', 'W', 'U', 'Y', 'V', 'H', 'E', 'G', 'J', 'A', 'M', 'P', 'Z', 'K', 'S']	[1888, 1587, 2448, 2059, 2670, 2245, 986, 904, 944, 1029, 697, 1224, 1456, 2911, 1122, 1731]	13	Absent	NA	NA	ABSENT	0.9893791675567628	275.22491693496704	277.23046112060547	278.39713470134427	278.7471378007658	281.3403699398041	4.109908819198608	[275.237389087677, 275.354483127594, 276.3236930370331, 276.50555300712585, 277.25632309913635, 277.3731029033661, 277.4899489879608, 277.6069281101227, 277.72351908683777, 277.84030508995056, 277.9570620059967, 278.07397389411926, 278.1908950805664, 278.30756402015686, 278.42435908317566, 278.5410919189453, 278.6578290462494, 278.77461791038513, 278.89138293266296, 279.0081539154053, 279.12496995925903, 279.34036803245544]	[275.2365009485728, 275.35316761523285, 276.33616761523285, 276.50286761523284, 277.25286761523284, 277.36953428189287, 277.4862009485529, 277.6028676152129, 277.71953428187294, 277.83620094853296, 277.952867615193, 278.069534281853, 278.18620094851303, 278.30286761517306, 278.4195342818331, 278.5362009484931, 278.6528676151531, 278.76953428181315, 278.8862009484732, 279.0028676151332, 279.1195342817932, 279.35286761512657]	2021_Feb_05_1705	59.917515817563384	1	0.375
26	47	FALSE	NA	a	['B', 'G', 'H', 'A', 'J', 'E', 'P', 'M', 'N', 'C', 'X', 'W', 'Z', 'R', 'V', 'T']	[760, 944, 986, 697, 1029, 904, 1456, 1224, 1335, 829, 4000, 2448, 2911, 1587, 2245, 1888]	11	Present	NA	NA	PRESENT	0.2826991081237793	281.34844613075256	283.34667015075684	284.28001039817565	284.63001230550424	287.4567370414734	4.110066890716553	[281.36091899871826, 281.4775240421295, 282.4400599002838, 282.6120619773865, 283.3796880245209, 283.4796459674835, 283.59630393981934, 283.7133059501648, 283.8300609588623, 283.94686007499695, 284.0636451244354, 284.1804609298706, 284.2972629070282, 284.41406512260437, 284.53073811531067, 284.6477119922638, 284.7642478942871, 284.8812210559845, 284.99793791770935, 285.11473393440247, 285.2314999103546, 285.4567360877991]	[281.35286761512657, 281.4695342817866, 282.4525342817866, 282.6192342817866, 283.3692342817866, 283.4859009484466, 283.60256761510664, 283.71923428176666, 283.8359009484267, 283.9525676150867, 284.06923428174673, 284.18590094840675, 284.3025676150668, 284.4192342817268, 284.5359009483868, 284.65256761504685, 284.7692342817069, 284.8859009483669, 285.0025676150269, 285.11923428168694, 285.23590094834697, 285.4692342816803]	2021_Feb_05_1705	59.917515817563384	1	0.375
26	48	FALSE	NA	a	['C', 'Y', 'T', 'P', 'Z', 'E', 'B', 'X', 'U', 'V', 'H', 'A', 'G', 'M', 'W', 'R']	[829, 2670, 1888, 1456, 2911, 904, 760, 4000, 2059, 2245, 986, 697, 944, 1224, 2448, 1587]	8	Present	NA	NA	ABSENT	0.6311819553375244	287.4546329975128	289.46322298049927	290.04656442003096	290.3965663273596	293.5731019973755	4.109879016876221	[287.4671070575714, 287.58399295806885, 288.5564260482788, 288.7353849411011, 289.485876083374, 289.6028699874878, 289.7195100784302, 289.83646512031555, 289.95337104797363, 290.0698709487915, 290.18689608573914, 290.303503036499, 290.42039012908936, 290.53721809387207, 290.6539731025696, 290.7709000110626, 290.88763403892517, 291.00414395332336, 291.121071100235, 291.2377510070801, 291.3550500869751, 291.5731019973755]	[287.4692342816803, 287.58590094834034, 288.56890094834034, 288.73560094834033, 289.48560094834033, 289.60226761500036, 289.7189342816604, 289.8356009483204, 289.9522676149804, 290.06893428164045, 290.1856009483005, 290.3022676149605, 290.4189342816205, 290.53560094828055, 290.65226761494057, 290.7689342816006, 290.8856009482606, 291.00226761492064, 291.11893428158066, 291.2356009482407, 291.3522676149007, 291.58560094823406]	2021_Feb_05_1705	59.917515817563384	1	0.375
26	49	FALSE	NV	a	['N', 'K', 'W', 'J', 'V', 'T', 'B', 'G', 'Z', 'R', 'C', 'S', 'E', 'X', 'M', 'H']	[1335, 1122, 2448, 1029, 2245, 1888, 760, 944, 2911, 1587, 829, 1731, 904, 4000, 1224, 986]	14	Present	NA	NA	PRESENT	0.3887770175933838	293.5778760910034	295.5798690319061	296.8632104713978	297.21321237872644	299.6894700527191	4.109601020812988	[293.59034991264343, 293.7072699069977, 294.67279410362244, 294.8584370613098, 295.6090350151062, 295.7260890007019, 295.8427209854126, 295.9595739841461, 296.0765640735626, 296.19306111335754, 296.30995893478394, 296.4266839027405, 296.54376006126404, 296.6601810455322, 296.7772629261017, 296.8938980102539, 297.01068806648254, 297.1106460094452, 297.2274680137634, 297.34432792663574, 297.46094512939453, 297.6894700527191]	[293.58560094823406, 293.7022676148941, 294.6852676148941, 294.8519676148941, 295.6019676148941, 295.7186342815541, 295.8353009482141, 295.95196761487415, 296.0686342815342, 296.1853009481942, 296.3019676148542, 296.41863428151424, 296.53530094817427, 296.6519676148343, 296.7686342814943, 296.88530094815434, 297.00196761481436, 297.1186342814744, 297.2353009481344, 297.35196761479443, 297.46863428145446, 297.7019676147878]	2021_Feb_05_1705	59.917515817563384	1	0.375
26	50	FALSE	NA	a	['M', 'P', 'K', 'Y', 'W', 'N', 'S', 'R', 'Z', 'A', 'X', 'T', 'U', 'E', 'H', 'J']	[1224, 1456, 1122, 2670, 2448, 1335, 1731, 1587, 2911, 697, 4000, 1888, 2059, 904, 986, 1029]	11	Present	NA	NA	PRESENT	0.4970240592956543	299.68428802490234	301.696053981781	302.62939637496703	302.9793973286213	305.80583596229553	4.109781980514526	[299.69676303863525, 299.8136160373688, 300.78915905952454, 300.9648690223694, 301.71586203575134, 301.83246898651123, 301.94932413101196, 302.0662159919739, 302.1828169822693, 302.2997169494629, 302.4163980484009, 302.5332169532776, 302.6499400138855, 302.76684498786926, 302.88350105285645, 303.00050592422485, 303.1171119213104, 303.23401403427124, 303.35090804100037, 303.46747303009033, 303.58454489707947, 303.80583691596985]	[299.7019676147878, 299.8186342814478, 300.80163428144783, 300.9683342814478, 301.7183342814478, 301.83500094810785, 301.95166761476787, 302.0683342814279, 302.1850009480879, 302.30166761474794, 302.41833428140797, 302.535000948068, 302.651667614728, 302.76833428138804, 302.88500094804806, 303.0016676147081, 303.1183342813681, 303.23500094802813, 303.35166761468815, 303.4683342813482, 303.5850009480082, 303.81833428134155]	2021_Feb_05_1705	59.917515817563384	1	0.375
26	51	FALSE	NV	a	['A', 'G', 'N', 'T', 'K', 'R', 'M', 'J', 'W', 'X', 'S', 'H', 'V', 'C', 'P', 'B']	[697, 944, 1335, 1888, 1122, 1587, 1224, 1029, 2448, 4000, 1731, 986, 2245, 829, 1456, 760]	10	Present	NA	NA	PRESENT	0.3656160831451416	305.80758595466614	307.81213116645813	308.62880570089123	308.9788076082199	311.92220401763916	4.11007285118103	[305.8200590610504, 305.9369089603424, 306.90552401542664, 307.087984085083, 307.8387589454651, 307.9557480812073, 308.0725269317627, 308.18919610977173, 308.30596899986267, 308.42290210723877, 308.53953409194946, 308.6562340259552, 308.77313899993896, 308.890065908432, 309.0069069862366, 309.1235270500183, 309.24046993255615, 309.3572909832001, 309.47407507896423, 309.5906820297241, 309.70758390426636, 309.92220306396484]	[305.81833428134155, 305.9350009480016, 306.9180009480016, 307.08470094800157, 307.83470094800157, 307.9513676146616, 308.0680342813216, 308.18470094798164, 308.30136761464166, 308.4180342813017, 308.5347009479617, 308.65136761462173, 308.76803428128176, 308.8847009479418, 309.0013676146018, 309.1180342812618, 309.23470094792185, 309.3513676145819, 309.4680342812419, 309.5847009479019, 309.70136761456195, 309.9347009478953]	2021_Feb_05_1705	59.917515817563384	1	0.375
26	52	FALSE	NV	a	['C', 'H', 'T', 'W', 'K', 'V', 'R', 'P', 'M', 'J', 'X', 'Z', 'Y', 'N', 'B', 'U']	[829, 986, 1888, 2448, 1122, 2245, 1587, 1456, 1224, 1029, 4000, 2911, 2670, 1335, 760, 2059]	11	Present	NA	NA	PRESENT	0.7950601577758789	311.9310510158539	313.92861104011536	314.86195247962706	315.21195438695565	318.0385699272156	4.10995888710022	[311.94352412223816, 312.06007194519043, 313.0218930244446, 313.19463896751404, 313.96199893951416, 314.06213903427124, 314.17889189720154, 314.29576301574707, 314.41236996650696, 314.52925205230713, 314.646164894104, 314.76294708251953, 314.8795289993286, 314.9965789318085, 315.11332392692566, 315.229994058609, 315.34668803215027, 315.46373295783997, 315.5804650783539, 315.69735193252563, 315.81411504745483, 316.03856897354126]	[311.9347009478953, 312.0513676145553, 313.0343676145553, 313.2010676145553, 313.9510676145553, 314.06773428121534, 314.18440094787536, 314.3010676145354, 314.4177342811954, 314.53440094785543, 314.65106761451545, 314.7677342811755, 314.8844009478355, 315.0010676144955, 315.11773428115555, 315.2344009478156, 315.3510676144756, 315.4677342811356, 315.58440094779564, 315.70106761445567, 315.8177342811157, 316.05106761444904]	2021_Feb_05_1705	59.917515817563384	1	0.375
26	53	FALSE	NV	a	['T', 'K', 'U', 'Z', 'W', 'B', 'P', 'J', 'C', 'X', 'Y', 'H', 'M', 'S', 'V', 'N']	[1888, 1122, 2059, 2911, 2448, 760, 1456, 1029, 829, 4000, 2670, 986, 1224, 1731, 2245, 1335]	10	Present	NA	NA	PRESENT	0.5833709239959717	318.0373270511627	320.0451109409332	320.8617857137849	321.21178762111356	324.1549370288849	4.10982608795166	[318.0497999191284, 318.16649103164673, 319.138258934021, 319.3176190853119, 320.0684630870819, 320.1853361129761, 320.3020119667053, 320.41876101493835, 320.5357630252838, 320.6525990962982, 320.7693340778351, 320.88590693473816, 321.0029079914093, 321.1197121143341, 321.2365050315857, 321.35337805747986, 321.47016310691833, 321.58669209480286, 321.7036669254303, 321.82046604156494, 321.9372730255127, 322.15493607521057]	[318.05106761444904, 318.16773428110906, 319.15073428110907, 319.31743428110906, 320.06743428110906, 320.1841009477691, 320.3007676144291, 320.41743428108913, 320.53410094774915, 320.6507676144092, 320.7674342810692, 320.8841009477292, 321.00076761438925, 321.11743428104927, 321.2341009477093, 321.3507676143693, 321.46743428102934, 321.58410094768936, 321.7007676143494, 321.8174342810094, 321.93410094766944, 322.1674342810028]	2021_Feb_05_1705	59.917515817563384	1	0.375
26	54	FALSE	AA	a	['C', 'S', 'G', 'Z', 'P', 'M', 'Y', 'surprise', 'R', 'K', 'X', 'J', 'V', 'H', 'T', 'U']	[829, 1731, 944, 2911, 1456, 1224, 2670, 'stimAuditory/all_stimAuditory/112.wav', 1587, 1122, 4000, 1029, 2245, 986, 1888, 2059]	11	Present	stimAuditory/all_stimAuditory/122.wav	NA	PRESENT	0.4689338207244873	324.1604790687561	326.1614511013031	327.0947913487219	327.4447934944691	330.2713029384613	4.109851837158203	[324.1729531288147, 324.28972005844116, 325.2546241283417, 325.4410660266876, 326.1917600631714, 326.30853509902954, 326.4252419471741, 326.5422019958496, 326.65893602371216, 326.77547001838684, 326.8922870159149, 326.99235701560974, 327.1261520385742, 327.2259030342102, 327.34278893470764, 327.45958495140076, 327.57633996009827, 327.6932089328766, 327.809935092926, 327.92672300338745, 328.043564081192, 328.2713029384613]	[324.1674342810028, 324.2841009476628, 325.2671009476628, 325.4338009476628, 326.1838009476628, 326.3004676143228, 326.41713428098285, 326.5338009476429, 326.6504676143029, 326.7671342809629, 326.88380094762294, 327.00046761428297, 327.117134280943, 327.233800947603, 327.35046761426304, 327.46713428092306, 327.5838009475831, 327.7004676142431, 327.81713428090313, 327.93380094756316, 328.0504676142232, 328.28380094755653]	2021_Feb_05_1705	59.917515817563384	1	0.375
26	55	FALSE	NV	a	['G', 'R', 'V', 'H', 'W', 'P', 'B', 'J', 'T', 'M', 'Y', 'E', 'K', 'X', 'S', 'Z']	[944, 1587, 2245, 986, 2448, 1456, 760, 1029, 1888, 1224, 2670, 904, 1122, 4000, 1731, 2911]	14	Present	NA	NA	PRESENT	0.34503817558288574	330.2668330669403	332.27773213386536	333.5610723812641	333.9110742885928	336.3876690864563	4.109936952590942	[330.27931809425354, 330.3961091041565, 331.37099599838257, 331.5475800037384, 332.29827189445496, 332.4151289463043, 332.53168511390686, 332.64856600761414, 332.7653000354767, 332.8821539878845, 332.99877190589905, 333.1157810688019, 333.2324779033661, 333.3493390083313, 333.4661650657654, 333.58280396461487, 333.69975209236145, 333.8165910243988, 333.93334889411926, 334.0500819683075, 334.16694808006287, 334.3876690864563]	[330.28380094755653, 330.40046761421655, 331.38346761421656, 331.55016761421655, 332.30016761421655, 332.41683428087657, 332.5335009475366, 332.6501676141966, 332.76683428085664, 332.88350094751667, 333.0001676141767, 333.1168342808367, 333.23350094749674, 333.35016761415676, 333.4668342808168, 333.5835009474768, 333.70016761413683, 333.81683428079685, 333.9335009474569, 334.0501676141169, 334.1668342807769, 334.4001676141103]	2021_Feb_05_1705	59.917515817563384	1	0.375
26	56	FALSE	NV	a	['S', 'U', 'G', 'P', 'Z', 'V', 'A', 'X', 'N', 'J', 'K', 'M', 'E', 'W', 'Y', 'R']	[1731, 2059, 944, 1456, 2911, 2245, 697, 4000, 1335, 1029, 1122, 1224, 904, 2448, 2670, 1587]	8	Present	NA	NA	PRESENT	0.8537108898162842	336.3900170326233	338.3942060470581	338.9775474865898	339.32755034759276	342.50403690338135	4.109830856323242	[336.4024910926819, 336.5198950767517, 337.48735904693604, 337.67065596580505, 338.42131900787354, 338.53840708732605, 338.65497493743896, 338.77178597450256, 338.88862800598145, 339.00531005859375, 339.12215304374695, 339.2389380931854, 339.35578894615173, 339.4724130630493, 339.5892241001129, 339.7061679363251, 339.8226499557495, 339.93950390815735, 340.0564320087433, 340.1732211112976, 340.28997898101807, 340.50403594970703]	[336.4001676141103, 336.5168342807703, 337.4998342807703, 337.6665342807703, 338.4165342807703, 338.5332009474303, 338.64986761409034, 338.76653428075036, 338.8832009474104, 338.9998676140704, 339.11653428073043, 339.23320094739046, 339.3498676140505, 339.4665342807105, 339.5832009473705, 339.69986761403055, 339.8165342806906, 339.9332009473506, 340.0498676140106, 340.16653428067065, 340.28320094733067, 340.516534280664]	2021_Feb_05_1705	59.917515817563384	1	0.375
26	57	FALSE	NV	a	['S', 'A', 'T', 'N', 'V', 'Y', 'P', 'J', 'G', 'X', 'W', 'E', 'Z', 'U', 'C', 'M']	[1731, 697, 1888, 1335, 2245, 2670, 1456, 1029, 944, 4000, 2448, 904, 2911, 2059, 829, 1224]	10	Present	NA	NA	PRESENT	0.6910979747772217	342.51336216926575	344.5108880996704	345.3275626341035	345.67756573352506	348.62040400505066	4.109515905380249	[342.52583599090576, 342.6256721019745, 343.60372495651245, 343.7771050930023, 344.5276429653168, 344.6446659564972, 344.7613010406494, 344.87828612327576, 344.99495911598206, 345.11180305480957, 345.228511095047, 345.34542894363403, 345.4621031284332, 345.5790491104126, 345.6958990097046, 345.81260108947754, 345.9292709827423, 346.0459899902344, 346.16282200813293, 346.2798330783844, 346.396516084671, 346.62040400505066]	[342.516534280664, 342.63320094732404, 343.61620094732405, 343.78290094732404, 344.53290094732404, 344.64956761398406, 344.7662342806441, 344.8829009473041, 344.99956761396413, 345.11623428062416, 345.2329009472842, 345.3495676139442, 345.4662342806042, 345.58290094726425, 345.6995676139243, 345.8162342805843, 345.9329009472443, 346.04956761390434, 346.16623428056437, 346.2829009472244, 346.3995676138844, 346.63290094721776]	2021_Feb_05_1705	59.917515817563384	1	0.375
26	58	FALSE	NN	a	['T', 'N', 'H', 'Y', 'Z', 'S', 'B', 'C', 'K', 'M', 'V', 'A', 'W', 'E', 'U', 'G']	[1888, 1335, 986, 2670, 2911, 1731, 760, 829, 1122, 1224, 2245, 697, 2448, 904, 2059, 944]	11	Absent	NA	NA	ABSENT	1.015669822692871	348.6197099685669	350.62684416770935	351.56018441512816	351.91018632245675	354.73676896095276	4.109924793243408	[348.6321849822998, 348.74912190437317, 349.72009205818176, 349.90017008781433, 350.65102100372314, 350.7677540779114, 350.88470697402954, 351.0013871192932, 351.11833596229553, 351.2349169254303, 351.3520951271057, 351.4684250354767, 351.585401058197, 351.7019770145416, 351.8188750743866, 351.9355819225311, 352.0525150299072, 352.16933512687683, 352.286199092865, 352.4028260707855, 352.51983404159546, 352.7367699146271]	[348.63290094721776, 348.7495676138778, 349.7325676138778, 349.8992676138778, 350.6492676138778, 350.7659342805378, 350.88260094719783, 350.99926761385785, 351.1159342805179, 351.2326009471779, 351.3492676138379, 351.46593428049795, 351.58260094715797, 351.699267613818, 351.815934280478, 351.93260094713804, 352.04926761379807, 352.1659342804581, 352.2826009471181, 352.39926761377814, 352.51593428043816, 352.7492676137715]	2021_Feb_05_1705	59.917515817563384	1	0.375
26	59	FALSE	NV	a	['T', 'S', 'Z', 'Y', 'C', 'H', 'U', 'A', 'X', 'R', 'J', 'E', 'V', 'P', 'B', 'W']	[1888, 1731, 2911, 2670, 829, 986, 2059, 697, 4000, 1587, 1029, 904, 2245, 1456, 760, 2448]	9	Present	NA	NA	PRESENT	0.46105408668518066	354.7430830001831	356.74310398101807	357.4431120872098	357.7931139945384	360.8531370162964	4.11003303527832	[354.7555561065674, 354.87219190597534, 355.8364601135254, 356.0233700275421, 356.7740399837494, 356.8909170627594, 356.9908730983734, 357.10771012306213, 357.2245669364929, 357.34127712249756, 357.4580879211426, 357.5748219490051, 357.69160890579224, 357.80847907066345, 357.9252030849457, 358.04202699661255, 358.1588559150696, 358.2756299972534, 358.3924779891968, 358.5092730522156, 358.6261250972748, 358.85313606262207]	[354.7492676137715, 354.86593428043153, 355.84893428043154, 356.0156342804315, 356.7656342804315, 356.88230094709155, 356.9989676137516, 357.1156342804116, 357.2323009470716, 357.34896761373165, 357.46563428039167, 357.5823009470517, 357.6989676137117, 357.81563428037174, 357.93230094703176, 358.0489676136918, 358.1656342803518, 358.28230094701183, 358.39896761367186, 358.5156342803319, 358.6323009469919, 358.86563428032525]	2021_Feb_05_1705	59.917515817563384	1	0.375
26	60	FALSE	NA	a	['H', 'Y', 'P', 'G', 'N', 'J', 'C', 'R', 'T', 'A', 'U', 'S', 'X', 'V', 'B', 'Z']	[986, 2670, 1456, 944, 1335, 1029, 829, 1587, 1888, 697, 2059, 1731, 4000, 2245, 760, 2911]	13	Present	NA	NA	PRESENT	0.12166309356689452	360.84943294525146	362.8596520423889	364.0263268152206	364.37632872254926	366.9695019721985	4.10984992980957	[360.86190605163574, 360.97876811027527, 361.9528269767761, 362.13012504577637, 362.880539894104, 362.9975609779358, 363.11421608924866, 363.2310950756073, 363.34786200523376, 363.4646739959717, 363.58146500587463, 363.6982729434967, 363.81489300727844, 363.9316201210022, 364.0484929084778, 364.16546607017517, 364.28223299980164, 364.39893412590027, 364.5157561302185, 364.6324191093445, 364.74938702583313, 364.9695019721985]	[360.86563428032525, 360.9823009469853, 361.9653009469853, 362.1320009469853, 362.8820009469853, 362.9986676136453, 363.1153342803053, 363.23200094696534, 363.34866761362537, 363.4653342802854, 363.5820009469454, 363.69866761360544, 363.81533428026546, 363.9320009469255, 364.0486676135855, 364.16533428024553, 364.28200094690555, 364.3986676135656, 364.5153342802256, 364.6320009468856, 364.74866761354565, 364.982000946879]	2021_Feb_05_1705	59.917515817563384	1	0.375
26	61	FALSE	NA	a	['R', 'M', 'K', 'V', 'J', 'P', 'C', 'U', 'N', 'A', 'T', 'H', 'X', 'S', 'W', 'G']	[1587, 1224, 1122, 2245, 1029, 1456, 829, 2059, 1335, 697, 1888, 986, 4000, 1731, 2448, 944]	13	Present	NA	NA	PRESENT	0.7102398872375488	366.9724330902099	368.9758689403534	370.1425427595108	370.4925446668394	373.0858690738678	4.110000133514404	[366.98490595817566, 367.10195207595825, 368.06919407844543, 368.25317192077637, 369.00383710861206, 369.12070512771606, 369.23754596710205, 369.3541069030762, 369.4710741043091, 369.5879850387573, 369.70463490486145, 369.82130908966064, 369.93821597099304, 370.0549819469452, 370.17176699638367, 370.28843903541565, 370.40536403656006, 370.5220580101013, 370.63895893096924, 370.7558751106262, 370.8723900318146, 371.08587098121643]	[366.982000946879, 367.098667613539, 368.081667613539, 368.248367613539, 368.998367613539, 369.11503428019904, 369.23170094685906, 369.3483676135191, 369.4650342801791, 369.58170094683913, 369.69836761349916, 369.8150342801592, 369.9317009468192, 370.04836761347923, 370.16503428013925, 370.2817009467993, 370.3983676134593, 370.5150342801193, 370.63170094677935, 370.74836761343937, 370.8650342800994, 371.09836761343274]	2021_Feb_05_1705	59.917515817563384	1	0.375
26	62	FALSE	NV	a	['Z', 'R', 'J', 'H', 'U', 'G', 'N', 'P', 'W', 'V', 'T', 'Y', 'E', 'X', 'A', 'C']	[2911, 1587, 1029, 986, 2059, 944, 1335, 1456, 2448, 2245, 1888, 2670, 904, 4000, 697, 829]	14	Present	NA	NA	PRESENT	0.7792961597442627	373.07893109321594	375.0925681591034	376.37590840650216	376.7259103138308	379.2022371292114	4.109668970108032	[373.09140706062317, 373.20834398269653, 374.18555998802185, 374.3595390319824, 375.1102271080017, 375.2271819114685, 375.3438229560852, 375.46079111099243, 375.5775339603424, 375.6942141056061, 375.81112909317017, 375.92769408226013, 376.04447889328003, 376.161484003067, 376.2782199382782, 376.3950140476227, 376.5118250846863, 376.6286361217499, 376.74542593955994, 376.8621470928192, 376.97908306121826, 377.20223593711853]	[373.09836761343274, 373.21503428009277, 374.19803428009277, 374.36473428009276, 375.11473428009276, 375.2314009467528, 375.3480676134128, 375.46473428007283, 375.58140094673286, 375.6980676133929, 375.8147342800529, 375.9314009467129, 376.04806761337295, 376.164734280033, 376.281400946693, 376.398067613353, 376.51473428001304, 376.63140094667307, 376.7480676133331, 376.8647342799931, 376.98140094665314, 377.2147342799865]	2021_Feb_05_1705	59.917515817563384	1	0.375
26	63	FALSE	NN	a	['V', 'M', 'A', 'H', 'E', 'C', 'G', 'B', 'P', 'T', 'J', 'S', 'W', 'Z', 'N', 'Y']	[2245, 1224, 697, 986, 904, 829, 944, 760, 1456, 1888, 1029, 1731, 2448, 2911, 1335, 2670]	8	Absent	NA	NA	ABSENT	1.0959291458129885	379.2021150588989	381.2087430953979	381.79208334283675	382.142085488584	385.31860303878784	4.109859943389893	[379.2145879268646, 379.331444978714, 380.30192708969116, 380.4825758934021, 381.23354291915894, 381.35050892829895, 381.46695494651794, 381.58388590812683, 381.7006130218506, 381.81731700897217, 381.93427896499634, 382.0508930683136, 382.16785502433777, 382.28460001945496, 382.4014639854431, 382.51808500289917, 382.635046005249, 382.7516701221466, 382.868616104126, 382.98518109321594, 383.10206294059753, 383.3186020851135]	[379.2147342799865, 379.3314009466465, 380.3144009466465, 380.4811009466465, 381.2311009466465, 381.34776761330653, 381.46443427996655, 381.5811009466266, 381.6977676132866, 381.8144342799466, 381.93110094660665, 382.04776761326667, 382.1644342799267, 382.2811009465867, 382.39776761324674, 382.51443427990677, 382.6311009465668, 382.7477676132268, 382.86443427988684, 382.98110094654686, 383.0977676132069, 383.33110094654023]	2021_Feb_05_1705	59.917515817563384	1	0.375
26	64	FALSE	NA	a	['E', 'P', 'J', 'N', 'R', 'T', 'A', 'X', 'B', 'U', 'G', 'C', 'Z', 'S', 'V', 'W']	[904, 1456, 1029, 1335, 1587, 1888, 697, 4000, 760, 2059, 944, 829, 2911, 1731, 2245, 2448]	8	Present	NA	NA	PRESENT	1.5092031955718994	385.3254041671753	387.32483100891113	387.9081714947685	388.2581734020971	391.4349699020386	4.110138893127441	[385.3378779888153, 385.4548170566559, 386.41829204559326, 386.6059510707855, 387.35661005973816, 387.4566419124603, 387.5735080242157, 387.69017910957336, 387.80698704719543, 387.9238169193268, 388.04059410095215, 388.15738892555237, 388.2742519378662, 388.39090299606323, 388.50771403312683, 388.6245050430298, 388.74148201942444, 388.8581221103668, 388.97515201568604, 389.0918390750885, 389.2087631225586, 389.43496894836426]	[385.33110094654023, 385.44776761320026, 386.43076761320026, 386.59746761320025, 387.34746761320025, 387.4641342798603, 387.5808009465203, 387.6974676131803, 387.81413427984035, 387.93080094650037, 388.0474676131604, 388.1641342798204, 388.28080094648044, 388.39746761314046, 388.5141342798005, 388.6308009464605, 388.74746761312053, 388.86413427978056, 388.9808009464406, 389.0974676131006, 389.21413427976063, 389.447467613094]	2021_Feb_05_1705	59.917515817563384	1	0.375
26	65	FALSE	NA	a	['U', 'G', 'W', 'V', 'P', 'E', 'S', 'Y', 'Z', 'J', 'T', 'H', 'B', 'X', 'K', 'A']	[2059, 944, 2448, 2245, 1456, 904, 1731, 2670, 2911, 1029, 1888, 986, 760, 4000, 1122, 697]	14	Present	NA	NA	PRESENT	1.4019639492034912	391.43214297294617	393.44131803512573	394.7246582825245	395.0746604282717	397.5513360500336	4.110018014907837	[391.44461703300476, 391.5612349510193, 392.5346610546112, 392.7122731208801, 393.4630460739136, 393.5798020362854, 393.6967821121216, 393.81361508369446, 393.930321931839, 394.0469949245453, 394.16399097442627, 394.2806990146637, 394.3973710536957, 394.5142910480499, 394.63108801841736, 394.7477459907532, 394.8646650314331, 394.98137402534485, 395.09829592704773, 395.2148599624634, 395.33166098594666, 395.5513370037079]	[391.447467613094, 391.564134279754, 392.547134279754, 392.713834279754, 393.463834279754, 393.580500946414, 393.69716761307404, 393.81383427973407, 393.9305009463941, 394.0471676130541, 394.16383427971414, 394.28050094637416, 394.3971676130342, 394.5138342796942, 394.63050094635423, 394.74716761301426, 394.8638342796743, 394.9805009463343, 395.0971676129943, 395.21383427965435, 395.3305009463144, 395.5638342796477]	2021_Feb_05_1705	59.917515817563384	1	0.375
26	66	FALSE	AN	a	['B', 'J', 'M', 'T', 'G', 'surprise', 'V', 'P', 'Z', 'U', 'K', 'W', 'C', 'H', 'A', 'S']	[760, 1029, 1224, 1888, 944, 'stimAuditory/all_stimAuditory/124.wav', 2245, 1456, 2911, 2059, 1122, 2448, 829, 986, 697, 1731]	9	Absent	stimAuditory/all_stimAuditory/121.wav	NA	ABSENT	1.7582480907440186	397.5549581050873	399.5577869415283	400.25779504772	400.6077969550486	403.6677029132843	4.1099159717559814	[397.5674319267273, 397.68424797058105, 398.6510269641876, 398.8354740142822, 399.5862469673157, 399.7032039165497, 399.8198459148407, 399.9367151260376, 400.05368304252625, 400.17016100883484, 400.28718304634094, 400.4039649963379, 400.5209140777588, 400.63755106925964, 400.7541971206665, 400.87111592292786, 400.98791909217834, 401.10467195510864, 401.22148394584656, 401.3383460044861, 401.45505595207214, 401.6677029132843]	[397.5638342796477, 397.68050094630775, 398.66350094630775, 398.83020094630774, 399.58020094630774, 399.69686761296776, 399.8135342796278, 399.9302009462878, 400.04686761294784, 400.16353427960786, 400.2802009462679, 400.3968676129279, 400.51353427958793, 400.63020094624795, 400.746867612908, 400.863534279568, 400.980200946228, 401.09686761288805, 401.21353427954807, 401.3302009462081, 401.4468676128681, 401.68020094620147]	2021_Feb_05_1705	59.917515817563384	1	0.375
26	67	FALSE	NA	a	['H', 'V', 'N', 'W', 'J', 'U', 'C', 'Y', 'K', 'B', 'X', 'M', 'S', 'Z', 'R', 'P']	[986, 2245, 1335, 2448, 1029, 2059, 829, 2670, 1122, 760, 4000, 1224, 1731, 2911, 1587, 1456]	11	Present	NA	NA	PRESENT	0.8995959758758545	403.66142416000366	405.6742789745331	406.6076204140448	406.9576223213734	409.7840690612793	4.109790086746216	[403.67389702796936, 403.790638923645, 404.76739406585693, 404.9418349266052, 405.6926839351654, 405.80968499183655, 405.9263551235199, 406.0431549549103, 406.1598711013794, 406.2765860557556, 406.39353108406067, 406.5103659629822, 406.62720489501953, 406.7437860965729, 406.86077094078064, 406.9772970676422, 407.0944399833679, 407.2109169960022, 407.327663898468, 407.44446301460266, 407.56126594543457, 407.7840700149536]	[403.68020094620147, 403.7968676128615, 404.7798676128615, 404.9465676128615, 405.6965676128615, 405.8132342795215, 405.92990094618153, 406.04656761284156, 406.1632342795016, 406.2799009461616, 406.3965676128216, 406.51323427948165, 406.6299009461417, 406.7465676128017, 406.8632342794617, 406.97990094612175, 407.09656761278177, 407.2132342794418, 407.3299009461018, 407.44656761276184, 407.56323427942186, 407.7965676127552]	2021_Feb_05_1705	59.917515817563384	1	0.375
26	68	FALSE	NN	a	['H', 'C', 'A', 'S', 'P', 'K', 'Y', 'N', 'V', 'J', 'E', 'T', 'B', 'Z', 'R', 'M']	[986, 829, 697, 1731, 1456, 1122, 2670, 1335, 2245, 1029, 904, 1888, 760, 2911, 1587, 1224]	8	Absent	NA	NA	ABSENT	1.3921940326690674	409.7846460342407	411.79047107696533	412.3738113244042	412.72381347015136	415.90043592453	4.109964847564697	[409.7971189022064, 409.91403698921204, 410.8837571144104, 411.0651431083679, 411.81632804870605, 411.9326870441437, 412.0496060848236, 412.1661899089813, 412.2830250263214, 412.3998770713806, 412.5166389942169, 412.6333749294281, 412.7504150867462, 412.8671350479126, 412.9837419986725, 413.1005349159241, 413.2172529697418, 413.33419013023376, 413.450777053833, 413.56784296035767, 413.6846880912781, 413.9004371166229]	[409.7965676127552, 409.91323427941524, 410.89623427941524, 411.06293427941523, 411.81293427941523, 411.92960094607525, 412.0462676127353, 412.1629342793953, 412.2796009460553, 412.39626761271535, 412.5129342793754, 412.6296009460354, 412.7462676126954, 412.86293427935544, 412.97960094601547, 413.0962676126755, 413.2129342793355, 413.32960094599554, 413.44626761265556, 413.5629342793156, 413.6796009459756, 413.91293427930896]	2021_Feb_05_1705	59.917515817563384	1	0.375
26	69	FALSE	AA	a	['C', 'N', 'E', 'G', 'A', 'P', 'B', 'surprise', 'J', 'Y', 'X', 'H', 'T', 'W', 'Z', 'R']	[829, 1335, 904, 944, 697, 1456, 760, 'stimAuditory/all_stimAuditory/213.wav', 1029, 2670, 4000, 986, 1888, 2448, 2911, 1587]	11	Present	stimAuditory/all_stimAuditory/116.wav	NA	PRESENT	1.4453749656677246	415.9079999923706	417.9068720340729	418.8402134735846	419.1902153809132	422.016802072525	4.109930038452148	[415.9204750061035, 416.0374140739441, 417.0001230239868, 417.171569108963, 417.93896102905273, 418.0391139984131, 418.1558849811554, 418.2726640701294, 418.38952112197876, 418.50622510910034, 418.62322092056274, 418.73985505104065, 418.85659098625183, 418.97344303131104, 419.0904440879822, 419.20700097084045, 419.3239800930023, 419.4405789375305, 419.5574629306793, 419.6743109226227, 419.791139125824, 420.016802072525]	[415.91293427930896, 416.029600945969, 417.012600945969, 417.179300945969, 417.929300945969, 418.045967612629, 418.162634279289, 418.27930094594905, 418.39596761260907, 418.5126342792691, 418.6293009459291, 418.74596761258914, 418.86263427924916, 418.9793009459092, 419.0959676125692, 419.21263427922923, 419.32930094588926, 419.4459676125493, 419.5626342792093, 419.67930094586933, 419.79596761252935, 420.0293009458627]	2021_Feb_05_1705	59.917515817563384	1	0.375
26	70	FALSE	NA	a	['P', 'C', 'Z', 'G', 'W', 'M', 'T', 'K', 'J', 'H', 'X', 'U', 'A', 'B', 'E', 'R']	[1456, 829, 2911, 944, 2448, 1224, 1888, 1122, 1029, 986, 4000, 2059, 697, 760, 904, 1587]	11	Present	NA	NA	PRESENT	1.0420050621032717	422.0142960548401	424.02322006225586	424.9565615017676	425.30656340909616	428.13316893577576	4.1099488735198975	[422.0267689228058, 422.14364194869995, 423.1164929866791, 423.29479002952576, 424.04559206962585, 424.1625940799713, 424.2792339324951, 424.39608097076416, 424.5128619670868, 424.6293959617615, 424.7465341091156, 424.86304092407227, 424.98005199432373, 425.09665298461914, 425.21349906921387, 425.33043909072876, 425.4472761154175, 425.56387400627136, 425.6805748939514, 425.79743099212646, 425.9141709804535, 426.13317012786865]	[422.0293009458627, 422.1459676125227, 423.12896761252273, 423.2956676125227, 424.0456676125227, 424.16233427918274, 424.27900094584277, 424.3956676125028, 424.5123342791628, 424.62900094582284, 424.74566761248286, 424.8623342791429, 424.9790009458029, 425.09566761246293, 425.21233427912296, 425.329000945783, 425.445667612443, 425.562334279103, 425.67900094576305, 425.7956676124231, 425.9123342790831, 426.14566761241645]	2021_Feb_05_1705	59.917515817563384	1	0.375
26	71	FALSE	NN	a	['C', 'N', 'S', 'E', 'H', 'M', 'G', 'A', 'Z', 'T', 'W', 'J', 'Y', 'R', 'U', 'P']	[829, 1335, 1731, 904, 986, 1224, 944, 697, 2911, 1888, 2448, 1029, 2670, 1587, 2059, 1456]	11	Absent	NA	NA	ABSENT	0.8794801235198975	428.1375920772553	430.1394910812378	431.0728322823309	431.4228344280781	434.24953603744507	4.110044956207275	[428.15006494522095, 428.26681900024414, 429.2328579425812, 429.4180679321289, 430.1687560081482, 430.2854609489441, 430.4024169445038, 430.5190489292145, 430.6358780860901, 430.75276803970337, 430.8694179058075, 430.9863951206207, 431.10300612449646, 431.2197890281677, 431.3369560241699, 431.45358896255493, 431.5701050758362, 431.6869649887085, 431.8038671016693, 431.9205129146576, 432.0205340385437, 432.24953603744507]	[428.14566761241645, 428.26233427907647, 429.2453342790765, 429.41203427907647, 430.16203427907647, 430.2787009457365, 430.3953676123965, 430.51203427905654, 430.62870094571656, 430.7453676123766, 430.8620342790366, 430.97870094569663, 431.09536761235665, 431.2120342790167, 431.3287009456767, 431.4453676123367, 431.56203427899675, 431.6787009456568, 431.7953676123168, 431.9120342789768, 432.02870094563684, 432.2620342789702]	2021_Feb_05_1705	59.917515817563384	1	0.375
26	72	FALSE	NV	a	['E', 'K', 'H', 'J', 'A', 'B', 'G', 'X', 'M', 'Y', 'U', 'W', 'T', 'V', 'P', 'Z']	[904, 1122, 986, 1029, 697, 760, 944, 4000, 1224, 2670, 2059, 2448, 1888, 2245, 1456, 2911]	8	Present	NA	NA	PRESENT	1.3000271320343018	434.2437529563904	436.25596714019775	436.83930834131087	437.1893104870581	440.3659029006958	4.109935760498047	[434.25622510910034, 434.37330412864685, 435.3492259979248, 435.524600982666, 436.27522802352905, 436.39196705818176, 436.5088109970093, 436.62568712234497, 436.742516040802, 436.85906410217285, 436.9760899543762, 437.0928750038147, 437.2097399234772, 437.3263580799103, 437.44325399398804, 437.5598978996277, 437.6767499446869, 437.7935039997101, 437.91015100479126, 438.0268199443817, 438.1436641216278, 438.3659029006958]	[434.2620342789702, 434.3787009456302, 435.3617009456302, 435.5284009456302, 436.2784009456302, 436.39506761229023, 436.51173427895026, 436.6284009456103, 436.7450676122703, 436.8617342789303, 436.97840094559035, 437.0950676122504, 437.2117342789104, 437.3284009455704, 437.44506761223045, 437.56173427889047, 437.6784009455505, 437.7950676122105, 437.91173427887054, 438.02840094553056, 438.1450676121906, 438.37840094552394]	2021_Feb_05_1705	59.917515817563384	1	0.375
26	73	FALSE	NV	a	['G', 'C', 'S', 'N', 'J', 'E', 'H', 'B', 'V', 'Y', 'X', 'W', 'R', 'K', 'A', 'Z']	[944, 829, 1731, 1335, 1029, 904, 986, 760, 2245, 2670, 4000, 2448, 1587, 1122, 697, 2911]	11	Present	NA	NA	PRESENT	0.9925868511199952	440.3668940067291	442.3721101284027	443.30545132949584	443.655453475243	446.4822690486908	4.110158920288086	[440.3793671131134, 440.49617290496826, 441.46559405326843, 441.64786100387573, 442.3982799053192, 442.5155339241028, 442.63194489479065, 442.7488009929657, 442.8654909133911, 442.9822680950165, 443.0990810394287, 443.21591997146606, 443.33279490470886, 443.4497261047363, 443.56644797325134, 443.6830880641937, 443.7999949455261, 443.91702103614807, 444.0335531234741, 444.1501131057739, 444.2670109272003, 444.4822700023651]	[440.37840094552394, 440.49506761218396, 441.47806761218396, 441.64476761218395, 442.39476761218395, 442.511434278844, 442.628100945504, 442.744767612164, 442.86143427882405, 442.9781009454841, 443.0947676121441, 443.2114342788041, 443.32810094546414, 443.44476761212417, 443.5614342787842, 443.6781009454442, 443.79476761210424, 443.91143427876426, 444.0281009454243, 444.1447676120843, 444.26143427874433, 444.4947676120777]	2021_Feb_05_1705	59.917515817563384	1	0.375
26	74	FALSE	NA	a	['W', 'H', 'J', 'M', 'R', 'E', 'Z', 'X', 'A', 'S', 'K', 'B', 'V', 'C', 'N', 'G']	[2448, 986, 1029, 1224, 1587, 904, 2911, 4000, 697, 1731, 1122, 760, 2245, 829, 1335, 944]	8	Present	NA	NA	PRESENT	0.8298220634460449	446.4903299808502	448.4888319969177	449.0721734364494	449.42217534377806	452.5986371040344	4.109805107116699	[446.5028030872345, 446.61959409713745, 447.58195996284485, 447.754065990448, 448.52186608314514, 448.62154603004456, 448.7384889125824, 448.8553419113159, 448.9721999168396, 449.08879494667053, 449.2057499885559, 449.32240295410156, 449.4393119812012, 449.5561509132385, 449.67289209365845, 449.78966307640076, 449.90647196769714, 450.02312111854553, 450.14009499549866, 450.25672698020935, 450.37356901168823, 450.5986371040344]	[446.4947676120777, 446.6114342787377, 447.5944342787377, 447.7611342787377, 448.5111342787377, 448.6278009453977, 448.74446761205775, 448.86113427871777, 448.9778009453778, 449.0944676120378, 449.21113427869784, 449.32780094535786, 449.4444676120179, 449.5611342786779, 449.67780094533794, 449.79446761199796, 449.911134278658, 450.027800945318, 450.14446761197803, 450.26113427863805, 450.3778009452981, 450.6111342786314]	2021_Feb_05_1705	59.917515817563384	1	0.375
26	75	FALSE	NV	a	['B', 'S', 'N', 'J', 'K', 'P', 'W', 'X', 'Z', 'R', 'C', 'V', 'U', 'E', 'A', 'M']	[760, 1731, 1335, 1029, 1122, 1456, 2448, 4000, 2911, 1587, 829, 2245, 2059, 904, 697, 1224]	8	Present	NA	NA	PRESENT	0.4743800163269043	452.59664702415466	454.6054210662842	455.1887634594902	455.5387653668189	458.7150020599365	4.109580993652344	[452.60912013053894, 452.7259130477905, 453.69832491874695, 453.8772859573364, 454.6280779838562, 454.7449390888214, 454.86172890663147, 454.9784801006317, 455.09526896476746, 455.21189403533936, 455.3286819458008, 455.44557905197144, 455.5625081062317, 455.6790931224823, 455.7958450317383, 455.91287112236023, 456.0296280384064, 456.146271944046, 456.26312589645386, 456.3798770904541, 456.4968030452728, 456.71500396728516]	[452.6111342786314, 452.72780094529145, 453.71080094529145, 453.87750094529144, 454.62750094529144, 454.74416761195147, 454.8608342786115, 454.9775009452715, 455.09416761193154, 455.21083427859156, 455.3275009452516, 455.4441676119116, 455.56083427857163, 455.67750094523166, 455.7941676118917, 455.9108342785517, 456.0275009452117, 456.14416761187175, 456.2608342785318, 456.3775009451918, 456.4941676118518, 456.72750094518517]	2021_Feb_05_1705	59.917515817563384	1	0.375
26	76	FALSE	VA	a	['S', 'J', 'Y', 'B', 'W', 'K', 'surprise', 'Z', 'C', 'X', 'V', 'T', 'N', 'R', 'A', 'P']	[1731, 1029, 2670, 760, 2448, 1122, 'stimAuditory/all_stimAuditory/212.wav', 2911, 829, 4000, 2245, 1888, 1335, 1587, 697, 1456]	10	Present	NA	NA	PRESENT	0.8159120082855225	458.71995401382446	460.7214479446411	461.5381227174928	461.88812462482144	464.83136892318726	4.109920978546143	[458.73242592811584, 458.8493230342865, 459.8146929740906, 460.0004069805145, 460.7511188983917, 460.8679270744324, 460.9849591255188, 461.101567029953, 461.2185580730438, 461.3355779647827, 461.4520139694214, 461.56871795654297, 461.68551993370056, 461.80247807502747, 461.91910791397095, 462.03610706329346, 462.1358799934387, 462.2527480125427, 462.3695170879364, 462.4864010810852, 462.60304594039917, 462.83136892318726]	[458.72750094518517, 458.8441676118452, 459.8271676118452, 459.9938676118452, 460.7438676118452, 460.8605342785052, 460.97720094516524, 461.09386761182526, 461.2105342784853, 461.3272009451453, 461.44386761180533, 461.56053427846535, 461.6772009451254, 461.7938676117854, 461.9105342784454, 462.02720094510545, 462.1438676117655, 462.2605342784255, 462.3772009450855, 462.49386761174554, 462.61053427840557, 462.8438676117389]	2021_Feb_05_1705	59.917515817563384	1	0.375
26	77	FALSE	NV	a	['E', 'Y', 'N', 'M', 'W', 'J', 'V', 'H', 'G', 'T', 'X', 'C', 'B', 'K', 'A', 'S']	[904, 2670, 1335, 1224, 2448, 1029, 2245, 986, 944, 1888, 4000, 829, 760, 1122, 697, 1731]	11	Present	NA	NA	PRESENT	0.7963359355926514	464.8263220787048	466.8377001285553	467.7710413296484	468.1210434753956	470.9477369785309	4.110036849975586	[464.83879494667053, 464.95572090148926, 465.9310579299927, 466.106910943985, 466.8576490879059, 466.9745659828186, 467.09116101264954, 467.20797991752625, 467.32485604286194, 467.44162607192993, 467.5585401058197, 467.6752920150757, 467.7919409275055, 467.90895199775696, 468.025759935379, 468.14248490333557, 468.2592980861664, 468.3759911060333, 468.4927430152893, 468.60966992378235, 468.7262260913849, 468.94773602485657]	[464.8438676117389, 464.96053427839894, 465.94353427839894, 466.11023427839893, 466.86023427839893, 466.97690094505896, 467.093567611719, 467.210234278379, 467.32690094503903, 467.44356761169905, 467.5602342783591, 467.6769009450191, 467.7935676116791, 467.91023427833915, 468.02690094499917, 468.1435676116592, 468.2602342783192, 468.37690094497924, 468.49356761163926, 468.6102342782993, 468.7269009449593, 468.96023427829266]	2021_Feb_05_1705	59.917515817563384	1	0.375
26	78	FALSE	NN	a	['N', 'M', 'G', 'C', 'U', 'W', 'A', 'R', 'T', 'P', 'B', 'H', 'Y', 'K', 'Z', 'E']	[1335, 1224, 944, 829, 2059, 2448, 697, 1587, 1888, 1456, 760, 986, 2670, 1122, 2911, 904]	10	Absent	NA	NA	ABSENT	1.2568950653076172	470.94962906837463	472.9542770385742	473.7709518114259	474.12095371875455	477.0641031265259	4.10982608795166	[470.96210193634033, 471.07896900177, 472.0474281311035, 472.2304570674896, 472.98068404197693, 473.0975399017334, 473.21445989608765, 473.33124589920044, 473.44796991348267, 473.56470489501953, 473.68159794807434, 473.7983150482178, 473.91531205177307, 474.0321969985962, 474.14871096611023, 474.2656760215759, 474.38225293159485, 474.49913907051086, 474.61599493026733, 474.73282408714294, 474.84947299957275, 475.064101934433]	[470.96023427829266, 471.0769009449527, 472.0599009449527, 472.2266009449527, 472.9766009449527, 473.0932676116127, 473.2099342782727, 473.32660094493275, 473.4432676115928, 473.5599342782528, 473.6766009449128, 473.79326761157284, 473.90993427823287, 474.0266009448929, 474.1432676115529, 474.25993427821294, 474.37660094487296, 474.493267611533, 474.609934278193, 474.72660094485303, 474.84326761151306, 475.0766009448464]	2021_Feb_05_1705	59.917515817563384	1	0.375
26	79	FALSE	NV	a	['G', 'J', 'C', 'S', 'U', 'A', 'V', 'R', 'B', 'N', 'M', 'X', 'E', 'H', 'W', 'T']	[944, 1029, 829, 1731, 2059, 697, 2245, 1587, 760, 1335, 1224, 4000, 904, 986, 2448, 1888]	12	Present	NA	NA	PRESENT	0.7021019458770752	477.0725920200348	479.0704300403595	480.1204381465312	480.47044100753413	483.1804699897766	4.110039949417114	[477.08506512641907, 477.1852180957794, 478.1637909412384, 478.3365099430084, 479.10406494140625, 479.2042889595032, 479.32088899612427, 479.43780612945557, 479.55449295043945, 479.6712019443512, 479.7881610393524, 479.90498900413513, 480.02182507514954, 480.13836312294006, 480.2554099559784, 480.37215304374695, 480.4887499809265, 480.60583901405334, 480.72235012054443, 480.8392128944397, 480.95589303970337, 481.1804699897766]	[477.0766009448464, 477.1932676115064, 478.17626761150643, 478.3429676115064, 479.0929676115064, 479.20963427816645, 479.32630094482647, 479.4429676114865, 479.5596342781465, 479.67630094480654, 479.79296761146657, 479.9096342781266, 480.0263009447866, 480.14296761144664, 480.25963427810666, 480.3763009447667, 480.4929676114267, 480.60963427808673, 480.72630094474675, 480.8429676114068, 480.9596342780668, 481.19296761140015]	2021_Feb_05_1705	59.917515817563384	1	0.375
