participant	trial_num	practice	task	condition	RSVP	RAP	probePos	probe_presence	surprise_sound	surprise_img	probe_response	probe_resp_time	first_fixation_time	trial_start_time	surprise_start_time	probe_start_time	trial_end_time	trial_duration	actualEventTimes	plannedEventTimes	date	framerate	marker_vol	RAP_vol
32	1	FALSE	NV	a	['K', 'U', 'M', 'J', 'C', 'Z', 'G', 'Y', 'V', 'B', 'H', 'E', 'X', 'R', 'S', 'P']	[1122, 2059, 1224, 1029, 829, 2911, 944, 2670, 2245, 760, 986, 904, 4000, 1587, 1731, 1456]	13	Present	NA	NA	PRESENT	0.5260581970214844	3.814697265625e-6	1.9929859638214111	3.1596626440017337	3.509664551330366	6.103870153427124	4.110884189605713	[0.01645803451538086, 0.11647701263427734, 1.087191104888916, 1.2677509784698486, 2.0184950828552246, 2.1354050636291504, 2.2520391941070557, 2.3692920207977295, 2.4855780601501465, 2.6025640964508057, 2.7193071842193604, 2.836158037185669, 2.9529170989990234, 3.0696849822998047, 3.186422109603882, 3.3033671379089355, 3.4201769828796387, 3.5368101596832275, 3.653747081756592, 3.770336151123047, 3.8872530460357666, 4.103870153427124]	[2.1457672119140625e-06, 0.11666881242721192, 1.0996688124272118, 1.2663688124272119, 2.0163688124272117, 2.1330354790872117, 2.2497021457472117, 2.3663688124072118, 2.483035479067212, 2.599702145727212, 2.716368812387212, 2.833035479047212, 2.949702145707212, 3.066368812367212, 3.183035479027212, 3.299702145687212, 3.416368812347212, 3.533035479007212, 3.649702145667212, 3.766368812327212, 3.883035478987212, 4.1163688123205455]	2021_Feb_18_1416	60.005293359409094	1	0.375
32	2	FALSE	NN	a	['V', 'G', 'P', 'B', 'A', 'R', 'M', 'C', 'J', 'K', 'W', 'Y', 'N', 'E', 'Z', 'T']	[2245, 944, 1456, 760, 697, 1587, 1224, 829, 1029, 1122, 2448, 2670, 1335, 904, 2911, 1888]	14	Absent	NA	NA	ABSENT	0.5953590869903564	6.106319904327393	8.10632586479187	9.389666350609245	9.739668257937875	12.220237016677856	4.113911151885986	[6.122773170471191, 6.2398271560668945, 7.203559160232544, 7.390912055969238, 8.141837120056152, 8.241760015487671, 8.358640193939209, 8.475293159484863, 8.592051982879639, 8.708819150924683, 8.825672149658203, 8.94248914718628, 9.059336185455322, 9.176124095916748, 9.292824029922485, 9.409664154052734, 9.52677297592163, 9.643381118774414, 9.760097980499268, 9.877021074295044, 9.993626117706299, 10.220237016677856]	[6.1163688123205455, 6.233035478980545, 7.216035478980545, 7.382735478980544, 8.132735478980544, 8.249402145640545, 8.366068812300545, 8.482735478960546, 8.599402145620546, 8.716068812280547, 8.832735478940547, 8.949402145600548, 9.066068812260548, 9.182735478920549, 9.29940214558055, 9.41606881224055, 9.53273547890055, 9.64940214556055, 9.766068812220551, 9.882735478880551, 9.999402145540552, 10.232735478873884]	2021_Feb_18_1416	60.005293359409094	1	0.375
32	3	FALSE	NA	a	['B', 'T', 'C', 'Y', 'Z', 'K', 'P', 'J', 'N', 'G', 'W', 'A', 'X', 'E', 'H', 'M']	[760, 1888, 829, 2670, 2911, 1122, 1456, 1029, 1335, 944, 2448, 697, 4000, 904, 986, 1224]	13	Present	NA	NA	PRESENT	0.8237500190734863	12.21304702758789	14.222615003585815	15.389289537998923	15.73929168374614	18.336604118347168	4.1139891147613525	[12.229499101638794, 12.346477031707764, 13.319928169250488, 13.497353076934814, 14.248033046722412, 14.365046977996826, 14.48186707496643, 14.598726987838745, 14.715489149093628, 14.832233190536499, 14.94894003868103, 15.065802097320557, 15.182480096817017, 15.299338102340698, 15.416134119033813, 15.533006191253662, 15.649744987487793, 15.766455173492432, 15.88331913948059, 16.000192165374756, 16.116908073425293, 16.336605072021484]	[12.232735478873884, 12.349402145533885, 13.332402145533885, 13.499102145533886, 14.249102145533886, 14.365768812193886, 14.482435478853887, 14.599102145513887, 14.715768812173888, 14.832435478833888, 14.949102145493889, 15.06576881215389, 15.18243547881389, 15.29910214547389, 15.41576881213389, 15.532435478793891, 15.649102145453892, 15.765768812113892, 15.882435478773893, 15.999102145433893, 16.115768812093894, 16.349102145427228]	2021_Feb_18_1416	60.005293359409094	1	0.375
32	4	FALSE	NV	a	['Y', 'P', 'C', 'A', 'H', 'S', 'B', 'V', 'X', 'J', 'U', 'W', 'Z', 'K', 'N', 'R']	[2670, 1456, 829, 697, 986, 1731, 760, 2245, 4000, 1029, 2059, 2448, 2911, 1122, 1335, 1587]	9	Present	NA	NA	PRESENT	0.7960009574890137	18.33610486984253	20.338899850845337	21.038907957037026	21.38890891069134	24.452970027923584	4.114070177078247	[18.35255718231201, 18.469423055648804, 19.43629217147827, 19.620666027069092, 20.37130618095398, 20.488028049468994, 20.605051040649414, 20.72184705734253, 20.838524103164673, 20.955204010009766, 21.07210612297058, 21.18888211250305, 21.305927991867065, 21.42263412475586, 21.539494037628174, 21.656143188476562, 21.772994995117188, 21.889796018600464, 22.00667119026184, 22.123210191726685, 22.240190029144287, 22.4529709815979]	[18.349102145427228, 18.465768812087227, 19.448768812087227, 19.615468812087226, 20.365468812087226, 20.482135478747225, 20.598802145407223, 20.715468812067222, 20.83213547872722, 20.94880214538722, 21.065468812047218, 21.182135478707217, 21.298802145367215, 21.415468812027214, 21.532135478687213, 21.64880214534721, 21.76546881200721, 21.88213547866721, 21.998802145327208, 22.115468811987206, 22.232135478647205, 22.46546881198054]	2021_Feb_18_1416	60.005293359409094	1	0.375
32	5	FALSE	NA	a	['S', 'V', 'T', 'U', 'N', 'R', 'H', 'E', 'K', 'A', 'Y', 'P', 'X', 'B', 'G', 'M']	[1731, 2245, 1888, 2059, 1335, 1587, 986, 904, 1122, 697, 2670, 1456, 4000, 760, 944, 1224]	13	Present	NA	NA	PRESENT	0.7294681072235107	24.442516803741455	26.45558285713196	27.62225762996365	27.97225953729228	30.569338083267212	4.113755226135254	[24.458970069885254, 24.575704097747803, 25.552659034729004, 25.727127075195312, 26.47778010368347, 26.594738006591797, 26.711369037628174, 26.828356981277466, 26.945110082626343, 27.06196403503418, 27.178601026535034, 27.29540205001831, 27.412126064300537, 27.52900218963623, 27.64571499824524, 27.762580156326294, 27.879290103912354, 27.996328115463257, 28.11299204826355, 28.22986102104187, 28.346615076065063, 28.569337129592896]	[24.46546881198054, 24.582135478640538, 25.56513547864054, 25.731835478640537, 26.481835478640537, 26.598502145300536, 26.715168811960535, 26.831835478620533, 26.948502145280532, 27.06516881194053, 27.18183547860053, 27.298502145260528, 27.415168811920527, 27.531835478580525, 27.648502145240524, 27.765168811900523, 27.88183547856052, 27.99850214522052, 28.11516881188052, 28.231835478540518, 28.348502145200516, 28.58183547853385]	2021_Feb_18_1416	60.005293359409094	1	0.375
32	6	FALSE	NN	a	['K', 'T', 'N', 'G', 'P', 'R', 'S', 'J', 'B', 'H', 'V', 'E', 'M', 'Y', 'Z', 'A']	[1122, 1888, 1335, 944, 1456, 1587, 1731, 1029, 760, 986, 2245, 904, 1224, 2670, 2911, 697]	9	Absent	NA	NA	ABSENT	0.8623149394989014	30.565623998641968	32.57173490524292	33.271743965108925	33.62174587243756	36.68570518493652	4.1139702796936035	[30.5820791721344, 30.699105978012085, 31.669028997421265, 31.8503360748291, 32.601284980773926, 32.71779417991638, 32.83461117744446, 32.95141100883484, 33.06815314292908, 33.184996128082275, 33.301778078079224, 33.41864609718323, 33.53537607192993, 33.6521110534668, 33.769060134887695, 33.88587808609009, 34.00267314910889, 34.11942911148071, 34.23628616333008, 34.352920055389404, 34.469927072525024, 34.68570399284363]	[30.58183547853385, 30.69850214519385, 31.68150214519385, 31.84820214519385, 32.59820214519385, 32.714868811853854, 32.83153547851386, 32.94820214517386, 33.06486881183386, 33.18153547849386, 33.298202145153866, 33.41486881181387, 33.53153547847387, 33.64820214513387, 33.764868811793875, 33.88153547845388, 33.99820214511388, 34.11486881177388, 34.231535478433884, 34.348202145093886, 34.46486881175389, 34.69820214508722]	2021_Feb_18_1416	60.005293359409094	1	0.375
32	7	FALSE	NN	a	['Z', 'B', 'C', 'K', 'V', 'M', 'R', 'Y', 'S', 'T', 'H', 'G', 'P', 'A', 'U', 'E']	[2911, 760, 829, 1122, 2245, 1224, 1587, 2670, 1731, 1888, 986, 944, 1456, 697, 2059, 904]	13	Absent	NA	NA	ABSENT	1.0034821033477783	36.68905186653137	38.68813681602478	39.854810635182154	40.20481254251079	42.80207109451294	4.113934278488159	[36.705504179000854, 36.82223606109619, 37.785396099090576, 37.973422050476074, 38.72417497634888, 38.82416319847107, 38.94094705581665, 39.05774211883545, 39.17452001571655, 39.29140901565552, 39.408125162124634, 39.52501106262207, 39.64176297187805, 39.75859808921814, 39.87540411949158, 39.9923210144043, 40.10905909538269, 40.225890159606934, 40.342488050460815, 40.45930504798889, 40.576218128204346, 40.802072048187256]	[36.69820214508722, 36.814868811747225, 37.79786881174722, 37.96456881174722, 38.71456881174722, 38.83123547840722, 38.947902145067225, 39.06456881172723, 39.18123547838723, 39.29790214504723, 39.414568811707234, 39.531235478367236, 39.64790214502724, 39.76456881168724, 39.88123547834724, 39.997902145007245, 40.11456881166725, 40.23123547832725, 40.34790214498725, 40.464568811647254, 40.581235478307256, 40.81456881164059]	2021_Feb_18_1416	60.005293359409094	1	0.375
32	8	FALSE	NV	a	['U', 'P', 'Y', 'G', 'C', 'T', 'A', 'V', 'B', 'X', 'R', 'H', 'W', 'N', 'E', 'K']	[2059, 1456, 2670, 944, 829, 1888, 697, 2245, 760, 4000, 1587, 986, 2448, 1335, 904, 1122]	10	Present	NA	NA	PRESENT	0.5360510349273682	42.79580783843994	44.80442094802856	45.62109548246168	45.97109762820889	48.918437004089355	4.114016056060791	[42.81226110458374, 42.928712129592896, 43.90176320075989, 44.079838037490845, 44.83063101768494, 44.947571992874146, 45.06422019004822, 45.18108320236206, 45.29798913002014, 45.414754152297974, 45.531408071517944, 45.648195028305054, 45.7649450302124, 45.881678104400635, 45.998661041259766, 46.115411043167114, 46.23219704627991, 46.34890413284302, 46.465790033340454, 46.58246397972107, 46.699434995651245, 46.91843819618225]	[42.81456881164059, 42.93123547830059, 43.91423547830059, 44.08093547830059, 44.83093547830059, 44.94760214496059, 45.06426881162059, 45.180935478280595, 45.2976021449406, 45.4142688116006, 45.5309354782606, 45.647602144920604, 45.76426881158061, 45.88093547824061, 45.99760214490061, 46.11426881156061, 46.230935478220616, 46.34760214488062, 46.46426881154062, 46.58093547820062, 46.697602144860625, 46.93093547819396]	2021_Feb_18_1416	60.005293359409094	1	0.375
32	9	FALSE	NA	a	['C', 'P', 'Z', 'M', 'W', 'E', 'Y', 'G', 'N', 'B', 'R', 'X', 'T', 'A', 'J', 'K']	[829, 1456, 2911, 1224, 2448, 904, 2670, 944, 1335, 760, 1587, 4000, 1888, 697, 1029, 1122]	12	Present	NA	NA	PRESENT	0.8365960121154785	48.91862487792969	50.92083191871643	51.97084002488812	52.32084193221675	55.03480315208435	4.11397123336792	[48.9350790977478, 49.05196809768677, 50.01812720298767, 50.203185081481934, 50.95385003089905, 51.07063603401184, 51.18742918968201, 51.30425405502319, 51.421080112457275, 51.537891149520874, 51.65477108955383, 51.77140808105469, 51.8883740901947, 52.00506901741028, 52.12188911437988, 52.23846101760864, 52.355605125427246, 52.4723219871521, 52.58880615234375, 52.705726146698, 52.82267618179321, 53.034802198410034]	[48.93093547819396, 49.04760214485396, 50.03060214485396, 50.19730214485396, 50.94730214485396, 51.06396881151396, 51.18063547817396, 51.297302144833964, 51.413968811493966, 51.53063547815397, 51.64730214481397, 51.76396881147397, 51.880635478133975, 51.99730214479398, 52.11396881145398, 52.23063547811398, 52.347302144773984, 52.463968811433986, 52.58063547809399, 52.69730214475399, 52.81396881141399, 53.04730214474733]	2021_Feb_18_1416	60.005293359409094	1	0.375
32	10	FALSE	NN	a	['P', 'W', 'U', 'E', 'Z', 'G', 'N', 'J', 'K', 'M', 'S', 'V', 'R', 'A', 'Y', 'B']	[1456, 2448, 2059, 904, 2911, 944, 1335, 1029, 1122, 1224, 1731, 2245, 1587, 697, 2670, 760]	8	Absent	NA	NA	ABSENT	0.9617059230804444	55.02505397796631	57.037160873413086	57.62050231294477	57.970504220273405	61.15117001533508	4.114009141921997	[55.041508197784424, 55.15820908546448, 56.134495973587036, 56.30966806411743, 57.06036400794983, 57.177136182785034, 57.29379606246948, 57.41068410873413, 57.52737307548523, 57.644355058670044, 57.761123180389404, 57.87795400619507, 57.99457502365112, 58.11150908470154, 58.228286027908325, 58.34519815444946, 58.461987018585205, 58.57874917984009, 58.695428133010864, 58.81214618682861, 58.92906618118286, 59.15117001533508]	[55.04730214474733, 55.16396881140733, 56.146968811407326, 56.313668811407325, 57.063668811407325, 57.18033547806733, 57.29700214472733, 57.41366881138733, 57.530335478047334, 57.647002144707336, 57.76366881136734, 57.88033547802734, 57.99700214468734, 58.113668811347345, 58.23033547800735, 58.34700214466735, 58.46366881132735, 58.580335477987354, 58.69700214464736, 58.81366881130736, 58.93033547796736, 59.163668811300695]	2021_Feb_18_1416	60.005293359409094	1	0.375
32	11	FALSE	NV	a	['K', 'Y', 'N', 'T', 'B', 'W', 'E', 'P', 'R', 'V', 'X', 'U', 'S', 'Z', 'M', 'A']	[1122, 2670, 1335, 1888, 760, 2448, 904, 1456, 1587, 2245, 4000, 2059, 1731, 2911, 1224, 697]	11	Present	NA	NA	PRESENT	0.8543519973754883	61.14848589897156	63.1536169052124	64.0869571526312	64.43695929837841	67.26753807067871	4.113921165466309	[61.16493797302246, 61.28150916099548, 62.25086212158203, 62.433115005493164, 63.183494091033936, 63.300480127334595, 63.417102098464966, 63.533913135528564, 63.65072512626648, 63.76747512817383, 63.884334087371826, 64.00114297866821, 64.11801815032959, 64.23470306396484, 64.35147404670715, 64.46840310096741, 64.58509802818298, 64.70172309875488, 64.81881999969482, 64.93543720245361, 65.0522780418396, 65.26753807067871]	[61.163668811300695, 61.2803354779607, 62.263335477960695, 62.43003547796069, 63.18003547796069, 63.296702144620696, 63.4133688112807, 63.5300354779407, 63.6467021446007, 63.763368811260705, 63.88003547792071, 63.99670214458071, 64.1133688112407, 64.2300354779007, 64.3467021445607, 64.46336881122069, 64.58003547788068, 64.69670214454068, 64.81336881120068, 64.93003547786067, 65.04670214452067, 65.280035477854]	2021_Feb_18_1416	60.005293359409094	1	0.375
32	12	FALSE	NV	a	['S', 'G', 'K', 'B', 'R', 'C', 'M', 'H', 'X', 'T', 'E', 'A', 'U', 'V', 'J', 'P']	[1731, 944, 1122, 760, 1587, 829, 1224, 986, 4000, 1888, 904, 697, 2059, 2245, 1029, 1456]	9	Present	NA	NA	PRESENT	0.6677541732788086	67.27145099639893	69.27005982398987	69.97006793018156	70.32006983751019	73.38390517234802	4.113845348358154	[67.28790497779846, 67.40490698814392, 68.36723113059998, 68.5391731262207, 69.30665707588196, 69.40683507919312, 69.52370810508728, 69.64033007621765, 69.75708413124084, 69.87401509284973, 69.99065518379211, 70.10760998725891, 70.2242021560669, 70.34101819992065, 70.45783805847168, 70.57478404045105, 70.69142818450928, 70.80819606781006, 70.92513418197632, 71.04192113876343, 71.15859818458557, 71.38390517234802]	[67.280035477854, 67.396702144514, 68.379702144514, 68.546402144514, 69.296402144514, 69.413068811174, 69.529735477834, 69.64640214449399, 69.76306881115399, 69.87973547781398, 69.99640214447398, 70.11306881113397, 70.22973547779397, 70.34640214445396, 70.46306881111396, 70.57973547777395, 70.69640214443395, 70.81306881109394, 70.92973547775394, 71.04640214441393, 71.16306881107393, 71.39640214440726]	2021_Feb_18_1416	60.005293359409094	1	0.375
32	13	FALSE	NN	a	['N', 'J', 'Z', 'G', 'K', 'V', 'C', 'E', 'H', 'T', 'W', 'B', 'U', 'R', 'Y', 'P']	[1335, 1029, 2911, 944, 1122, 2245, 829, 904, 986, 1888, 2448, 760, 2059, 1587, 2670, 1456]	11	Absent	NA	NA	ABSENT	1.3441898822784424	73.37823581695557	75.38638591766357	76.31972616508237	76.66972831082958	79.50027108192444	4.113885164260864	[73.39469003677368, 73.51120114326477, 74.48359608650208, 74.66239809989929, 75.41315412521362, 75.53007197380066, 75.64689302444458, 75.76358008384705, 75.8802661895752, 75.99691820144653, 76.11405801773071, 76.23072099685669, 76.3475751876831, 76.46418809890747, 76.58105802536011, 76.69797611236572, 76.81477808952332, 76.93161797523499, 77.0483911037445, 77.16513204574585, 77.28196406364441, 77.5002691745758]	[73.39640214440726, 73.51306881106726, 74.49606881106726, 74.66276881106727, 75.41276881106727, 75.52943547772726, 75.64610214438726, 75.76276881104725, 75.87943547770725, 75.99610214436724, 76.11276881102724, 76.22943547768723, 76.34610214434723, 76.46276881100722, 76.57943547766722, 76.69610214432721, 76.81276881098721, 76.9294354776472, 77.0461021443072, 77.1627688109672, 77.27943547762719, 77.51276881096052]	2021_Feb_18_1416	60.005293359409094	1	0.375
32	14	FALSE	AV	a	['E', 'T', 'C', 'V', 'M', 'U', 'K', 'A', 'S', 'G', 'surprise', 'B', 'P', 'X', 'Z', 'R']	[904, 1888, 829, 2245, 1224, 2059, 1122, 697, 1731, 944, 'stimAuditory/all_stimAuditory/117.wav', 760, 1456, 4000, 2911, 1587]	14	Present	stimAuditory/all_stimAuditory/117.wav	NA	ABSENT	1.4855799674987793	79.50100803375244	81.50258803367615	82.78592923474926	83.1359311420779	85.61663818359375	4.1140501499176025	[79.51746106147766, 79.63424515724182, 80.59996199607849, 80.78546905517578, 81.53666520118713, 81.65307307243347, 81.7699921131134, 81.88681197166443, 82.00363302230835, 82.120197057724, 82.23719716072083, 82.35383105278015, 82.47067904472351, 82.58742713928223, 82.70436596870422, 82.82119297981262, 82.93804407119751, 83.03776812553406, 83.15467309951782, 83.27144312858582, 83.38852500915527, 83.61663699150085]	[79.51276881096052, 79.62943547762052, 80.61243547762052, 80.77913547762053, 81.52913547762053, 81.64580214428052, 81.76246881094052, 81.87913547760051, 81.99580214426051, 82.1124688109205, 82.2291354775805, 82.3458021442405, 82.46246881090049, 82.57913547756048, 82.69580214422048, 82.81246881088047, 82.92913547754047, 83.04580214420047, 83.16246881086046, 83.27913547752046, 83.39580214418045, 83.62913547751378]	2021_Feb_18_1416	60.005293359409094	1	0.375
32	15	FALSE	NV	a	['G', 'Z', 'S', 'N', 'M', 'T', 'C', 'W', 'E', 'X', 'Y', 'B', 'H', 'A', 'J', 'V']	[944, 2911, 1731, 1335, 1224, 1888, 829, 2448, 904, 4000, 2670, 760, 986, 697, 1029, 2245]	10	Present	NA	NA	PRESENT	0.8341522216796875	85.60767602920532	87.61908388137817	88.43575865422986	88.78576056155849	91.73300409317017	4.113920211791992	[85.62412810325623, 85.74086713790894, 86.71632814407349, 86.89199709892273, 87.64277410507202, 87.75975704193115, 87.87634205818176, 87.99306297302246, 88.1099681854248, 88.22687101364136, 88.3435161113739, 88.46040797233582, 88.57716202735901, 88.69400215148926, 88.81075310707092, 88.92747712135315, 89.04427909851074, 89.16101717948914, 89.27800011634827, 89.39462900161743, 89.51167511940002, 89.73300313949585]	[85.62913547751378, 85.74580214417378, 86.72880214417378, 86.89550214417379, 87.64550214417379, 87.76216881083378, 87.87883547749378, 87.99550214415378, 88.11216881081377, 88.22883547747377, 88.34550214413376, 88.46216881079376, 88.57883547745375, 88.69550214411375, 88.81216881077374, 88.92883547743374, 89.04550214409373, 89.16216881075373, 89.27883547741372, 89.39550214407372, 89.51216881073371, 89.74550214406705]	2021_Feb_18_1416	60.005293359409094	1	0.375
32	16	FALSE	NV	a	['C', 'A', 'J', 'V', 'K', 'Z', 'U', 'E', 'X', 'H', 'G', 'Y', 'R', 'S', 'M', 'N']	[829, 697, 1029, 2245, 1122, 2911, 2059, 904, 4000, 986, 944, 2670, 1587, 1731, 1224, 1335]	9	Present	NA	NA	PRESENT	0.6787240505218506	91.7307538986206	93.73531699180604	94.43532485957914	94.78532581323346	97.84937000274658	4.114053010940552	[91.74720597267151, 91.86415314674377, 92.83269214630127, 93.01516604423523, 93.76627802848816, 93.88292098045349, 93.99978017807007, 94.1163170337677, 94.23325204849243, 94.35008406639099, 94.46674919128418, 94.58359599113464, 94.70032119750977, 94.81710815429688, 94.93401598930359, 95.05083203315735, 95.16757106781006, 95.28445816040039, 95.4012360572815, 95.5179090499878, 95.63478803634644, 95.84937119483948]	[91.74550214406705, 91.86216881072704, 92.84516881072705, 93.01186881072705, 93.76186881072705, 93.87853547738705, 93.99520214404704, 94.11186881070704, 94.22853547736703, 94.34520214402703, 94.46186881068702, 94.57853547734702, 94.69520214400701, 94.81186881066701, 94.928535477327, 95.045202143987, 95.161868810647, 95.27853547730699, 95.39520214396698, 95.51186881062698, 95.62853547728697, 95.86186881062031]	2021_Feb_18_1416	60.005293359409094	1	0.375
32	17	FALSE	NA	a	['V', 'S', 'U', 'R', 'P', 'G', 'B', 'T', 'X', 'A', 'M', 'E', 'K', 'N', 'H', 'J']	[2245, 1731, 2059, 1587, 1456, 944, 760, 1888, 4000, 697, 1224, 904, 1122, 1335, 986, 1029]	9	Present	NA	NA	PRESENT	0.8598458766937256	97.85393285751344	99.85182285308838	100.55183191295438	100.90183382028302	103.9657371044159	4.113914251327515	[97.87038612365723, 97.98711109161377, 98.94906306266785, 99.12157702445984, 99.88915705680847, 99.98947310447693, 100.10604619979858, 100.22301197052002, 100.33959197998047, 100.45655608177185, 100.5731611251831, 100.6899950504303, 100.80688405036926, 100.92361402511597, 101.04045915603638, 101.15727210044861, 101.27390813827515, 101.39087009429932, 101.50758504867554, 101.62441396713257, 101.74124217033386, 101.96573805809021]	[97.86186881062031, 97.9785354772803, 98.96153547728031, 99.12823547728031, 99.87823547728031, 99.99490214394031, 100.1115688106003, 100.2282354772603, 100.3449021439203, 100.46156881058029, 100.57823547724028, 100.69490214390028, 100.81156881056027, 100.92823547722027, 101.04490214388026, 101.16156881054026, 101.27823547720025, 101.39490214386025, 101.51156881052025, 101.62823547718024, 101.74490214384024, 101.97823547717357]	2021_Feb_18_1416	60.005293359409094	1	0.375
32	18	FALSE	NV	a	['T', 'S', 'W', 'J', 'M', 'C', 'V', 'X', 'G', 'B', 'H', 'K', 'A', 'R', 'Z', 'U']	[1888, 1731, 2448, 1029, 1224, 829, 2245, 4000, 944, 760, 986, 1122, 697, 1587, 2911, 2059]	8	Present	NA	NA	PRESENT	1.0645921230316162	103.96071791648863	105.96823287010191	106.55157430963362	106.90157621696224	110.08210396766664	4.113871097564697	[103.97717213630676, 104.09374904632568, 105.06542897224426, 105.24480104446411, 105.99560403823853, 106.11249113082886, 106.2291910648346, 106.3459529876709, 106.46268796920776, 106.57946109771729, 106.69638204574585, 106.81322908401489, 106.92995309829712, 107.04673218727112, 107.16360402107239, 107.28021717071533, 107.39704918861389, 107.51390719413757, 107.63087010383606, 107.74756002426147, 107.86427998542786, 108.08210515975952]	[103.97823547717357, 104.09490214383356, 105.07790214383357, 105.24460214383357, 105.99460214383357, 106.11126881049357, 106.22793547715357, 106.34460214381356, 106.46126881047356, 106.57793547713355, 106.69460214379355, 106.81126881045354, 106.92793547711354, 107.04460214377353, 107.16126881043353, 107.27793547709352, 107.39460214375352, 107.51126881041351, 107.6279354770735, 107.7446021437335, 107.8612688103935, 108.09460214372683]	2021_Feb_18_1416	60.005293359409094	1	0.375
32	19	FALSE	VV	a	['V', 'Y', 'R', 'U', 'N', 'surprise', 'K', 'M', 'X', 'A', 'E', 'H', 'T', 'C', 'Z', 'S']	[2245, 2670, 1587, 2059, 1335, 'stimAuditory/all_stimAuditory/218.wav', 1122, 1224, 4000, 697, 904, 986, 1888, 829, 2911, 1731]	9	Present	NA	NA	PRESENT	1.253937005996704	110.08358693122864	112.08461689949036	112.78462595935636	113.13462882035932	116.19847011566162	4.113853216171265	[110.10004019737244, 110.21669602394104, 111.18179202079773, 111.36793208122253, 112.11894416809082, 112.23568320274353, 112.35251998901367, 112.46921610832214, 112.58607411384583, 112.70272397994995, 112.81971311569214, 112.93625807762146, 113.05331707000732, 113.15313506126404, 113.26995205879211, 113.3870780467987, 113.50358414649963, 113.62029218673706, 113.73716616630554, 113.85398697853088, 113.97074508666992, 114.19847011566162]	[110.09460214372683, 110.21126881038683, 111.19426881038683, 111.36096881038684, 112.11096881038684, 112.22763547704683, 112.34430214370683, 112.46096881036682, 112.57763547702682, 112.69430214368681, 112.81096881034681, 112.9276354770068, 113.0443021436668, 113.16096881032679, 113.27763547698679, 113.39430214364678, 113.51096881030678, 113.62763547696677, 113.74430214362677, 113.86096881028676, 113.97763547694676, 114.2109688102801]	2021_Feb_18_1416	60.005293359409094	1	0.375
32	20	FALSE	NN	a	['J', 'N', 'S', 'C', 'B', 'W', 'Y', 'E', 'V', 'R', 'G', 'U', 'Z', 'K', 'M', 'P']	[1029, 1335, 1731, 829, 760, 2448, 2670, 904, 2245, 1587, 944, 2059, 2911, 1122, 1224, 1456]	11	Absent	NA	NA	ABSENT	0.8742818832397461	116.19000792503356	118.20079588890076	119.13413613631955	119.48413828206677	122.31483817100523	4.114042282104492	[116.20646119117737, 116.32342100143433, 117.29816102981567, 117.47448205947876, 118.22521615028381, 118.34225511550903, 118.45893812179565, 118.57576203346252, 118.69251012802124, 118.80918502807617, 118.92606019973755, 119.04277110099792, 119.15965104103088, 119.27668714523315, 119.39327216148376, 119.50999712944031, 119.6268789768219, 119.74346709251404, 119.86050200462341, 119.97708106040955, 120.09398913383484, 120.31483817100525]	[116.2109688102801, 116.32763547694009, 117.31063547694009, 117.4773354769401, 118.2273354769401, 118.3440021436001, 118.46066881026009, 118.57733547692008, 118.69400214358008, 118.81066881024007, 118.92733547690007, 119.04400214356006, 119.16066881022006, 119.27733547688005, 119.39400214354005, 119.51066881020004, 119.62733547686004, 119.74400214352004, 119.86066881018003, 119.97733547684003, 120.09400214350002, 120.32733547683335]	2021_Feb_18_1416	60.005293359409094	1	0.375
32	21	FALSE	NV	a	['K', 'P', 'T', 'A', 'E', 'R', 'N', 'C', 'U', 'S', 'V', 'X', 'M', 'G', 'J', 'H']	[1122, 1456, 1888, 697, 904, 1587, 1335, 829, 2059, 1731, 2245, 4000, 1224, 944, 1029, 986]	12	Present	NA	NA	PRESENT	0.9748740196228028	122.31315398216248	124.31727695465088	125.36728386872969	125.7172869681512	128.43120312690735	4.11392617225647	[122.32960820198059, 122.44655799865723, 123.41452503204346, 123.59801006317139, 124.34855198860168, 124.46562004089355, 124.58230113983154, 124.69901609420776, 124.81580305099487, 124.9324221611023, 125.04910802841187, 125.16588115692139, 125.28289604187012, 125.39959216117859, 125.5164589881897, 125.63319897651672, 125.75001001358032, 125.86678218841553, 125.98351716995239, 126.10031914710999, 126.21708416938782, 126.43120312690735]	[122.32733547683335, 122.44400214349335, 123.42700214349335, 123.59370214349336, 124.34370214349336, 124.46036881015335, 124.57703547681335, 124.69370214347335, 124.81036881013334, 124.92703547679334, 125.04370214345333, 125.16036881011333, 125.27703547677332, 125.39370214343332, 125.51036881009331, 125.6270354767533, 125.7437021434133, 125.8603688100733, 125.97703547673329, 126.09370214339329, 126.21036881005328, 126.44370214338662]	2021_Feb_18_1416	60.005293359409094	1	0.375
32	22	FALSE	AA	a	['C', 'J', 'H', 'S', 'B', 'surprise', 'Z', 'V', 'X', 'T', 'M', 'W', 'K', 'P', 'A', 'G']	[829, 1029, 986, 1731, 760, 'stimAuditory/all_stimAuditory/221.wav', 2911, 2245, 4000, 1888, 1224, 2448, 1122, 1456, 697, 944]	9	Present	stimAuditory/all_stimAuditory/218.wav	NA	PRESENT	0.7003030776977539	128.43655586242676	130.43359994888306	131.13360686298185	131.48360900872908	134.54757118225098	4.11397123336792	[128.45300912857056, 128.5528872013092, 129.5308961868286, 129.7040500640869, 130.45491909980774, 130.5718650817871, 130.68852519989014, 130.8052830696106, 130.92220997810364, 131.03907108306885, 131.15562319755554, 131.27256417274475, 131.38914012908936, 131.50596404075623, 131.6229510307312, 131.7395510673523, 131.85662317276, 131.97334218025208, 132.0900890827179, 132.20680618286133, 132.3237819671631, 132.54756999015808]	[128.44370214338662, 128.5603688100466, 129.54336881004662, 129.7100688100466, 130.4600688100466, 130.5767354767066, 130.6934021433666, 130.8100688100266, 130.9267354766866, 131.04340214334658, 131.16006881000658, 131.27673547666657, 131.39340214332657, 131.51006880998656, 131.62673547664656, 131.74340214330655, 131.86006880996655, 131.97673547662654, 132.09340214328654, 132.21006880994653, 132.32673547660653, 132.56006880993985]	2021_Feb_18_1416	60.005293359409094	1	0.375
32	23	FALSE	NN	a	['G', 'J', 'W', 'N', 'C', 'Z', 'V', 'R', 'Y', 'P', 'E', 'B', 'K', 'S', 'M', 'U']	[944, 1029, 2448, 1335, 829, 2911, 2245, 1587, 2670, 1456, 904, 760, 1122, 1731, 1224, 2059]	13	Absent	NA	NA	ABSENT	0.47271013259887695	134.54313588142395	136.55001497268677	137.71669069919278	138.0666926065214	140.6639380455017	4.113923072814941	[134.55959010124207, 134.6760070323944, 135.64726209640503, 135.82727003097534, 136.57809805870056, 136.69508409500122, 136.81173300743103, 136.92849206924438, 137.04540920257568, 137.1620910167694, 137.27906703948975, 137.39560508728027, 137.51257705688477, 137.62915706634521, 137.7461760044098, 137.86271405220032, 137.9796850681305, 138.0964071750641, 138.21330618858337, 138.32990312576294, 138.44691920280457, 138.6639370918274]	[134.56006880993985, 134.67673547659984, 135.65973547659985, 135.82643547659984, 136.57643547659984, 136.69310214325984, 136.80976880991983, 136.92643547657983, 137.04310214323982, 137.15976880989982, 137.2764354765598, 137.3931021432198, 137.5097688098798, 137.6264354765398, 137.7431021431998, 137.8597688098598, 137.97643547651978, 138.09310214317978, 138.20976880983977, 138.32643547649977, 138.44310214315976, 138.67643547649308]	2021_Feb_18_1416	60.005293359409094	1	0.375
32	24	FALSE	NA	a	['W', 'C', 'T', 'U', 'A', 'Y', 'P', 'X', 'K', 'J', 'H', 'B', 'V', 'S', 'R', 'M']	[2448, 829, 1888, 2059, 697, 2670, 1456, 4000, 1122, 1029, 986, 760, 2245, 1731, 1587, 1224]	8	Present	NA	NA	PRESENT	0.6221499443054199	140.66621780395508	142.66639685630798	143.24973829583968	143.5997402031683	146.78030514717102	4.113908290863037	[140.68267107009888, 140.79927706718445, 141.7636320590973, 141.9506959915161, 142.70133209228516, 142.81799507141113, 142.9348680973053, 143.03497099876404, 143.1517779827118, 143.26852297782898, 143.38530111312866, 143.50202298164368, 143.618812084198, 143.73561811447144, 143.8523931503296, 143.96920919418335, 144.08605098724365, 144.20288920402527, 144.31987500190735, 144.43638515472412, 144.55326104164124, 144.78030514717102]	[140.67643547649308, 140.79310214315308, 141.77610214315308, 141.94280214315307, 142.69280214315307, 142.80946880981307, 142.92613547647306, 143.04280214313306, 143.15946880979305, 143.27613547645305, 143.39280214311304, 143.50946880977304, 143.62613547643303, 143.74280214309303, 143.85946880975303, 143.97613547641302, 144.09280214307302, 144.209468809733, 144.326135476393, 144.442802143053, 144.559468809713, 144.79280214304632]	2021_Feb_18_1416	60.005293359409094	1	0.375
32	25	FALSE	NN	a	['N', 'G', 'H', 'A', 'Y', 'T', 'Z', 'U', 'B', 'E', 'P', 'W', 'M', 'C', 'J', 'R']	[1335, 944, 986, 697, 2670, 1888, 2911, 2059, 760, 904, 1456, 2448, 1224, 829, 1029, 1587]	11	Absent	NA	NA	ABSENT	0.7145788669586182	146.772558927536	148.78289985656738	149.71624129607906	150.06624415708202	152.89667010307312	4.113770246505737	[146.7890121936798, 146.90585708618164, 147.87999606132507, 148.05690503120422, 148.80780816078186, 148.92460107803345, 149.04146313667297, 149.15832614898682, 149.27503204345703, 149.39186215400696, 149.50866317749023, 149.62513303756714, 149.74223709106445, 149.8588101863861, 149.97579908370972, 150.09251403808594, 150.20935797691345, 150.32600212097168, 150.44289112091064, 150.55968618392944, 150.67661309242249, 150.89667105674744]	[146.79280214304632, 146.9094688097063, 147.89246880970632, 148.0591688097063, 148.8091688097063, 148.9258354763663, 149.0425021430263, 149.1591688096863, 149.2758354763463, 149.39250214300628, 149.50916880966628, 149.62583547632627, 149.74250214298627, 149.85916880964626, 149.97583547630626, 150.09250214296625, 150.20916880962625, 150.32583547628624, 150.44250214294624, 150.55916880960623, 150.67583547626623, 150.90916880959955]	2021_Feb_18_1416	60.005293359409094	1	0.375
32	26	FALSE	NV	a	['K', 'J', 'R', 'Z', 'V', 'T', 'Y', 'B', 'M', 'H', 'P', 'X', 'W', 'A', 'C', 'N']	[1122, 1029, 1587, 2911, 2245, 1888, 2670, 760, 1224, 986, 1456, 4000, 2448, 697, 829, 1335]	12	Present	NA	NA	PRESENT	0.6793990135192871	152.8957929611206	154.89899492263794	155.94900302880964	156.29900493613826	159.01303815841675	4.114043235778809	[152.91224718093872, 153.02915406227112, 153.99636006355286, 154.18024110794067, 154.93130016326904, 155.04787611961365, 155.164733171463, 155.28133296966553, 155.3982720375061, 155.5149040222168, 155.63183307647705, 155.74855613708496, 155.8652970790863, 155.98209714889526, 156.09872007369995, 156.21566915512085, 156.33254408836365, 156.4493911266327, 156.5659441947937, 156.68284916877747, 156.79978013038635, 157.01303720474243]	[152.90916880959955, 153.02583547625954, 154.00883547625955, 154.17553547625954, 154.92553547625954, 155.04220214291954, 155.15886880957953, 155.27553547623953, 155.39220214289952, 155.50886880955952, 155.6255354762195, 155.7422021428795, 155.8588688095395, 155.9755354761995, 156.0922021428595, 156.2088688095195, 156.32553547617948, 156.44220214283948, 156.55886880949947, 156.67553547615947, 156.79220214281946, 157.02553547615278]	2021_Feb_18_1416	60.005293359409094	1	0.375
32	27	FALSE	VA	a	['Y', 'P', 'H', 'C', 'surprise', 'M', 'B', 'X', 'S', 'V', 'Z', 'K', 'G', 'T', 'U', 'R']	[2670, 1456, 986, 829, 'stimAuditory/all_stimAuditory/207.wav', 1224, 760, 4000, 1731, 2245, 2911, 1122, 944, 1888, 2059, 1587]	8	Present	NA	NA	PRESENT	0.2925689220428467	159.0188069343567	161.0155758857727	161.5989173253044	161.9489182789587	165.12940406799316	4.113828182220459	[159.0352590084076, 159.13530111312866, 160.11273002624512, 160.28651309013367, 161.03732419013977, 161.15437817573547, 161.27099108695984, 161.38792300224304, 161.5046751499176, 161.6213321685791, 161.73829412460327, 161.85514402389526, 161.97189211845398, 162.08860516548157, 162.20545601844788, 162.3220989704132, 162.43902897834778, 162.55569219589233, 162.67255210876465, 162.78921008110046, 162.90627098083496, 163.12940216064453]	[159.02553547615278, 159.14220214281278, 160.12520214281278, 160.29190214281277, 161.04190214281277, 161.15856880947277, 161.27523547613276, 161.39190214279276, 161.50856880945275, 161.62523547611275, 161.74190214277274, 161.85856880943274, 161.97523547609273, 162.09190214275273, 162.20856880941272, 162.32523547607272, 162.44190214273272, 162.5585688093927, 162.6752354760527, 162.7919021427127, 162.9085688093727, 163.14190214270602]	2021_Feb_18_1416	60.005293359409094	1	0.375
32	28	FALSE	NV	a	['N', 'P', 'U', 'C', 'J', 'A', 'W', 'X', 'S', 'K', 'E', 'T', 'B', 'Z', 'R', 'H']	[1335, 1456, 2059, 829, 1029, 697, 2448, 4000, 1731, 1122, 904, 1888, 760, 2911, 1587, 986]	8	Present	NA	NA	PRESENT	0.09685397148132324	165.12572503089905	167.13174891471863	167.71508916215743	168.06509226157894	171.24576997756958	4.114021062850952	[165.14217901229858, 165.25868606567383, 166.2290940284729, 166.4098620414734, 167.16069102287292, 167.27740097045898, 167.39417600631714, 167.5110011100769, 167.62795901298523, 167.7445650100708, 167.8616030216217, 167.97831416130066, 168.0950071811676, 168.2117099761963, 168.3283760547638, 168.44533610343933, 168.56201004981995, 168.67885899543762, 168.7955641746521, 168.91254305839539, 169.0292570590973, 169.24576997756958]	[165.14190214270602, 165.258568809366, 166.24156880936602, 166.408268809366, 167.158268809366, 167.274935476026, 167.391602142686, 167.508268809346, 167.624935476006, 167.74160214266598, 167.85826880932598, 167.97493547598597, 168.09160214264597, 168.20826880930596, 168.32493547596596, 168.44160214262595, 168.55826880928595, 168.67493547594594, 168.79160214260594, 168.90826880926593, 169.02493547592593, 169.25826880925925]	2021_Feb_18_1416	60.005293359409094	1	0.375
32	29	FALSE	NN	a	['N', 'S', 'C', 'Z', 'E', 'U', 'G', 'T', 'R', 'J', 'A', 'B', 'K', 'H', 'M', 'P']	[1335, 1731, 829, 2911, 904, 2059, 944, 1888, 1587, 1029, 697, 760, 1122, 986, 1224, 1456]	14	Absent	NA	NA	ABSENT	0.4303011894226074	171.24886393547058	173.24803590774536	174.53137734723705	174.88137925456567	177.3621380329132	4.114102125167847	[171.2653181552887, 171.38170719146729, 172.34546303749084, 172.5331301689148, 173.28368020057678, 173.3837730884552, 173.50059604644775, 173.6174111366272, 173.73418498039246, 173.85099411010742, 173.96782112121582, 174.08473801612854, 174.20139718055725, 174.31802105903625, 174.4351601600647, 174.5519380569458, 174.66862106323242, 174.7854700088501, 174.90220618247986, 175.0189859867096, 175.13591313362122, 175.36213898658752]	[171.25826880925925, 171.37493547591924, 172.35793547591925, 172.52463547591924, 173.27463547591924, 173.39130214257924, 173.50796880923923, 173.62463547589923, 173.74130214255922, 173.85796880921922, 173.9746354758792, 174.0913021425392, 174.2079688091992, 174.3246354758592, 174.4413021425192, 174.5579688091792, 174.67463547583918, 174.79130214249918, 174.90796880915917, 175.02463547581917, 175.14130214247916, 175.37463547581248]	2021_Feb_18_1416	60.005293359409094	1	0.375
32	30	FALSE	NA	a	['C', 'B', 'W', 'Y', 'R', 'V', 'G', 'H', 'J', 'A', 'X', 'K', 'U', 'E', 'Z', 'T']	[829, 760, 2448, 2670, 1587, 2245, 944, 986, 1029, 697, 4000, 1122, 2059, 904, 2911, 1888]	11	Present	NA	NA	PRESENT	0.29900193214416504	177.35487985610962	179.36452794075012	180.2978691418432	180.64787128759045	183.47850513458252	4.1139771938323975	[177.37133312225342, 177.48835802078247, 178.46183013916016, 178.63954520225525, 179.3902530670166, 179.50706720352173, 179.6238729953766, 179.74053311347961, 179.85758900642395, 179.97433018684387, 180.09111499786377, 180.20777797698975, 180.32480597496033, 180.44133305549622, 180.5582640171051, 180.6748821735382, 180.79189705848694, 180.90856909751892, 181.02541613578796, 181.1421811580658, 181.25914597511292, 181.4785041809082]	[177.37463547581248, 177.49130214247248, 178.47430214247248, 178.64100214247247, 179.39100214247247, 179.50766880913247, 179.62433547579246, 179.74100214245246, 179.85766880911245, 179.97433547577245, 180.09100214243244, 180.20766880909244, 180.32433547575243, 180.44100214241243, 180.55766880907242, 180.67433547573242, 180.79100214239241, 180.9076688090524, 181.0243354757124, 181.1410021423724, 181.2576688090324, 181.49100214236572]	2021_Feb_18_1416	60.005293359409094	1	0.375
32	31	FALSE	AA	a	['R', 'C', 'T', 'W', 'S', 'surprise', 'J', 'Y', 'X', 'A', 'U', 'E', 'V', 'P', 'N', 'H']	[1587, 829, 1888, 2448, 1731, 'stimAuditory/all_stimAuditory/209.wav', 1029, 2670, 4000, 697, 2059, 904, 2245, 1456, 1335, 986]	9	Present	stimAuditory/all_stimAuditory/221.wav	NA	PRESENT	0.3994550704956054	183.47829389572144	185.48110485076904	186.18111295696073	186.53111486428935	189.59487104415896	4.113766193389893	[183.49474716186523, 183.61140298843384, 184.57819604873657, 184.76293015480042, 185.51343297958374, 185.63016200065613, 185.74714517593384, 185.8638050556183, 185.98058605194092, 186.0973780155182, 186.2144169807434, 186.33115601539612, 186.4478440284729, 186.56453919410706, 186.68122100830078, 186.79821920394897, 186.91482305526733, 187.0316879749298, 187.14843916893005, 187.2652530670166, 187.3822751045227, 187.59487009048462]	[183.49100214236572, 183.6076688090257, 184.59066880902571, 184.7573688090257, 185.5073688090257, 185.6240354756857, 185.7407021423457, 185.8573688090057, 185.9740354756657, 186.09070214232568, 186.20736880898568, 186.32403547564567, 186.44070214230567, 186.55736880896566, 186.67403547562566, 186.79070214228565, 186.90736880894565, 187.02403547560564, 187.14070214226564, 187.25736880892563, 187.37403547558563, 187.60736880891895]	2021_Feb_18_1416	60.005293359409094	1	0.375
32	32	FALSE	NV	a	['M', 'S', 'B', 'A', 'C', 'V', 'N', 'J', 'Y', 'W', 'E', 'X', 'K', 'R', 'P', 'Z']	[1224, 1731, 760, 697, 829, 2245, 1335, 1029, 2670, 2448, 904, 4000, 1122, 1587, 1456, 2911]	12	Present	NA	NA	PRESENT	0.3087458610534668	189.58455801010132	191.59721684455872	192.6472249507304	192.99722590438472	195.71123719215393	4.114020347595215	[189.60101008415222, 189.71804809570312, 190.69456219673157, 190.86910200119019, 191.61985802650452, 191.73663997650146, 191.85363912582397, 191.97045302391052, 192.08712220191956, 192.20406103134155, 192.3207151889801, 192.4374771118164, 192.55443811416626, 192.67098903656006, 192.78781008720398, 192.90440917015076, 193.02148008346558, 193.1381800174713, 193.2553951740265, 193.37184715270996, 193.4886519908905, 193.71123719215393]	[189.60736880891895, 189.72403547557894, 190.70703547557895, 190.87373547557894, 191.62373547557894, 191.74040214223893, 191.85706880889893, 191.97373547555893, 192.09040214221892, 192.20706880887892, 192.3237354755389, 192.4404021421989, 192.5570688088589, 192.6737354755189, 192.7904021421789, 192.9070688088389, 193.02373547549888, 193.14040214215888, 193.25706880881887, 193.37373547547887, 193.49040214213886, 193.72373547547218]	2021_Feb_18_1416	60.005293359409094	1	0.375
32	33	FALSE	NV	a	['U', 'N', 'V', 'R', 'H', 'M', 'Z', 'J', 'E', 'C', 'X', 'A', 'K', 'P', 'B', 'Y']	[2059, 1335, 2245, 1587, 986, 1224, 2911, 1029, 904, 829, 4000, 697, 1122, 1456, 760, 2670]	11	Present	NA	NA	PRESENT	0.31331801414489746	195.7082498073578	197.71371388435364	198.64705532386532	198.99705723119396	201.82760310173035	4.113889217376709	[195.72470211982727, 195.8410520553589, 196.81093001365662, 196.99234700202942, 197.74317812919617, 197.86005020141602, 197.97673797607422, 198.093523979187, 198.21033716201782, 198.32715797424316, 198.44399499893188, 198.56061911582947, 198.67757201194763, 198.7942831516266, 198.91111016273499, 199.02790999412537, 199.14458417892456, 199.2614619731903, 199.37811517715454, 199.49501299858093, 199.61171507835388, 199.82760405540466]	[195.72373547547218, 195.84040214213218, 196.82340214213218, 196.99010214213217, 197.74010214213217, 197.85676880879217, 197.97343547545216, 198.09010214211216, 198.20676880877215, 198.32343547543215, 198.44010214209214, 198.55676880875214, 198.67343547541213, 198.79010214207213, 198.90676880873212, 199.02343547539212, 199.14010214205211, 199.2567688087121, 199.3734354753721, 199.4901021420321, 199.6067688086921, 199.84010214202542]	2021_Feb_18_1416	60.005293359409094	1	0.375
32	34	FALSE	NA	a	['V', 'Z', 'G', 'J', 'W', 'B', 'S', 'K', 'U', 'M', 'X', 'E', 'H', 'R', 'Y', 'P']	[2245, 2911, 944, 1029, 2448, 760, 1731, 1122, 2059, 1224, 4000, 904, 986, 1587, 2670, 1456]	11	Present	NA	NA	PRESENT	0.33470702171325684	201.83091497421265	203.82997393608093	204.76331513717403	205.1133172829213	207.9439702033997	4.113996267318726	[201.84736800193787, 201.9643430709839, 202.9272940158844, 203.09860610961914, 203.86614418029785, 203.96633219718933, 204.08308005332947, 204.19988799095154, 204.31665897369385, 204.4334361553192, 204.55032014846802, 204.66701912879944, 204.78396320343018, 204.9006290435791, 205.01766514778137, 205.1341860294342, 205.25123500823975, 205.36839699745178, 205.48476600646973, 205.60136318206787, 205.71830320358276, 205.94397020339966]	[201.84010214202542, 201.9567688086854, 202.93976880868541, 203.1064688086854, 203.8564688086854, 203.9731354753454, 204.0898021420054, 204.2064688086654, 204.3231354753254, 204.43980214198538, 204.55646880864538, 204.67313547530537, 204.78980214196537, 204.90646880862536, 205.02313547528536, 205.13980214194535, 205.25646880860535, 205.37313547526534, 205.48980214192534, 205.60646880858533, 205.72313547524533, 205.95646880857865]	2021_Feb_18_1416	60.005293359409094	1	0.375
32	35	FALSE	NA	a	['Z', 'R', 'W', 'N', 'G', 'U', 'T', 'X', 'S', 'V', 'H', 'K', 'A', 'Y', 'B', 'C']	[2911, 1587, 2448, 1335, 944, 2059, 1888, 4000, 1731, 2245, 986, 1122, 697, 2670, 760, 829]	8	Present	NA	NA	PRESENT	0.1551671028137207	207.93743896484375	209.94645595550537	210.52979715661849	210.87979930236568	214.0603370666504	4.1138811111450195	[207.95389103889465, 208.0708839893341, 209.04366302490234, 209.22201108932495, 209.9727761745453, 210.08951997756958, 210.20642399787903, 210.323224067688, 210.4400930404663, 210.55671620368958, 210.67351818084717, 210.7902970314026, 210.90723705291748, 211.0239520072937, 211.14082717895508, 211.2573971748352, 211.37407517433167, 211.4908890724182, 211.60763502120972, 211.72464609146118, 211.84148502349854, 212.0603370666504]	[207.95646880857865, 208.07313547523864, 209.05613547523865, 209.22283547523864, 209.97283547523864, 210.08950214189863, 210.20616880855863, 210.32283547521862, 210.43950214187862, 210.55616880853862, 210.6728354751986, 210.7895021418586, 210.9061688085186, 211.0228354751786, 211.1395021418386, 211.2561688084986, 211.37283547515858, 211.48950214181858, 211.60616880847857, 211.72283547513857, 211.83950214179856, 212.07283547513188]	2021_Feb_18_1416	60.005293359409094	1	0.375
32	36	FALSE	VA	a	['S', 'T', 'J', 'W', 'surprise', 'Y', 'V', 'X', 'K', 'C', 'Z', 'N', 'G', 'A', 'H', 'R']	[1731, 1888, 1029, 2448, 'stimAuditory/all_stimAuditory/109.wav', 2670, 2245, 4000, 1122, 829, 2911, 1335, 944, 697, 986, 1587]	8	Present	NA	NA	PRESENT	0.2886068820953369	214.06082797050476	216.06271386146545	216.64605530099715	216.99605720832577	220.1767041683197	4.113990306854248	[214.07728004455566, 214.1938271522522, 215.16002798080444, 215.34536504745483, 216.09610199928284, 216.21280312538147, 216.3295500278473, 216.44635701179504, 216.56316614151, 216.6798951625824, 216.79671716690063, 216.91347098350525, 217.0302131175995, 217.14722418785095, 217.26401805877686, 217.38067412376404, 217.49731707572937, 217.61434316635132, 217.73095417022705, 217.8477339744568, 217.94768118858337, 218.1767041683197]	[214.07283547513188, 214.18950214179188, 215.17250214179188, 215.33920214179187, 216.08920214179187, 216.20586880845187, 216.32253547511186, 216.43920214177186, 216.55586880843185, 216.67253547509185, 216.78920214175184, 216.90586880841184, 217.02253547507183, 217.13920214173183, 217.25586880839182, 217.37253547505182, 217.48920214171181, 217.6058688083718, 217.7225354750318, 217.8392021416918, 217.9558688083518, 218.18920214168512]	2021_Feb_18_1416	60.005293359409094	1	0.375
32	37	FALSE	NN	a	['M', 'B', 'Z', 'K', 'U', 'T', 'S', 'V', 'A', 'H', 'N', 'R', 'J', 'Y', 'C', 'W']	[1224, 760, 2911, 1122, 2059, 1888, 1731, 2245, 697, 986, 1335, 1587, 1029, 2670, 829, 2448]	8	Absent	NA	NA	ABSENT	0.8368930816650391	220.1670508384705	222.1792509555817	222.7625921566948	223.112594302442	226.29307103157043	4.1138200759887695	[220.18350315093994, 220.3005449771881, 221.27639412879944, 221.45163917541504, 222.20246005058289, 222.31916904449463, 222.43611097335815, 222.55276203155518, 222.66977214813232, 222.78632307052612, 222.90334510803223, 223.01997017860413, 223.13685607910156, 223.2541081905365, 223.37041115760803, 223.487065076828, 223.6039981842041, 223.72066712379456, 223.83759212493896, 223.95427417755127, 224.0709991455078, 224.29307103157043]	[220.18920214168512, 220.3058688083451, 221.28886880834511, 221.4555688083451, 222.2055688083451, 222.3222354750051, 222.4389021416651, 222.5555688083251, 222.6722354749851, 222.78890214164508, 222.90556880830508, 223.02223547496507, 223.13890214162507, 223.25556880828506, 223.37223547494506, 223.48890214160505, 223.60556880826505, 223.72223547492504, 223.83890214158504, 223.95556880824503, 224.07223547490503, 224.30556880823835]	2021_Feb_18_1416	60.005293359409094	1	0.375
32	38	FALSE	NV	a	['P', 'W', 'B', 'E', 'M', 'C', 'J', 'X', 'H', 'S', 'V', 'T', 'G', 'N', 'Y', 'Z']	[1456, 2448, 760, 904, 1224, 829, 1029, 4000, 986, 1731, 2245, 1888, 944, 1335, 2670, 2911]	8	Present	NA	NA	PRESENT	0.29750704765319824	226.2906789779663	228.2954299449921	228.8787711461052	229.2287732918524	232.40943813323975	4.114008188247681	[226.30713200569153, 226.42361116409302, 227.39276099205017, 227.57482409477234, 228.32553100585938, 228.4424271583557, 228.55925107002258, 228.67596316337585, 228.7927761077881, 228.90957117080688, 229.02645206451416, 229.14311504364014, 229.2599081993103, 229.3767340183258, 229.493723154068, 229.61043000221252, 229.72705912590027, 229.8439700603485, 229.9607470035553, 230.077486038208, 230.19431614875793, 230.40943813323975]	[226.30556880823835, 226.42223547489834, 227.40523547489835, 227.57193547489834, 228.32193547489834, 228.43860214155833, 228.55526880821833, 228.67193547487832, 228.78860214153832, 228.90526880819831, 229.0219354748583, 229.1386021415183, 229.2552688081783, 229.3719354748383, 229.4886021414983, 229.60526880815829, 229.72193547481828, 229.83860214147828, 229.95526880813827, 230.07193547479827, 230.18860214145826, 230.42193547479158]	2021_Feb_18_1416	60.005293359409094	1	0.375
32	39	FALSE	NA	a	['Y', 'J', 'B', 'K', 'R', 'M', 'A', 'E', 'N', 'P', 'X', 'W', 'U', 'T', 'H', 'V']	[2670, 1029, 760, 1122, 1587, 1224, 697, 904, 1335, 1456, 4000, 2448, 2059, 1888, 986, 2245]	11	Present	NA	NA	PRESENT	0.3188469409942627	232.41341185569763	234.41193103790283	235.34527319267025	235.69527533841747	238.52580404281616	4.11387300491333	[232.42986416816711, 232.5468029975891, 233.50913000106812, 233.68122100830078, 234.44872999191284, 234.548730134964, 234.66570806503296, 234.7823600769043, 234.899334192276, 235.01606607437134, 235.13301014900208, 235.24959707260132, 235.36683011054993, 235.48320508003235, 235.6000521183014, 235.71675610542297, 235.83368015289307, 235.95027208328247, 236.06723618507385, 236.18407917022705, 236.3008770942688, 236.52580404281616]	[232.42193547479158, 232.53860214145158, 233.52160214145158, 233.68830214145157, 234.43830214145157, 234.55496880811157, 234.67163547477156, 234.78830214143156, 234.90496880809155, 235.02163547475155, 235.13830214141154, 235.25496880807154, 235.37163547473153, 235.48830214139153, 235.60496880805152, 235.72163547471152, 235.8383021413715, 235.9549688080315, 236.0716354746915, 236.1883021413515, 236.3049688080115, 236.53830214134481]	2021_Feb_18_1416	60.005293359409094	1	0.375
32	40	FALSE	VN	a	['G', 'Y', 'B', 'T', 'E', 'V', 'A', 'J', 'R', 'surprise', 'U', 'K', 'M', 'Z', 'H', 'P']	[944, 2670, 760, 1888, 904, 2245, 697, 1029, 1587, 'stimAuditory/all_stimAuditory/224.wav', 2059, 1122, 1224, 2911, 986, 1456]	13	Absent	NA	NA	ABSENT	0.42746615409851074	238.5200788974762	240.52816081047055	241.69483462962796	242.04483653695655	244.64217114448547	4.114010334014893	[238.5365331172943, 238.6533432006836, 239.6254961490631, 239.80464005470276, 240.5553011894226, 240.67218804359436, 240.78892397880554, 240.90555214881897, 241.02252316474915, 241.1393551826477, 241.25612020492554, 241.3728060722351, 241.4896640777588, 241.60630702972412, 241.72327709197998, 241.83995699882507, 241.9566490650177, 242.0735580921173, 242.19026017189026, 242.3071620464325, 242.42398118972778, 242.64217019081116]	[238.53830214134481, 238.6549688080048, 239.6379688080048, 239.8046688080048, 240.5546688080048, 240.6713354746648, 240.7880021413248, 240.9046688079848, 241.0213354746448, 241.13800214130478, 241.25466880796478, 241.37133547462477, 241.48800214128477, 241.60466880794476, 241.72133547460476, 241.83800214126475, 241.95466880792475, 242.07133547458474, 242.18800214124474, 242.30466880790473, 242.42133547456473, 242.65466880789805]	2021_Feb_18_1416	60.005293359409094	1	0.375
32	41	FALSE	NV	a	['P', 'Y', 'N', 'A', 'R', 'C', 'W', 'H', 'T', 'U', 'M', 'J', 'B', 'X', 'S', 'K']	[1456, 2670, 1335, 697, 1587, 829, 2448, 986, 1888, 2059, 1224, 1029, 760, 4000, 1731, 1122]	14	Present	NA	NA	PRESENT	0.2808871269226074	244.64318084716797	246.64469003677368	247.9280312378468	248.2780331451754	250.7585380077362	4.113847970962524	[244.65963315963745, 244.7763991355896, 245.74186301231384, 245.92804408073425, 246.67832016944885, 246.79528617858887, 246.91197800636292, 247.0287652015686, 247.14550614356995, 247.26235914230347, 247.37927198410034, 247.49587607383728, 247.61287903785706, 247.72973012924194, 247.84654307365417, 247.96330618858337, 248.06311297416687, 248.17989706993103, 248.29665398597717, 248.41350197792053, 248.5303511619568, 248.7585380077362]	[244.65466880789805, 244.77133547455804, 245.75433547455805, 245.92103547455804, 246.67103547455804, 246.78770214121803, 246.90436880787803, 247.02103547453802, 247.13770214119802, 247.25436880785801, 247.371035474518, 247.487702141178, 247.604368807838, 247.721035474498, 247.837702141158, 247.95436880781799, 248.07103547447798, 248.18770214113798, 248.30436880779797, 248.42103547445797, 248.53770214111796, 248.77103547445128]	2021_Feb_18_1416	60.005293359409094	1	0.375
32	42	FALSE	NV	a	['W', 'V', 'R', 'K', 'G', 'C', 'H', 'S', 'E', 'X', 'M', 'A', 'B', 'P', 'J', 'N']	[2448, 2245, 1587, 1122, 944, 829, 986, 1731, 904, 4000, 1224, 697, 760, 1456, 1029, 1335]	10	Present	NA	NA	PRESENT	0.20537400245666504	250.74963784217832	252.76095700263977	253.57763153707288	253.9276336828201	256.8749041557312	4.113947153091431	[250.76609110832214, 250.88275504112244, 251.85823011398315, 252.0341761112213, 252.7848720550537, 252.90149998664856, 253.01866817474365, 253.13516306877136, 253.25261211395264, 253.36897611618042, 253.4857141971588, 253.6023621559143, 253.71938610076904, 253.8361301422119, 253.95294618606567, 254.06966304779053, 254.18655014038086, 254.3033230304718, 254.42002701759338, 254.53679013252258, 254.65351009368896, 254.87490510940552]	[250.77103547445128, 250.88770214111128, 251.87070214111128, 252.03740214111127, 252.78740214111127, 252.90406880777127, 253.02073547443126, 253.13740214109126, 253.25406880775125, 253.37073547441125, 253.48740214107124, 253.60406880773124, 253.72073547439123, 253.83740214105123, 253.95406880771122, 254.07073547437122, 254.1874021410312, 254.3040688076912, 254.4207354743512, 254.5374021410112, 254.6540688076712, 254.88740214100451]	2021_Feb_18_1416	60.005293359409094	1	0.375
32	43	FALSE	NV	a	['U', 'H', 'E', 'P', 'A', 'Y', 'C', 'Z', 'X', 'K', 'N', 'W', 'T', 'J', 'R', 'M']	[2059, 986, 904, 1456, 697, 2670, 829, 2911, 4000, 1122, 1335, 2448, 1888, 1029, 1587, 1224]	9	Present	NA	NA	PRESENT	0.3137989044189453	256.8731939792633	258.87748980522156	259.5774979114133	259.92749981874186	262.9912700653076	4.11378026008606	[256.8896460533142, 257.0059940814972, 257.9745969772339, 258.1573820114136, 258.908075094223, 259.02487802505493, 259.14171504974365, 259.2585871219635, 259.3752191066742, 259.4919891357422, 259.60879015922546, 259.7257390022278, 259.8423900604248, 259.95938301086426, 260.0759880542755, 260.19288516044617, 260.30968618392944, 260.4263741970062, 260.5430521965027, 260.6599950790405, 260.77679800987244, 260.9912700653076]	[256.8874021410045, 257.0040688076645, 257.9870688076645, 258.1537688076645, 258.9037688076645, 259.02043547432453, 259.13710214098455, 259.2537688076446, 259.3704354743046, 259.4871021409646, 259.60376880762465, 259.72043547428467, 259.8371021409447, 259.9537688076047, 260.07043547426474, 260.18710214092476, 260.3037688075848, 260.4204354742448, 260.53710214090484, 260.65376880756486, 260.7704354742249, 261.00376880755823]	2021_Feb_18_1416	60.005293359409094	1	0.375
32	44	FALSE	NA	a	['K', 'Y', 'H', 'J', 'B', 'A', 'U', 'N', 'Z', 'X', 'M', 'V', 'E', 'W', 'P', 'C']	[1122, 2670, 986, 1029, 760, 697, 2059, 1335, 2911, 4000, 1224, 2245, 904, 2448, 1456, 829]	10	Present	NA	NA	PRESENT	0.231126070022583	262.9960958957672	264.99372696876526	265.8104036489656	266.1604055562942	269.10763812065125	4.113911151885986	[263.012549161911, 263.1291949748993, 264.09095907211304, 264.2637209892273, 265.03120398521423, 265.13126015663147, 265.24821400642395, 265.36489605903625, 265.4818160533905, 265.5986580848694, 265.71537804603577, 265.8320801258087, 265.9488651752472, 266.06569600105286, 266.1826720237732, 266.2992970943451, 266.41649317741394, 266.5329990386963, 266.6496820449829, 266.76637601852417, 266.88311219215393, 267.10763716697693]	[263.00376880755823, 263.12043547421825, 264.10343547421826, 264.27013547421825, 265.02013547421825, 265.1368021408783, 265.2534688075383, 265.3701354741983, 265.48680214085834, 265.60346880751837, 265.7201354741784, 265.8368021408384, 265.95346880749844, 266.07013547415846, 266.1868021408185, 266.3034688074785, 266.42013547413853, 266.53680214079856, 266.6534688074586, 266.7701354741186, 266.8868021407786, 267.120135474112]	2021_Feb_18_1416	60.005293359409094	1	0.375
32	45	FALSE	NA	a	['V', 'R', 'H', 'P', 'G', 'U', 'C', 'N', 'J', 'T', 'X', 'W', 'S', 'M', 'E', 'B']	[2245, 1587, 986, 1456, 944, 2059, 829, 1335, 1029, 1888, 4000, 2448, 1731, 1224, 904, 760]	11	Present	NA	NA	PRESENT	0.2837049961090088	269.1025228500366	271.1101830005646	272.043525155332	272.3935273010792	275.224004983902	4.113821983337402	[269.1189751625061, 269.2356081008911, 270.20732712745667, 270.38697504997253, 271.13779401779175, 271.25461602211, 271.37143898010254, 271.4880921840668, 271.6050021648407, 271.7217261791229, 271.83839201927185, 271.9552700519562, 272.07198214530945, 272.18891310691833, 272.3056900501251, 272.42253613471985, 272.53924012184143, 272.6560220718384, 272.77278208732605, 272.88963413238525, 273.00636410713196, 273.22400403022766]	[269.120135474112, 269.236802140772, 270.219802140772, 270.386502140772, 271.136502140772, 271.253168807432, 271.36983547409204, 271.48650214075207, 271.6031688074121, 271.7198354740721, 271.83650214073214, 271.95316880739216, 272.0698354740522, 272.1865021407122, 272.30316880737223, 272.41983547403225, 272.5365021406923, 272.6531688073523, 272.7698354740123, 272.88650214067235, 273.0031688073324, 273.2365021406657]	2021_Feb_18_1416	60.005293359409094	1	0.375
32	46	FALSE	AN	a	['M', 'S', 'B', 'Y', 'C', 'Z', 'J', 'V', 'U', 'surprise', 'R', 'T', 'H', 'W', 'G', 'A']	[1224, 1731, 760, 2670, 829, 2911, 1029, 2245, 2059, 'stimAuditory/all_stimAuditory/217.wav', 1587, 1888, 986, 2448, 944, 697]	13	Absent	stimAuditory/all_stimAuditory/207.wav	NA	ABSENT	0.26521801948547363	275.2255299091339	277.22636890411377	278.3930424848526	278.7430446305998	281.34037017822266	4.114001274108887	[275.241984128952, 275.3587670326233, 276.3236970901489, 276.5103831291199, 277.26076316833496, 277.37773418426514, 277.49451208114624, 277.6113061904907, 277.72810316085815, 277.8450541496277, 277.94475507736206, 278.0616080760956, 278.1784770488739, 278.2952489852905, 278.41199707984924, 278.5288600921631, 278.6456401348114, 278.7624671459198, 278.87918400764465, 278.9959352016449, 279.11270117759705, 279.34037017822266]	[275.2365021406657, 275.35316880732574, 276.33616880732575, 276.50286880732574, 277.25286880732574, 277.36953547398576, 277.4862021406458, 277.6028688073058, 277.71953547396583, 277.83620214062586, 277.9528688072859, 278.0695354739459, 278.18620214060593, 278.30286880726595, 278.419535473926, 278.536202140586, 278.652868807246, 278.76953547390605, 278.88620214056607, 279.0028688072261, 279.1195354738861, 279.35286880721947]	2021_Feb_18_1416	60.005293359409094	1	0.375
32	47	FALSE	NA	a	['U', 'Z', 'S', 'G', 'K', 'A', 'H', 'R', 'E', 'M', 'V', 'W', 'X', 'B', 'C', 'J']	[2059, 2911, 1731, 944, 1122, 697, 986, 1587, 904, 1224, 2245, 2448, 4000, 760, 829, 1029]	13	Present	NA	NA	PRESENT	0.3816361427307129	281.3321850299835	283.34271693229675	284.50939146670987	284.8593945661314	287.4567379951477	4.114021062850952	[281.34863805770874, 281.4652211666107, 282.440062046051, 282.61678409576416, 283.36738419532776, 283.4840500354767, 283.6008381843567, 283.7176899909973, 283.83469820022583, 283.9513351917267, 284.06826400756836, 284.18500208854675, 284.30180406570435, 284.4186041355133, 284.5352551937103, 284.65207505226135, 284.76882100105286, 284.88572001457214, 285.0024461746216, 285.1193599700928, 285.2358720302582, 285.4567379951477]	[281.35286880721947, 281.4695354738795, 282.4525354738795, 282.6192354738795, 283.3692354738795, 283.4859021405395, 283.60256880719953, 283.71923547385956, 283.8359021405196, 283.9525688071796, 284.0692354738396, 284.18590214049965, 284.3025688071597, 284.4192354738197, 284.5359021404797, 284.65256880713974, 284.76923547379977, 284.8859021404598, 285.0025688071198, 285.11923547377984, 285.23590214043986, 285.4692354737732]	2021_Feb_18_1416	60.005293359409094	1	0.375
32	48	FALSE	NA	a	['R', 'N', 'C', 'P', 'G', 'E', 'U', 'Z', 'X', 'W', 'M', 'J', 'V', 'H', 'A', 'S']	[1587, 1335, 829, 1456, 944, 904, 2059, 2911, 4000, 2448, 1224, 1029, 2245, 986, 697, 1731]	9	Present	NA	NA	PRESENT	0.2580900192260742	287.45545196533203	289.4591019153595	290.1591100215512	290.5091119288798	293.573105096817	4.1140031814575195	[287.47190499305725, 287.58851408958435, 288.55642914772034, 288.7397999763489, 289.49044919013977, 289.60736203193665, 289.72424602508545, 289.8410210609436, 289.9576201438904, 290.074609041214, 290.1912941932678, 290.3082060813904, 290.42498111724854, 290.54165506362915, 290.6585741043091, 290.77530002593994, 290.89222407341003, 291.00900411605835, 291.1256501674652, 291.24254417419434, 291.3592481613159, 291.5731041431427]	[287.4692354737732, 287.58590214043323, 288.56890214043324, 288.73560214043323, 289.48560214043323, 289.60226880709325, 289.7189354737533, 289.8356021404133, 289.9522688070733, 290.06893547373335, 290.18560214039337, 290.3022688070534, 290.4189354737134, 290.53560214037344, 290.65226880703347, 290.7689354736935, 290.8856021403535, 291.00226880701354, 291.11893547367356, 291.2356021403336, 291.3522688069936, 291.58560214032696]	2021_Feb_18_1416	60.005293359409094	1	0.375
32	49	FALSE	NV	a	['S', 'C', 'K', 'P', 'M', 'J', 'E', 'G', 'A', 'R', 'H', 'X', 'N', 'W', 'B', 'Z']	[1731, 829, 1122, 1456, 1224, 1029, 904, 944, 697, 1587, 986, 4000, 1335, 2448, 760, 2911]	12	Present	NA	NA	PRESENT	0.2953610420227051	293.5784080028534	295.5756778717041	296.6256859778758	296.9756878852044	299.6894700527191	4.113792181015015	[293.5948610305786, 293.6948959827423, 294.67279410362244, 294.84642004966736, 295.59693002700806, 295.7137761116028, 295.83069801330566, 295.94737100601196, 296.06436014175415, 296.1810450553894, 296.2978661060333, 296.41455912590027, 296.5312759876251, 296.64830112457275, 296.7651469707489, 296.8817620277405, 296.998428106308, 297.11534309387207, 297.23230504989624, 297.3493790626526, 297.4658350944519, 297.6894700527191]	[293.58560214032696, 293.702268806987, 294.685268806987, 294.851968806987, 295.601968806987, 295.718635473647, 295.835302140307, 295.95196880696705, 296.06863547362707, 296.1853021402871, 296.3019688069471, 296.41863547360714, 296.53530214026716, 296.6519688069272, 296.7686354735872, 296.88530214024723, 297.00196880690726, 297.1186354735673, 297.2353021402273, 297.3519688068873, 297.46863547354735, 297.7019688068807]	2021_Feb_18_1416	60.005293359409094	1	0.375
32	50	FALSE	NA	a	['M', 'G', 'A', 'J', 'T', 'B', 'C', 'E', 'V', 'X', 'N', 'Y', 'Z', 'W', 'P', 'K']	[1224, 944, 697, 1029, 1888, 760, 829, 904, 2245, 4000, 1335, 2670, 2911, 2448, 1456, 1122]	10	Present	NA	NA	PRESENT	0.41983699798583984	299.68506383895874	301.6919538974762	302.5086286703279	302.8586305776565	305.80583810806274	4.113884210586548	[299.70151710510254, 299.81811118125916, 300.7891631126404, 300.96941804885864, 301.72003698349, 301.8369860649109, 301.95368003845215, 302.0706031322479, 302.1873621940613, 302.3042039871216, 302.42105197906494, 302.53777718544006, 302.6546530723572, 302.7713391780853, 302.8883230686188, 303.00497007369995, 303.1217119693756, 303.2386431694031, 303.3551781177521, 303.47231817245483, 303.5889210700989, 303.80583810806274]	[299.7019688068807, 299.8186354735407, 300.8016354735407, 300.9683354735407, 301.7183354735407, 301.83500214020074, 301.95166880686077, 302.0683354735208, 302.1850021401808, 302.30166880684084, 302.41833547350086, 302.5350021401609, 302.6516688068209, 302.76833547348093, 302.88500214014095, 303.001668806801, 303.118335473461, 303.235002140121, 303.35166880678105, 303.4683354734411, 303.5850021401011, 303.81833547343444]	2021_Feb_18_1416	60.005293359409094	1	0.375
32	51	FALSE	NV	a	['B', 'N', 'U', 'Y', 'C', 'V', 'E', 'A', 'H', 'T', 'R', 'J', 'X', 'P', 'K', 'W']	[760, 1335, 2059, 2670, 829, 2245, 904, 697, 986, 1888, 1587, 1029, 4000, 1456, 1122, 2448]	13	Present	NA	NA	PRESENT	0.401432991027832	305.8081970214844	307.80831003189087	308.974984566304	309.32498647363263	311.92220401763916	4.113893985748291	[305.82466101646423, 305.94148802757263, 306.9055299758911, 307.09249806404114, 307.8435871601105, 307.9601171016693, 308.0600860118866, 308.1769030094147, 308.2937431335449, 308.41053318977356, 308.52733302116394, 308.64412903785706, 308.76097202301025, 308.8777060508728, 308.9945070743561, 309.1113660335541, 309.22809410095215, 309.3449881076813, 309.4617040157318, 309.57862520217896, 309.69531202316284, 309.92220401763916]	[305.81833547343444, 305.93500214009447, 306.9180021400945, 307.08470214009446, 307.83470214009446, 307.9513688067545, 308.0680354734145, 308.18470214007453, 308.30136880673456, 308.4180354733946, 308.5347021400546, 308.65136880671463, 308.76803547337465, 308.8847021400347, 309.0013688066947, 309.1180354733547, 309.23470214001475, 309.35136880667477, 309.4680354733348, 309.5847021399948, 309.70136880665484, 309.9347021399882]	2021_Feb_18_1416	60.005293359409094	1	0.375
32	52	FALSE	NN	a	['C', 'Z', 'Y', 'S', 'B', 'V', 'N', 'H', 'W', 'M', 'J', 'K', 'E', 'U', 'G', 'A']	[829, 2911, 2670, 1731, 760, 2245, 1335, 986, 2448, 1224, 1029, 1122, 904, 2059, 944, 697]	14	Absent	NA	NA	ABSENT	0.3337559700012207	311.91468381881714	313.9245729446411	315.2079141457142	315.5579153377871	318.0385711193085	4.113998174667358	[311.9311361312866, 312.0477771759033, 313.0218939781189, 313.19918298721313, 313.9499020576477, 314.0666801929474, 314.1835560798645, 314.30029916763306, 314.4169211387634, 314.53387117385864, 314.65056109428406, 314.7675549983978, 314.8843870162964, 315.0009911060333, 315.11769819259644, 315.2346410751343, 315.35153007507324, 315.4682881832123, 315.5849211215973, 315.70185112953186, 315.81864309310913, 316.03857016563416]	[311.9347021399882, 312.0513688066482, 313.0343688066482, 313.2010688066482, 313.9510688066482, 314.06773547330823, 314.18440213996826, 314.3010688066283, 314.4177354732883, 314.5344021399483, 314.65106880660835, 314.7677354732684, 314.8844021399284, 315.0010688065884, 315.11773547324844, 315.23440213990847, 315.3510688065685, 315.4677354732285, 315.58440213988854, 315.70106880654856, 315.8177354732086, 316.05106880654193]	2021_Feb_18_1416	60.005293359409094	1	0.375
32	53	FALSE	NA	a	['H', 'Z', 'A', 'R', 'V', 'W', 'J', 'G', 'X', 'S', 'K', 'U', 'E', 'M', 'C', 'T']	[986, 2911, 697, 1587, 2245, 2448, 1029, 944, 4000, 1731, 1122, 2059, 904, 1224, 829, 1888]	9	Present	NA	NA	PRESENT	0.3223400115966797	318.0379238128662	320.04086995124817	320.7408790111142	321.0908809184428	324.1549370288849	4.114067077636719	[318.05437707901, 318.1709749698639, 319.13826513290405, 319.32255005836487, 320.0729591846466, 320.19000697135925, 320.306538105011, 320.42366909980774, 320.54006004333496, 320.65711212158203, 320.77384400367737, 320.8904461860657, 321.0072891712189, 321.12409806251526, 321.24098896980286, 321.3578600883484, 321.4747099876404, 321.5912880897522, 321.708279132843, 321.8250479698181, 321.94167017936707, 322.1549370288849]	[318.05106880654193, 318.16773547320196, 319.15073547320196, 319.31743547320195, 320.06743547320195, 320.184102139862, 320.300768806522, 320.417435473182, 320.53410213984205, 320.6507688065021, 320.7674354731621, 320.8841021398221, 321.00076880648214, 321.11743547314217, 321.2341021398022, 321.3507688064622, 321.46743547312224, 321.58410213978226, 321.7007688064423, 321.8174354731023, 321.93410213976233, 322.1674354730957]	2021_Feb_18_1416	60.005293359409094	1	0.375
32	54	FALSE	AV	a	['B', 'N', 'K', 'U', 'S', 'E', 'surprise', 'A', 'Y', 'X', 'C', 'P', 'Z', 'G', 'J', 'W']	[760, 1335, 1122, 2059, 1731, 904, 'stimAuditory/all_stimAuditory/216.wav', 697, 2670, 4000, 829, 1456, 2911, 944, 1029, 2448]	10	Present	stimAuditory/all_stimAuditory/209.wav	NA	PRESENT	0.5036211013793945	324.1441459655762	326.15736389160156	326.97403866445325	327.3240405717819	330.2713050842285	4.113941192626953	[324.1605989933014, 324.27739906311035, 325.25462913513184, 325.42878103256226, 326.17950105667114, 326.29625701904297, 326.41319012641907, 326.5298321247101, 326.6466510295868, 326.76341819763184, 326.88017416000366, 326.99706506729126, 327.11398816108704, 327.230660200119, 327.34772515296936, 327.4643361568451, 327.58117604255676, 327.6979730129242, 327.8147451877594, 327.9315631389618, 328.0482120513916, 328.27130603790283]	[324.1674354730957, 324.2841021397557, 325.2671021397557, 325.4338021397557, 326.1838021397557, 326.3004688064157, 326.41713547307575, 326.53380213973577, 326.6504688063958, 326.7671354730558, 326.88380213971584, 327.00046880637586, 327.1171354730359, 327.2338021396959, 327.35046880635593, 327.46713547301596, 327.583802139676, 327.700468806336, 327.81713547299603, 327.93380213965605, 328.0504688063161, 328.2838021396494]	2021_Feb_18_1416	60.005293359409094	1	0.375
32	55	FALSE	NV	a	['N', 'M', 'V', 'E', 'J', 'K', 'S', 'Y', 'C', 'X', 'A', 'U', 'P', 'B', 'G', 'W']	[1335, 1224, 2245, 904, 1029, 1122, 1731, 2670, 829, 4000, 697, 2059, 1456, 760, 944, 2448]	10	Present	NA	NA	PRESENT	0.300152063369751	330.26753997802734	332.27361583709717	333.09029060994885	333.4402925172775	336.38767099380493	4.114055156707764	[330.28399419784546, 330.40061211586, 331.37099599838257, 331.55204796791077, 332.3027741909027, 332.4195330142975, 332.53624415397644, 332.6530930995941, 332.7697241306305, 332.88673520088196, 333.00343108177185, 333.1203410625458, 333.23692417144775, 333.3537530899048, 333.4706070423126, 333.5875391960144, 333.7042520046234, 333.8209710121155, 333.93790316581726, 334.05464911460876, 334.1713969707489, 334.38767099380493]	[330.2838021396494, 330.40046880630945, 331.38346880630945, 331.55016880630944, 332.30016880630944, 332.41683547296947, 332.5335021396295, 332.6501688062895, 332.76683547294954, 332.88350213960956, 333.0001688062696, 333.1168354729296, 333.23350213958963, 333.35016880624966, 333.4668354729097, 333.5835021395697, 333.7001688062297, 333.81683547288975, 333.9335021395498, 334.0501688062098, 334.1668354728698, 334.40016880620317]	2021_Feb_18_1416	60.005293359409094	1	0.375
32	56	FALSE	NN	a	['Z', 'J', 'W', 'K', 'C', 'P', 'T', 'B', 'N', 'E', 'R', 'M', 'U', 'G', 'Y', 'A']	[2911, 1029, 2448, 1122, 829, 1456, 1888, 760, 1335, 904, 1587, 1224, 2059, 944, 2670, 697]	11	Absent	NA	NA	ABSENT	0.3774549961090088	336.3908050060272	338.3902599811554	339.32360213592284	339.67360428167	342.5040371417999	4.113777160644531	[336.40725803375244, 336.5238959789276, 337.48736214637756, 337.675518989563, 338.4258391857147, 338.52590703964233, 338.6426281929016, 338.75943517684937, 338.8762381076813, 338.99303007125854, 339.1098711490631, 339.2266571521759, 339.34340620040894, 339.46034717559814, 339.57723212242126, 339.69388818740845, 339.81080412864685, 339.92752599716187, 340.0443961620331, 340.16115617752075, 340.277704000473, 340.5040361881256]	[336.40016880620317, 336.5168354728632, 337.4998354728632, 337.6665354728632, 338.4165354728632, 338.5332021395232, 338.64986880618324, 338.76653547284326, 338.8832021395033, 338.9998688061633, 339.11653547282333, 339.23320213948335, 339.3498688061434, 339.4665354728034, 339.5832021394634, 339.69986880612345, 339.81653547278347, 339.9332021394435, 340.0498688061035, 340.16653547276354, 340.28320213942357, 340.5165354727569]	2021_Feb_18_1416	60.005293359409094	1	0.375
32	57	FALSE	NV	a	['C', 'K', 'W', 'P', 'S', 'R', 'T', 'U', 'V', 'G', 'A', 'X', 'Y', 'J', 'H', 'Z']	[829, 1122, 2448, 1456, 1731, 1587, 1888, 2059, 2245, 944, 697, 4000, 2670, 1029, 986, 2911]	12	Present	NA	NA	PRESENT	0.42999887466430664	342.497102022171	344.5063009262085	345.55630903238017	345.9063109397088	348.62040519714355	4.114104270935059	[342.51356315612793, 342.63036918640137, 343.6037311553955, 343.78144001960754, 344.5323350429535, 344.6491119861603, 344.7660541534424, 344.8827450275421, 344.9994971752167, 345.11630606651306, 345.2330210208893, 345.34992718696594, 345.46660017967224, 345.58354020118713, 345.7003450393677, 345.8171350955963, 345.93379616737366, 346.0507321357727, 346.1673650741577, 346.2842490673065, 346.40118312835693, 346.62040400505066]	[342.5165354727569, 342.63320213941694, 343.61620213941694, 343.78290213941693, 344.53290213941693, 344.64956880607696, 344.766235472737, 344.882902139397, 344.999568806057, 345.11623547271705, 345.2329021393771, 345.3495688060371, 345.4662354726971, 345.58290213935715, 345.69956880601717, 345.8162354726772, 345.9329021393372, 346.04956880599724, 346.16623547265726, 346.2829021393173, 346.3995688059773, 346.63290213931066]	2021_Feb_18_1416	60.005293359409094	1	0.375
32	58	FALSE	NA	a	['C', 'T', 'U', 'R', 'H', 'E', 'N', 'J', 'K', 'Z', 'M', 'B', 'W', 'X', 'A', 'V']	[829, 1888, 2059, 1587, 986, 904, 1335, 1029, 1122, 2911, 1224, 760, 2448, 4000, 697, 2245]	14	Present	NA	NA	PRESENT	0.48250484466552734	348.62063789367676	350.62278985977173	351.9061312992634	352.25613320659204	354.73677015304565	4.113980293273926	[348.63709115982056, 348.7536280155182, 349.7200961112976, 349.9048020839691, 350.6555759906769, 350.77244901657104, 350.88917303085327, 351.00599217414856, 351.1228141784668, 351.23958015441895, 351.3563561439514, 351.47297406196594, 351.58982610702515, 351.7064960002899, 351.8235731124878, 351.94034719467163, 352.0571041107178, 352.17396998405457, 352.290598154068, 352.4075150489807, 352.5242760181427, 352.73677015304565]	[348.63290213931066, 348.7495688059707, 349.7325688059707, 349.8992688059707, 350.6492688059707, 350.7659354726307, 350.8826021392907, 350.99926880595075, 351.1159354726108, 351.2326021392708, 351.3492688059308, 351.46593547259084, 351.58260213925087, 351.6992688059109, 351.8159354725709, 351.93260213923094, 352.04926880589096, 352.165935472551, 352.282602139211, 352.39926880587103, 352.51593547253105, 352.7492688058644]	2021_Feb_18_1416	60.005293359409094	1	0.375
32	59	FALSE	NV	a	['B', 'E', 'M', 'C', 'J', 'H', 'P', 'Z', 'R', 'A', 'U', 'K', 'Y', 'X', 'G', 'T']	[760, 904, 1224, 829, 1029, 986, 1456, 2911, 1587, 697, 2059, 1122, 2670, 4000, 944, 1888]	14	Present	NA	NA	PRESENT	0.4559509754180908	354.72672390937805	356.739049911499	358.0223913509907	358.37239325831933	360.8531379699707	4.11408805847168	[354.74317717552185, 354.860139131546, 355.8364610671997, 356.0113341808319, 356.76190400123596, 356.87884497642517, 356.9957740306854, 357.11232018470764, 357.2290451526642, 357.34595108032227, 357.46268010139465, 357.5795991420746, 357.6962060928345, 357.8132891654968, 357.9298961162567, 358.04683804512024, 358.16339206695557, 358.28031516075134, 358.3973500728607, 358.5139670372009, 358.6306471824646, 358.8531379699707]	[354.7492688058644, 354.8659354725244, 355.84893547252443, 356.0156354725244, 356.7656354725244, 356.88230213918445, 356.99896880584447, 357.1156354725045, 357.2323021391645, 357.34896880582454, 357.46563547248456, 357.5823021391446, 357.6989688058046, 357.81563547246463, 357.93230213912466, 358.0489688057847, 358.1656354724447, 358.28230213910473, 358.39896880576475, 358.5156354724248, 358.6323021390848, 358.86563547241815]	2021_Feb_18_1416	60.005293359409094	1	0.375
32	60	FALSE	NA	a	['J', 'E', 'Y', 'R', 'A', 'U', 'N', 'X', 'Z', 'C', 'H', 'G', 'B', 'K', 'M', 'V']	[1029, 904, 2670, 1587, 697, 2059, 1335, 4000, 2911, 829, 986, 944, 760, 1122, 1224, 2245]	8	Present	NA	NA	PRESENT	0.3644709587097168	360.84992384910583	362.8555209636688	363.43886216478194	363.7888643105291	366.96950507164	4.113984107971191	[360.8663761615753, 360.98323011398315, 361.9528269767761, 362.13434410095215, 362.885272026062, 363.00218200683594, 363.1187810897827, 363.2356700897217, 363.35231709480286, 363.46926403045654, 363.58594703674316, 363.7025821208954, 363.8195831775665, 363.9364151954651, 364.0532581806183, 364.16983914375305, 364.2866439819336, 364.40359020233154, 364.52026319503784, 364.6371741294861, 364.75393414497375, 364.9695041179657]	[360.86563547241815, 360.9823021390782, 361.9653021390782, 362.13200213907817, 362.88200213907817, 362.9986688057382, 363.1153354723982, 363.23200213905824, 363.34866880571826, 363.4653354723783, 363.5820021390383, 363.69866880569833, 363.81533547235836, 363.9320021390184, 364.0486688056784, 364.1653354723384, 364.28200213899845, 364.3986688056585, 364.5153354723185, 364.6320021389785, 364.74866880563854, 364.9820021389719]	2021_Feb_18_1416	60.005293359409094	1	0.375
32	61	FALSE	NV	a	['P', 'N', 'C', 'Z', 'Y', 'K', 'S', 'T', 'X', 'A', 'W', 'G', 'M', 'B', 'H', 'U']	[1456, 1335, 829, 2911, 2670, 1122, 1731, 1888, 4000, 697, 2448, 944, 1224, 760, 986, 2059]	9	Present	NA	NA	PRESENT	0.5378310680389404	366.9731769561768	368.9717760086059	369.6717838763791	370.02178483003337	373.0858700275421	4.114094018936157	[366.989629983902, 367.1064851284027, 368.06919598579407, 368.24082016944885, 369.00858902931213, 369.10844111442566, 369.2251560688019, 369.3419899940491, 369.4589331150055, 369.5755820274353, 369.69251918792725, 369.80920219421387, 369.9258551597595, 370.0428810119629, 370.1594409942627, 370.27628111839294, 370.39322113990784, 370.50997400283813, 370.6268301010132, 370.7436890602112, 370.8602890968323, 371.0858700275421]	[366.9820021389719, 367.0986688056319, 368.0816688056319, 368.2483688056319, 368.9983688056319, 369.11503547229194, 369.23170213895196, 369.348368805612, 369.465035472272, 369.58170213893203, 369.69836880559205, 369.8150354722521, 369.9317021389121, 370.0483688055721, 370.16503547223215, 370.2817021388922, 370.3983688055522, 370.5150354722122, 370.63170213887224, 370.74836880553227, 370.8650354721923, 371.09836880552564]	2021_Feb_18_1416	60.005293359409094	1	0.375
32	62	FALSE	NA	a	['A', 'M', 'U', 'T', 'R', 'C', 'E', 'X', 'S', 'J', 'H', 'K', 'Y', 'V', 'W', 'Z']	[697, 1224, 2059, 1888, 1587, 829, 904, 4000, 1731, 1029, 986, 1122, 2670, 2245, 2448, 2911]	8	Present	NA	NA	PRESENT	0.23025202751159668	373.07957696914673	375.0883870124817	375.6717282135948	376.021730359342	379.20223808288574	4.113851070404053	[373.09602999687195, 373.2128691673279, 374.1855580806732, 374.3639361858368, 375.1147291660309, 375.23168110847473, 375.3483691215515, 375.4654381275177, 375.58200311660767, 375.69887018203735, 375.81559801101685, 375.93243503570557, 376.0493199825287, 376.16603112220764, 376.28290820121765, 376.3995451927185, 376.51632618904114, 376.6332941055298, 376.7499899864197, 376.8668701648712, 376.98358511924744, 377.2022371292114]	[373.09836880552564, 373.21503547218566, 374.19803547218567, 374.36473547218566, 375.11473547218566, 375.2314021388457, 375.3480688055057, 375.4647354721657, 375.58140213882575, 375.6980688054858, 375.8147354721458, 375.9314021388058, 376.04806880546585, 376.16473547212587, 376.2814021387859, 376.3980688054459, 376.51473547210594, 376.63140213876596, 376.748068805426, 376.864735472086, 376.98140213874603, 377.2147354720794]	2021_Feb_18_1416	60.005293359409094	1	0.375
32	63	FALSE	NV	a	['M', 'B', 'N', 'K', 'J', 'U', 'V', 'X', 'W', 'G', 'Z', 'C', 'S', 'A', 'H', 'E']	[1224, 760, 1335, 1122, 1029, 2059, 2245, 4000, 2448, 944, 2911, 829, 1731, 697, 986, 904]	8	Present	NA	NA	PRESENT	0.4757158756256103	379.20306301116943	381.20451498031616	381.7878561814293	382.1378592808508	385.31860518455505	4.114090204238892	[379.21951603889465, 379.3361620903015, 380.3019289970398, 380.48710107803345, 381.23803210258484, 381.35496497154236, 381.4716980457306, 381.58839416503906, 381.7052240371704, 381.82205414772034, 381.93881702423096, 382.0554881095886, 382.1723701953888, 382.2892601490021, 382.4060220718384, 382.52262711524963, 382.6394941806793, 382.7562870979309, 382.87321400642395, 382.9730679988861, 383.08991718292236, 383.31860518455505]	[379.2147354720794, 379.3314021387394, 380.3144021387394, 380.4811021387394, 381.2311021387394, 381.3477688053994, 381.46443547205945, 381.5811021387195, 381.6977688053795, 381.8144354720395, 381.93110213869954, 382.04776880535957, 382.1644354720196, 382.2811021386796, 382.39776880533964, 382.51443547199966, 382.6311021386597, 382.7477688053197, 382.86443547197973, 382.98110213863976, 383.0977688052998, 383.3311021386331]	2021_Feb_18_1416	60.005293359409094	1	0.375
32	64	FALSE	NV	a	['K', 'U', 'R', 'V', 'P', 'H', 'T', 'A', 'G', 'Z', 'J', 'S', 'B', 'X', 'C', 'W']	[1122, 2059, 1587, 2245, 1456, 986, 1888, 697, 944, 2911, 1029, 1731, 760, 4000, 829, 2448]	14	Present	NA	NA	PRESENT	0.3841428756713867	385.3091518878937	387.3209829330444	388.6043241341175	388.95432627986474	391.4349710941314	4.113988161087036	[385.32560420036316, 385.4425370693207, 386.4182960987091, 386.59377098083496, 387.34449911117554, 387.4614419937134, 387.57817006111145, 387.6949701309204, 387.8118431568146, 387.9285740852356, 388.0453910827637, 388.1621150970459, 388.27866411209106, 388.3959331512451, 388.5123190879822, 388.629203081131, 388.7463610172272, 388.8629081249237, 388.9796311855316, 389.09625697135925, 389.2131531238556, 389.43497109413147]	[385.3311021386331, 385.44776880529315, 386.43076880529316, 386.59746880529315, 387.34746880529315, 387.46413547195317, 387.5808021386132, 387.6974688052732, 387.81413547193324, 387.93080213859326, 388.0474688052533, 388.1641354719133, 388.28080213857334, 388.39746880523336, 388.5141354718934, 388.6308021385534, 388.74746880521343, 388.86413547187345, 388.9808021385335, 389.0974688051935, 389.2141354718535, 389.4474688051869]	2021_Feb_18_1416	60.005293359409094	1	0.375
32	65	FALSE	NV	a	['U', 'R', 'Z', 'E', 'H', 'J', 'Y', 'K', 'P', 'X', 'B', 'S', 'A', 'T', 'V', 'M']	[2059, 1587, 2911, 904, 986, 1029, 2670, 1122, 1456, 4000, 760, 1731, 697, 1888, 2245, 1224]	10	Present	NA	NA	PRESENT	0.4367530345916748	391.43265295028687	393.4372959136963	394.2539716402223	394.6039725938766	397.5513370037079	4.114041090011597	[391.449107170105, 391.5657911300659, 392.5346632003784, 392.7169420719147, 393.46765208244324, 393.584557056427, 393.70134115219116, 393.8180181980133, 393.93498706817627, 394.05176305770874, 394.1685600280762, 394.28520107269287, 394.40197801589966, 394.5188992023468, 394.63562202453613, 394.7524399757385, 394.86927819252014, 394.9859480857849, 395.1028301715851, 395.2196509838104, 395.3363630771637, 395.55133605003357]	[391.4474688051869, 391.5641354718469, 392.5471354718469, 392.7138354718469, 393.4638354718469, 393.5805021385069, 393.69716880516694, 393.81383547182696, 393.930502138487, 394.047168805147, 394.16383547180703, 394.28050213846706, 394.3971688051271, 394.5138354717871, 394.6305021384471, 394.74716880510715, 394.8638354717672, 394.9805021384272, 395.0971688050872, 395.21383547174725, 395.33050213840727, 395.5638354717406]	2021_Feb_18_1416	60.005293359409094	1	0.375
32	66	FALSE	NA	a	['T', 'J', 'W', 'U', 'S', 'P', 'Z', 'M', 'X', 'K', 'Y', 'A', 'E', 'N', 'C', 'H']	[1888, 1029, 2448, 2059, 1731, 1456, 2911, 1224, 4000, 1122, 2670, 697, 904, 1335, 829, 986]	9	Present	NA	NA	PRESENT	0.30597901344299316	397.55576491355896	399.55375385284424	400.253761959036	400.60376386636455	403.6677041053772	4.113950252532959	[397.57221817970276, 397.6889340877533, 398.65102910995483, 398.8234770298004, 399.59092807769775, 399.6909821033478, 399.80779218673706, 399.92460799217224, 400.04124999046326, 400.15806818008423, 400.2748980522156, 400.3916711807251, 400.5083751678467, 400.62527799606323, 400.74198603630066, 400.8588922023773, 400.9755630493164, 401.0925221443176, 401.20922803878784, 401.32612013816833, 401.4428141117096, 401.6677031517029]	[397.5638354717406, 397.68050213840064, 398.66350213840064, 398.83020213840064, 399.58020213840064, 399.69686880506066, 399.8135354717207, 399.9302021383807, 400.04686880504073, 400.16353547170075, 400.2802021383608, 400.3968688050208, 400.5135354716808, 400.63020213834085, 400.7468688050009, 400.8635354716609, 400.9802021383209, 401.09686880498094, 401.21353547164097, 401.330202138301, 401.446868804961, 401.68020213829436]	2021_Feb_18_1416	60.005293359409094	1	0.375
32	67	FALSE	NV	a	['A', 'H', 'B', 'W', 'Y', 'R', 'N', 'J', 'G', 'X', 'E', 'C', 'K', 'P', 'U', 'S']	[697, 986, 760, 2448, 2670, 1587, 1335, 1029, 944, 4000, 904, 829, 1122, 1456, 2059, 1731]	10	Present	NA	NA	PRESENT	0.5826048851013184	403.6621959209442	405.6700749397278	406.48674852048657	406.8367516199081	409.78407096862793	4.1139960289001465	[403.678649187088, 403.79534912109375, 404.76739597320557, 404.94670009613037, 405.697242975235, 405.81403613090515, 405.93103098869324, 406.0475881099701, 406.16463899612427, 406.2813410758972, 406.39814710617065, 406.5149841308594, 406.63155603408813, 406.74845600128174, 406.86523604393005, 406.98207116127014, 407.0988621711731, 407.21564507484436, 407.33243918418884, 407.4492621421814, 407.5659911632538, 407.7840721607208]	[403.68020213829436, 403.7968688049544, 404.7798688049544, 404.9465688049544, 405.6965688049544, 405.8132354716144, 405.92990213827443, 406.04656880493445, 406.1632354715945, 406.2799021382545, 406.3965688049145, 406.51323547157455, 406.62990213823457, 406.7465688048946, 406.8632354715546, 406.97990213821464, 407.09656880487466, 407.2132354715347, 407.3299021381947, 407.44656880485473, 407.56323547151476, 407.7965688048481]	2021_Feb_18_1416	60.005293359409094	1	0.375
32	68	FALSE	NA	a	['T', 'M', 'Z', 'V', 'J', 'H', 'B', 'X', 'C', 'S', 'K', 'U', 'G', 'W', 'Y', 'P']	[1888, 1224, 2911, 2245, 1029, 986, 760, 4000, 829, 1731, 1122, 2059, 944, 2448, 2670, 1456]	8	Present	NA	NA	PRESENT	0.5320279598236084	409.7851428985596	411.78662180900574	412.36996324853743	412.7199651558661	415.9004380702973	4.113816261291504	[409.8015971183777, 409.91859102249146, 410.8837640285492, 411.06979417800903, 411.82059812545776, 411.9373471736908, 412.05405616760254, 412.17103004455566, 412.28799510002136, 412.40444707870483, 412.5213530063629, 412.6379292011261, 412.7552139759064, 412.8717591762543, 412.98849415779114, 413.0883460044861, 413.205176115036, 413.3220109939575, 413.43878412246704, 413.5555341243744, 413.6723561286926, 413.90043807029724]	[409.7965688048481, 409.91323547150813, 410.89623547150813, 411.0629354715081, 411.8129354715081, 411.92960213816815, 412.0462688048282, 412.1629354714882, 412.2796021381482, 412.39626880480824, 412.51293547146827, 412.6296021381283, 412.7462688047883, 412.86293547144834, 412.97960213810836, 413.0962688047684, 413.2129354714284, 413.32960213808843, 413.44626880474846, 413.5629354714085, 413.6796021380685, 413.91293547140185]	2021_Feb_18_1416	60.005293359409094	1	0.375
32	69	FALSE	NV	a	['V', 'E', 'G', 'P', 'S', 'M', 'Z', 'R', 'T', 'B', 'U', 'X', 'W', 'A', 'N', 'K']	[2245, 904, 944, 1456, 1731, 1224, 2911, 1587, 1888, 760, 2059, 4000, 2448, 697, 1335, 1122]	12	Present	NA	NA	PRESENT	0.5925159454345703	415.89183592796326	417.9028539657593	418.95286302560527	419.30286588660823	422.01680397987366	4.11395001411438	[415.90828800201416, 416.0249960422516, 417.0001289844513, 417.17630100250244, 417.92689204216003, 418.04386615753174, 418.1604759693146, 418.2773561477661, 418.394602060318, 418.51101207733154, 418.6276640892029, 418.74462604522705, 418.8613131046295, 418.97814297676086, 419.094850063324, 419.2117750644684, 419.3284411430359, 419.44530606269836, 419.56205320358276, 419.6789140701294, 419.7957880496979, 420.01680397987366]	[415.91293547140185, 416.0296021380619, 417.0126021380619, 417.17930213806187, 417.92930213806187, 418.0459688047219, 418.1626354713819, 418.27930213804194, 418.39596880470197, 418.512635471362, 418.629302138022, 418.74596880468204, 418.86263547134206, 418.9793021380021, 419.0959688046621, 419.21263547132213, 419.32930213798215, 419.4459688046422, 419.5626354713022, 419.6793021379622, 419.79596880462225, 420.0293021379556]	2021_Feb_18_1416	60.005293359409094	1	0.375
32	70	FALSE	NA	a	['S', 'E', 'B', 'H', 'M', 'K', 'G', 'X', 'N', 'C', 'Y', 'A', 'W', 'U', 'R', 'V']	[1731, 904, 760, 986, 1224, 1122, 944, 4000, 1335, 829, 2670, 697, 2448, 2059, 1587, 2245]	8	Present	NA	NA	PRESENT	0.7968719005584717	422.01488399505615	424.0192279815674	424.6025691826805	424.9525713284277	428.13317012786865	4.1139421463012695	[422.0313379764557, 422.14821600914, 423.1164951324463, 423.2992160320282, 424.05010509490967, 424.1670641899109, 424.28395199775696, 424.40062713623047, 424.5173771381378, 424.634220123291, 424.75108218193054, 424.86760997772217, 424.9845860004425, 425.1012041568756, 425.21813011169434, 425.33501720428467, 425.45170998573303, 425.56839203834534, 425.6853370666504, 425.80220913887024, 425.91885709762573, 426.13317012786865]	[422.0293021379556, 422.1459688046156, 423.1289688046156, 423.2956688046156, 424.0456688046156, 424.16233547127564, 424.27900213793566, 424.3956688045957, 424.5123354712557, 424.62900213791573, 424.74566880457576, 424.8623354712358, 424.9790021378958, 425.0956688045558, 425.21233547121585, 425.3290021378759, 425.4456688045359, 425.5623354711959, 425.67900213785595, 425.79566880451597, 425.912335471176, 426.14566880450934]	2021_Feb_18_1416	60.005293359409094	1	0.375
32	71	FALSE	AN	a	['R', 'E', 'Z', 'B', 'Y', 'M', 'W', 'V', 'surprise', 'T', 'P', 'N', 'J', 'G', 'S', 'A']	[1587, 904, 2911, 760, 2670, 1224, 2448, 2245, 'stimAuditory/all_stimAuditory/111.wav', 1888, 1456, 1335, 1029, 944, 1731, 697]	12	Absent	stimAuditory/all_stimAuditory/109.wav	NA	ABSENT	0.866142988204956	428.13815689086914	430.1354789733887	431.18548684114177	431.535488986889	434.2495369911194	4.114058017730713	[428.15461111068726, 428.2545211315155, 429.232861995697, 429.40602016448975, 430.15653014183044, 430.27321219444275, 430.3904221057892, 430.5070390701294, 430.6237561702728, 430.74086809158325, 430.85730814933777, 430.9741761684418, 431.0908441543579, 431.2078950405121, 431.3245310783386, 431.4414041042328, 431.5581440925598, 431.67498207092285, 431.7917170524597, 431.9086561203003, 432.02524304389954, 432.2495369911194]	[428.14566880450934, 428.26233547116937, 429.24533547116937, 429.41203547116936, 430.16203547116936, 430.2787021378294, 430.3953688044894, 430.51203547114943, 430.62870213780946, 430.7453688044695, 430.8620354711295, 430.9787021377895, 431.09536880444955, 431.2120354711096, 431.3287021377696, 431.4453688044296, 431.56203547108964, 431.67870213774967, 431.7953688044097, 431.9120354710697, 432.02870213772974, 432.2620354710631]	2021_Feb_18_1416	60.005293359409094	1	0.375
32	72	FALSE	NV	a	['P', 'Y', 'C', 'U', 'R', 'S', 'Z', 'G', 'X', 'H', 'V', 'B', 'A', 'T', 'J', 'W']	[1456, 2670, 829, 2059, 1587, 1731, 2911, 944, 4000, 986, 2245, 760, 697, 1888, 1029, 2448]	9	Present	NA	NA	PRESENT	0.30281519889831543	434.24443888664246	436.2519438266754	436.9519509791928	437.3019528865214	440.3659040927887	4.113960266113281	[434.26089310646057, 434.377916097641, 435.34923005104065, 435.5290961265564, 436.27978801727295, 436.3967580795288, 436.5134279727936, 436.6302762031555, 436.74748396873474, 436.86388516426086, 436.98068499565125, 437.09724617004395, 437.2141110897064, 437.33076310157776, 437.4477140903473, 437.56439304351807, 437.6813061237335, 437.797963142395, 437.91496419906616, 438.0317370891571, 438.1485381126404, 438.365905046463]	[434.2620354710631, 434.3787021377231, 435.3617021377231, 435.5284021377231, 436.2784021377231, 436.39506880438313, 436.51173547104315, 436.6284021377032, 436.7450688043632, 436.8617354710232, 436.97840213768325, 437.09506880434327, 437.2117354710033, 437.3284021376633, 437.44506880432334, 437.56173547098336, 437.6784021376434, 437.7950688043034, 437.91173547096344, 438.02840213762346, 438.1450688042835, 438.37840213761683]	2021_Feb_18_1416	60.005293359409094	1	0.375
32	73	FALSE	NA	a	['N', 'W', 'V', 'C', 'A', 'H', 'T', 'Z', 'G', 'E', 'M', 'Y', 'X', 'B', 'S', 'R']	[1335, 2448, 2245, 829, 697, 986, 1888, 2911, 944, 904, 1224, 2670, 4000, 760, 1731, 1587]	13	Present	NA	NA	PRESENT	0.8280599117279053	440.36810183525085	442.36820793151855	443.53488270435025	443.8848846116789	446.4822700023651	4.114062070846558	[440.38455414772034, 440.50097608566284, 441.46559619903564, 441.65239906311035, 442.4030110836029, 442.51978516578674, 442.63665199279785, 442.7535309791565, 442.8702189922333, 442.9701101779938, 443.0869221687317, 443.20373702049255, 443.3204879760742, 443.43731212615967, 443.5540189743042, 443.670921087265, 443.78764820098877, 443.90441513061523, 444.02120304107666, 444.1380741596222, 444.25484919548035, 444.482271194458]	[440.37840213761683, 440.49506880427685, 441.47806880427686, 441.64476880427685, 442.39476880427685, 442.5114354709369, 442.6281021375969, 442.7447688042569, 442.86143547091694, 442.97810213757697, 443.094768804237, 443.211435470897, 443.32810213755704, 443.44476880421706, 443.5614354708771, 443.6781021375371, 443.79476880419713, 443.91143547085716, 444.0281021375172, 444.1447688041772, 444.2614354708372, 444.4947688041706]	2021_Feb_18_1416	60.005293359409094	1	0.375
32	74	FALSE	NN	a	['E', 'R', 'Z', 'S', 'Y', 'V', 'W', 'H', 'P', 'T', 'M', 'U', 'J', 'A', 'G', 'K']	[904, 1587, 2911, 1731, 2670, 2245, 2448, 986, 1456, 1888, 1224, 2059, 1029, 697, 944, 1122]	9	Absent	NA	NA	ABSENT	0.552436113357544	446.4741430282593	448.4847400188446	449.18474788661774	449.5347500323649	452.5986371040344	4.113897085189819	[446.4905970096588, 446.6075510978699, 447.58196210861206, 447.7585849761963, 448.50941801071167, 448.626501083374, 448.7429909706116, 448.85992908477783, 448.97669410705566, 449.09354305267334, 449.2102541923523, 449.3270311355591, 449.4437851905823, 449.56055307388306, 449.67735600471497, 449.7941150665283, 449.9108901023865, 450.02787017822266, 450.1446371078491, 450.2612090110779, 450.3785591125488, 450.5986371040344]	[446.4947688041706, 446.6114354708306, 447.5944354708306, 447.7611354708306, 448.5111354708306, 448.6278021374906, 448.74446880415064, 448.86113547081067, 448.9778021374707, 449.0944688041307, 449.21113547079074, 449.32780213745076, 449.4444688041108, 449.5611354707708, 449.67780213743083, 449.79446880409085, 449.9111354707509, 450.0278021374109, 450.1444688040709, 450.26113547073095, 450.377802137391, 450.6111354707243]	2021_Feb_18_1416	60.005293359409094	1	0.375
32	75	FALSE	AA	a	['Z', 'G', 'R', 'B', 'E', 'T', 'surprise', 'Y', 'M', 'X', 'C', 'U', 'J', 'W', 'P', 'S']	[2911, 944, 1587, 760, 904, 1888, 'stimAuditory/all_stimAuditory/103.wav', 2670, 1224, 4000, 829, 2059, 1029, 2448, 1456, 1731]	10	Present	stimAuditory/all_stimAuditory/224.wav	NA	PRESENT	0.4771411418914795	452.59732699394226	454.6011199951172	455.417793575876	455.7677954832046	458.7150039672851	4.113883972167969	[452.6137800216675, 452.73059916496277, 453.6983289718628, 453.8819751739502, 454.6325809955597, 454.74966311454773, 454.8664171695709, 454.9830811023712, 455.099946975708, 455.2166271209717, 455.33357214927673, 455.4501781463623, 455.56707215309143, 455.68368101119995, 455.80051016807556, 455.9173650741577, 456.03413009643555, 456.1510031223297, 456.267795085907, 456.38458609580994, 456.50127506256104, 456.71500396728516]	[452.6111354707243, 452.72780213738434, 453.71080213738435, 453.87750213738434, 454.62750213738434, 454.74416880404436, 454.8608354707044, 454.9775021373644, 455.09416880402443, 455.21083547068446, 455.3275021373445, 455.4441688040045, 455.56083547066453, 455.67750213732455, 455.7941688039846, 455.9108354706446, 456.0275021373046, 456.14416880396465, 456.26083547062467, 456.3775021372847, 456.4941688039447, 456.72750213727807]	2021_Feb_18_1416	60.005293359409094	1	0.375
32	76	FALSE	NV	a	['G', 'B', 'N', 'C', 'A', 'K', 'T', 'E', 'X', 'U', 'V', 'Y', 'W', 'Z', 'H', 'J']	[944, 760, 1335, 829, 697, 1122, 1888, 904, 4000, 2059, 2245, 2670, 2448, 2911, 986, 1029]	9	Present	NA	NA	PRESENT	0.5224809646606445	458.72068190574646	460.7174069881439	461.41741485591706	461.7674170016642	464.83137011528015	4.1139631271362305	[458.7371361255646, 458.83705615997314, 459.8146960735321, 459.9883990287781, 460.7392580509186, 460.8560380935669, 460.972599029541, 461.0895731449127, 461.2062511444092, 461.3230621814728, 461.43984603881836, 461.5567810535431, 461.67347717285156, 461.7902181148529, 461.906996011734, 462.02390813827515, 462.14054107666016, 462.2575521469116, 462.3741919994354, 462.49093198776245, 462.6078760623932, 462.8313720226288]	[458.72750213727807, 458.8441688039381, 459.8271688039381, 459.9938688039381, 460.7438688039381, 460.8605354705981, 460.97720213725813, 461.09386880391816, 461.2105354705782, 461.3272021372382, 461.4438688038982, 461.56053547055825, 461.6772021372183, 461.7938688038783, 461.9105354705383, 462.02720213719834, 462.14386880385837, 462.2605354705184, 462.3772021371784, 462.49386880383844, 462.61053547049846, 462.8438688038318]	2021_Feb_18_1416	60.005293359409094	1	0.375
32	77	FALSE	NN	a	['R', 'E', 'V', 'A', 'N', 'G', 'P', 'H', 'T', 'B', 'Z', 'S', 'U', 'J', 'W', 'M']	[1587, 904, 2245, 697, 1335, 944, 1456, 986, 1888, 760, 2911, 1731, 2059, 1029, 2448, 1224]	9	Absent	NA	NA	ABSENT	0.26309704780578613	464.8269658088684	466.83368587493896	467.5336939811307	467.8836958884593	470.9477369785309	4.114051103591919	[464.8434190750122, 464.9604241847992, 465.9310631752014, 466.1113951206207, 466.8622930049896, 466.97902512550354, 467.0959641933441, 467.2127981185913, 467.3295781612396, 467.44613909721375, 467.5630741119385, 467.6797790527344, 467.79673314094543, 467.91333508491516, 468.03021717071533, 468.14702701568604, 468.26385712623596, 468.38052010536194, 468.49744415283203, 468.61406111717224, 468.7308900356293, 468.9477391242981]	[464.8438688038318, 464.96053547049183, 465.94353547049184, 466.11023547049183, 466.86023547049183, 466.97690213715185, 467.0935688038119, 467.2102354704719, 467.3269021371319, 467.44356880379195, 467.56023547045197, 467.676902137112, 467.793568803772, 467.91023547043204, 468.02690213709207, 468.1435688037521, 468.2602354704121, 468.37690213707214, 468.49356880373216, 468.6102354703922, 468.7269021370522, 468.96023547038556]	2021_Feb_18_1416	60.005293359409094	1	0.375
32	78	FALSE	NN	a	['Y', 'W', 'C', 'R', 'S', 'E', 'P', 'B', 'M', 'K', 'H', 'T', 'A', 'Z', 'U', 'G']	[2670, 2448, 829, 1587, 1731, 904, 1456, 760, 1224, 1122, 986, 1888, 697, 2911, 2059, 944]	12	Absent	NA	NA	ABSENT	0.5004050731658936	470.95046401023865	472.9501860141754	474.0001938819285	474.3501948355829	477.0641031265259	4.113917112350464	[470.9669191837311, 471.0834469795227, 472.0474271774292, 472.2347049713135, 472.9856741428375, 473.0855300426483, 473.20228004455566, 473.3191180229187, 473.4358320236206, 473.5526809692383, 473.66939997673035, 473.7862169742584, 473.9030420780182, 474.0198230743408, 474.1365339756012, 474.25333619117737, 474.37019300460815, 474.48693013191223, 474.6037931442261, 474.7207040786743, 474.83751606941223, 475.06410217285156]	[470.96023547038556, 471.0769021370456, 472.0599021370456, 472.2266021370456, 472.9766021370456, 473.0932688037056, 473.2099354703656, 473.32660213702565, 473.44326880368567, 473.5599354703457, 473.6766021370057, 473.79326880366574, 473.90993547032576, 474.0266021369858, 474.1432688036458, 474.25993547030583, 474.37660213696586, 474.4932688036259, 474.6099354702859, 474.7266021369459, 474.84326880360595, 475.0766021369393]	2021_Feb_18_1416	60.005293359409094	1	0.375
32	79	FALSE	NA	a	['Z', 'E', 'M', 'N', 'R', 'U', 'P', 'K', 'W', 'C', 'X', 'A', 'T', 'V', 'G', 'J']	[2911, 904, 1224, 1335, 1587, 2059, 1456, 1122, 2448, 829, 4000, 697, 1888, 2245, 944, 1029]	11	Present	NA	NA	PRESENT	0.5369648933410645	477.0568008422851	479.06644201278687	479.9997822602057	480.34978416753427	483.1804699897766	4.114027976989746	[477.07325410842896, 477.1899662017822, 478.16379618644714, 478.34100818634033, 479.09181809425354, 479.20879316329956, 479.32553911209106, 479.4423520565033, 479.55905318260193, 479.67588114738464, 479.79270005226135, 479.9097001552582, 480.0263831615448, 480.1432189941406, 480.25984597206116, 480.3769040107727, 480.49353313446045, 480.61017417907715, 480.7271511554718, 480.8436851501465, 480.96059012413025, 481.1804699897766]	[477.0766021369393, 477.1932688035993, 478.1762688035993, 478.3429688035993, 479.0929688035993, 479.20963547025934, 479.32630213691937, 479.4429688035794, 479.5596354702394, 479.67630213689944, 479.79296880355946, 479.9096354702195, 480.0263021368795, 480.14296880353953, 480.25963547019956, 480.3763021368596, 480.4929688035196, 480.6096354701796, 480.72630213683965, 480.8429688034997, 480.9596354701597, 481.19296880349305]	2021_Feb_18_1416	60.005293359409094	1	0.375
