participant	trial_num	practice	task	condition	RSVP	RAP	probePos	probe_presence	surprise_sound	surprise_img	probe_response	probe_resp_time	first_fixation_time	trial_start_time	surprise_start_time	probe_start_time	trial_end_time	trial_duration	actualEventTimes	plannedEventTimes	date	framerate	marker_vol	RAP_vol
20	1	FALSE	NV	v	['Z', 'J', 'N', 'V', 'B', 'P', 'W', 'E', 'A', 'H', 'T', 'R', 'C', 'X', 'M', 'K']	[2911, 1029, 1335, 2245, 760, 1456, 2448, 904, 697, 986, 1888, 1587, 829, 4000, 1224, 1122]	14	Present	NA	NA	PRESENT	0.2971210479736328	1.9073486328125e-6	2.0050458908081055	3.286102056503296	3.636077880859375	6.1038689613342285	4.098823070526123	[0.005305051803588867, 0.12216496467590332, 1.1063978672027588, 1.2733628749847412, 2.0240769386291504, 2.140856981277466, 2.2575600147247314, 2.3745219707489014, 2.491114854812622, 2.608083963394165, 2.724813938140869, 2.841641902923584, 2.95839786529541, 3.075260877609253, 3.1921260356903076, 3.3087968826293945, 3.4256198406219482, 3.5423619747161865, 3.659256935119629, 3.7758328914642334, 3.8927249908447266, 4.1038689613342285]	[9.5367431640625e-07, 0.11666762034098306, 1.099667620340983, 1.266367620340983, 2.016367620340983, 2.1330342870076495, 2.249700953674316, 2.366367620340983, 2.4830342870076496, 2.5997009536743163, 2.716367620340983, 2.8330342870076497, 2.9497009536743164, 3.066367620340983, 3.18303428700765, 3.2997009536743165, 3.416367620340983, 3.53303428700765, 3.6497009536743166, 3.7663676203409833, 3.88303428700765, 4.116367620340983]	2021_Feb_02_1421	59.9369521539442	1	1
20	2	FALSE	NA	v	['B', 'Y', 'J', 'U', 'S', 'N', 'W', 'X', 'R', 'C', 'A', 'G', 'P', 'M', 'T', 'H']	[760, 2670, 1029, 2059, 1731, 1335, 2448, 4000, 1587, 829, 697, 944, 1456, 1224, 1888, 986]	8	Present	NA	NA	PRESENT	0.2217121124267578	6.10625696182251	8.117761850357056	8.70124101638794	9.051182985305786	12.22023582458496	4.102473974227905	[6.11155891418457, 6.22857403755188, 7.213073015213013, 7.379830837249756, 8.130318880081177, 8.247196912765503, 8.36421799659729, 8.48077392578125, 8.597802877426147, 8.714540958404541, 8.831315994262695, 8.948231935501099, 9.064867973327637, 9.181740045547485, 9.298557043075562, 9.415175914764404, 9.532172918319702, 9.649158954620361, 9.765799045562744, 9.882458925247192, 9.999330997467041, 10.220235824584961]	[6.116367620340983, 6.23303428700765, 7.216034287007649, 7.382734287007649, 8.132734287007649, 8.249400953674316, 8.366067620340983, 8.48273428700765, 8.599400953674317, 8.716067620340985, 8.832734287007652, 8.949400953674319, 9.066067620340986, 9.182734287007653, 9.29940095367432, 9.416067620340987, 9.532734287007655, 9.649400953674322, 9.766067620340989, 9.882734287007656, 9.999400953674323, 10.232734287007656]	2021_Feb_02_1421	59.9369521539442	1	1
20	3	FALSE	NV	v	['S', 'C', 'E', 'U', 'B', 'V', 'T', 'X', 'N', 'G', 'P', 'R', 'M', 'Z', 'Y', 'H']	[1731, 829, 904, 2059, 760, 2245, 1888, 4000, 1335, 944, 1456, 1587, 1224, 2911, 2670, 986]	8	Present	NA	NA	PRESENT	0.2342050075531006	12.22962999343872	14.233816862106323	14.817853927612305	15.16751790046692	18.336602926254272	4.102786064147949	[12.234932899475098, 12.351721048355103, 13.336158990859985, 13.503021955490112, 14.253727912902832, 14.37059998512268, 14.487162828445435, 14.604004859924316, 14.72091293334961, 14.837785959243774, 14.954396963119507, 15.071348905563354, 15.188175916671753, 15.304937839508057, 15.421742916107178, 15.538565874099731, 15.655164003372192, 15.772161960601807, 15.888874053955078, 16.00556492805481, 16.122400045394897, 16.336601972579956]	[12.232734287007656, 12.349400953674323, 13.332400953674323, 13.499100953674324, 14.249100953674324, 14.365767620340991, 14.482434287007658, 14.599100953674325, 14.715767620340992, 14.83243428700766, 14.949100953674327, 15.065767620340994, 15.182434287007661, 15.299100953674328, 15.415767620340995, 15.532434287007662, 15.64910095367433, 15.765767620340997, 15.882434287007664, 15.999100953674331, 16.115767620340996, 16.34910095367433]	2021_Feb_02_1421	59.9369521539442	1	1
20	4	FALSE	AV	v	['P', 'W', 'C', 'N', 'S', 'K', 'B', 'surprise', 'J', 'H', 'X', 'U', 'Y', 'G', 'Z', 'T']	[1456, 2448, 829, 1335, 1731, 1122, 760, 'stimAuditory/all_stimAuditory/118.wav', 1029, 986, 4000, 2059, 2670, 944, 2911, 1888]	11	Present	stimAuditory/all_stimAuditory/118.wav	stimVisual/all_stimVisual/121.jpg	PRESENT	0.27158498764038086	18.35283589363098	20.350443840026855	21.284246921539307	21.634070873260494	24.45296883583069	4.102524995803833	[18.3581600189209, 18.45799684524536, 19.4426908493042, 19.609699010849, 20.376921892166138, 20.476801872253418, 20.59367084503174, 20.71037793159485, 20.827273845672607, 20.943986892700195, 21.060776948928833, 21.177624940872192, 21.294309854507446, 21.411203861236572, 21.52798104286194, 21.644834995269775, 21.761648893356323, 21.87850284576416, 21.995352029800415, 22.112043857574463, 22.229074954986572, 22.45296883583069]	[18.34910095367433, 18.465767620340998, 19.448767620341, 19.615467620340997, 20.365467620340997, 20.482134287007664, 20.59880095367433, 20.715467620341, 20.832134287007666, 20.948800953674333, 21.065467620341, 21.182134287007667, 21.298800953674334, 21.415467620341, 21.53213428700767, 21.648800953674336, 21.765467620341003, 21.88213428700767, 21.998800953674337, 22.115467620341004, 22.23213428700767, 22.465467620341006]	2021_Feb_02_1421	59.9369521539442	1	1
20	5	FALSE	NA	v	['Y', 'J', 'N', 'A', 'V', 'E', 'P', 'M', 'H', 'K', 'X', 'S', 'C', 'U', 'T', 'B']	[2670, 1029, 1335, 697, 2245, 904, 1456, 1224, 986, 1122, 4000, 1731, 829, 2059, 1888, 760]	11	Present	NA	NA	PRESENT	0.2679140567779541	24.459324836730957	26.466804027557373	27.400207042694092	27.750431060791016	30.5693359375	4.102531909942627	[24.464639902114868, 24.581414937973022, 25.56570601463318, 25.732733011245728, 26.48341202735901, 26.600085020065308, 26.717023849487305, 26.83366584777832, 26.950448989868164, 27.0672869682312, 27.18404984474182, 27.300957918167114, 27.41779589653015, 27.534433841705322, 27.651152849197388, 27.768178939819336, 27.884888887405396, 28.00182795524597, 28.118561029434204, 28.23505401611328, 28.352076053619385, 28.5693359375]	[24.465467620341006, 24.582134287007673, 25.565134287007673, 25.731834287007672, 26.481834287007672, 26.59850095367434, 26.715167620341006, 26.831834287007673, 26.94850095367434, 27.065167620341008, 27.181834287007675, 27.298500953674342, 27.41516762034101, 27.531834287007676, 27.648500953674343, 27.76516762034101, 27.881834287007678, 27.998500953674345, 28.115167620341012, 28.23183428700768, 28.348500953674346, 28.58183428700768]	2021_Feb_02_1421	59.9369521539442	1	1
20	6	FALSE	NA	v	['N', 'Y', 'B', 'K', 'R', 'V', 'E', 'S', 'C', 'A', 'H', 'G', 'P', 'X', 'W', 'T']	[1335, 2670, 760, 1122, 1587, 2245, 904, 1731, 829, 697, 986, 944, 1456, 4000, 2448, 1888]	14	Present	NA	NA	PRESENT	0.2652931213378906	30.582885026931763	32.58313298225403	33.86708903312683	34.21675705909729	36.68570399284363	4.1025710105896	[30.588188886642456, 30.704334020614624, 31.68900203704834, 31.85562801361084, 32.6065559387207, 32.72333097457886, 32.84003496170044, 32.95707297325134, 33.073736906051636, 33.19055199623108, 33.307289838790894, 33.42406392097473, 33.5408239364624, 33.65779495239258, 33.774598836898804, 33.89126491546631, 34.00801205635071, 34.124955892562866, 34.24173903465271, 34.358388900756836, 34.458544969558716, 34.68570303916931]	[30.58183428700768, 30.698500953674348, 31.681500953674348, 31.848200953674347, 32.59820095367435, 32.71486762034102, 32.831534287007685, 32.94820095367435, 33.06486762034102, 33.181534287007686, 33.29820095367435, 33.41486762034102, 33.53153428700769, 33.648200953674355, 33.76486762034102, 33.88153428700769, 33.998200953674356, 34.11486762034102, 34.23153428700769, 34.34820095367436, 34.464867620341025, 34.69820095367436]	2021_Feb_02_1421	59.9369521539442	1	1
20	7	FALSE	NA	v	['J', 'K', 'E', 'T', 'C', 'B', 'N', 'W', 'V', 'P', 'R', 'A', 'X', 'M', 'H', 'Z']	[1029, 1122, 904, 1888, 829, 760, 1335, 2448, 2245, 1456, 1587, 697, 4000, 1224, 986, 2911]	13	Present	NA	NA	PRESENT	0.2779531478881836	36.68890190124512	38.69939184188843	39.86628699302673	40.21683382987976	42.80206894874573	4.1026771068573	[36.69420599937439, 36.81111001968384, 37.79536199569702, 37.96229791641235, 38.712955951690674, 38.829784870147705, 38.946670055389404, 39.06326198577881, 39.180219888687134, 39.297019958496094, 39.41387486457825, 39.53049683570862, 39.64742588996887, 39.764193058013916, 39.881059885025024, 39.99765706062317, 40.114490032196045, 40.23138689994812, 40.34807085990906, 40.46492791175842, 40.5819878578186, 40.80206894874573]	[36.69820095367436, 36.814867620341026, 37.79786762034102, 37.96456762034102, 38.71456762034102, 38.83123428700769, 38.947900953674356, 39.06456762034102, 39.18123428700769, 39.29790095367436, 39.414567620341025, 39.53123428700769, 39.64790095367436, 39.764567620341026, 39.88123428700769, 39.99790095367436, 40.11456762034103, 40.231234287007695, 40.34790095367436, 40.46456762034103, 40.581234287007696, 40.81456762034103]	2021_Feb_02_1421	59.9369521539442	1	1
20	8	FALSE	NA	v	['N', 'G', 'Z', 'M', 'S', 'C', 'K', 'V', 'U', 'P', 'X', 'A', 'B', 'W', 'Y', 'H']	[1335, 944, 2911, 1224, 1731, 829, 1122, 2245, 2059, 1456, 4000, 697, 760, 2448, 2670, 986]	11	Present	NA	NA	PRESENT	0.2664310932159424	42.81221294403076	44.816118001937866	45.7493360042572	46.099371910095215	48.918437004089355	4.102319002151489	[42.81751489639282, 42.93412804603577, 43.918747901916504, 44.08552289009094, 44.83623290061951, 44.953091859817505, 45.069828033447266, 45.18670988082886, 45.30322885513306, 45.42021989822388, 45.53689789772034, 45.65387582778931, 45.77065396308899, 45.88746500015259, 46.004313945770264, 46.120914936065674, 46.23758792877197, 46.354612827301025, 46.471197843551636, 46.588212966918945, 46.705008029937744, 46.91843605041504]	[42.81456762034103, 42.9312342870077, 43.914234287007694, 44.08093428700769, 44.83093428700769, 44.94760095367436, 45.06426762034103, 45.180934287007695, 45.29760095367436, 45.41426762034103, 45.530934287007696, 45.64760095367436, 45.76426762034103, 45.8809342870077, 45.997600953674365, 46.11426762034103, 46.2309342870077, 46.347600953674366, 46.46426762034103, 46.5809342870077, 46.69760095367437, 46.9309342870077]	2021_Feb_02_1421	59.9369521539442	1	1
20	9	FALSE	NA	v	['B', 'K', 'T', 'P', 'S', 'N', 'V', 'U', 'A', 'X', 'Z', 'J', 'Y', 'W', 'M', 'E']	[760, 1122, 1888, 1456, 1731, 1335, 2245, 2059, 697, 4000, 2911, 1029, 2670, 2448, 1224, 904]	10	Present	NA	NA	PRESENT	0.27161598205566406	48.91851592063904	50.932137966156006	51.74906492233277	52.09906601905823	55.034801959991455	4.102663993835449	[48.923818826675415, 49.040671825408936, 50.024943828582764, 50.19201302528381, 50.95967698097229, 51.05948090553284, 51.176180839538574, 51.29291105270386, 51.40971493721008, 51.52651286125183, 51.643362045288086, 51.76011395454407, 51.87686896324158, 51.993918895721436, 52.11059784889221, 52.22737193107605, 52.34411287307739, 52.4608428478241, 52.57793688774109, 52.69455599784851, 52.81147599220276, 53.034801959991455]	[48.9309342870077, 49.04760095367437, 50.030600953674366, 50.197300953674365, 50.947300953674365, 51.06396762034103, 51.1806342870077, 51.297300953674366, 51.41396762034103, 51.5306342870077, 51.64730095367437, 51.763967620341035, 51.8806342870077, 51.99730095367437, 52.113967620341036, 52.2306342870077, 52.34730095367437, 52.46396762034104, 52.580634287007705, 52.69730095367437, 52.81396762034104, 53.04730095367437]	2021_Feb_02_1421	59.9369521539442	1	1
20	10	FALSE	NA	v	['A', 'R', 'J', 'P', 'W', 'B', 'Y', 'E', 'K', 'S', 'X', 'V', 'C', 'Z', 'N', 'H']	[697, 1587, 1029, 1456, 2448, 760, 2670, 904, 1122, 1731, 4000, 2245, 829, 2911, 1335, 986]	11	Present	NA	NA	PRESENT	0.26824092864990234	55.04185891151428	57.048627853393555	57.982197999954224	58.33243799209595	61.15116906166077	4.102541208267212	[55.04716205596924, 55.163827896118164, 56.14831900596619, 56.31517696380615, 57.06584882736206, 57.18279695510864, 57.29947304725647, 57.41619896888733, 57.53291392326355, 57.64972400665283, 57.766716957092285, 57.883487939834595, 58.0000479221344, 58.11709189414978, 58.233607053756714, 58.35070204734802, 58.46752405166626, 58.584234952926636, 58.70093584060669, 58.817914962768555, 58.934556007385254, 59.15116906166077]	[55.04730095367437, 55.16396762034104, 56.14696762034104, 56.313667620341036, 57.063667620341036, 57.1803342870077, 57.29700095367437, 57.41366762034104, 57.530334287007705, 57.64700095367437, 57.76366762034104, 57.880334287007706, 57.99700095367437, 58.11366762034104, 58.23033428700771, 58.347000953674375, 58.46366762034104, 58.58033428700771, 58.697000953674376, 58.81366762034104, 58.93033428700771, 59.163667620341045]	2021_Feb_02_1421	59.9369521539442	1	1
20	11	FALSE	NA	v	['T', 'M', 'K', 'C', 'G', 'S', 'W', 'U', 'J', 'X', 'A', 'Y', 'E', 'Z', 'B', 'H']	[1888, 1224, 1122, 829, 944, 1731, 2448, 2059, 1029, 4000, 697, 2670, 904, 2911, 760, 986]	10	Present	NA	NA	PRESENT	0.32972192764282227	61.16532897949219	63.16507387161255	63.98183989524841	64.33192086219788	67.26753687858582	4.102463006973267	[61.17063283920288, 61.287067890167236, 62.271421909332275, 62.438251972198486, 63.189061880111694, 63.306041955947876, 63.422552824020386, 63.539527893066406, 63.65626502037048, 63.77311086654663, 63.88990783691406, 64.0065848827362, 64.12329983711243, 64.24023795127869, 64.35679793357849, 64.47370386123657, 64.59051084518433, 64.70738792419434, 64.82402992248535, 64.94106388092041, 65.04107093811035, 65.2675359249115]	[61.163667620341045, 61.28033428700771, 62.26333428700771, 62.43003428700771, 63.18003428700771, 63.296700953674375, 63.41336762034104, 63.53003428700771, 63.646700953674376, 63.76336762034104, 63.88003428700771, 63.99670095367438, 64.11336762034104, 64.2300342870077, 64.34670095367436, 64.46336762034102, 64.58003428700768, 64.69670095367434, 64.813367620341, 64.93003428700766, 65.04670095367432, 65.28003428700765]	2021_Feb_02_1421	59.9369521539442	1	1
20	12	FALSE	NA	v	['K', 'B', 'J', 'Z', 'Y', 'M', 'G', 'E', 'V', 'X', 'W', 'U', 'A', 'T', 'N', 'H']	[1122, 760, 1029, 2911, 2670, 1224, 944, 904, 2245, 4000, 2448, 2059, 697, 1888, 1335, 986]	10	Present	NA	NA	PRESENT	0.23010683059692383	67.27157402038574	69.28135395050049	70.09823489189148	70.4482409954071	73.38390302658081	4.102549076080322	[67.27687692642212, 67.39339900016785, 68.37793588638306, 68.54491186141968, 69.29544401168823, 69.41242504119873, 69.52918696403503, 69.64588499069214, 69.7626838684082, 69.879567861557, 69.9963629245758, 70.113205909729, 70.22997999191284, 70.34661602973938, 70.46338295936584, 70.58056092262268, 70.69695591926575, 70.8139238357544, 70.93069505691528, 71.04747891426086, 71.16430282592773, 71.38390302658081]	[67.28003428700765, 67.39670095367431, 68.37970095367432, 68.54640095367432, 69.29640095367432, 69.41306762034098, 69.52973428700764, 69.6464009536743, 69.76306762034096, 69.87973428700762, 69.99640095367428, 70.11306762034094, 70.2297342870076, 70.34640095367426, 70.46306762034092, 70.57973428700758, 70.69640095367424, 70.8130676203409, 70.92973428700756, 71.04640095367422, 71.16306762034088, 71.39640095367422]	2021_Feb_02_1421	59.9369521539442	1	1
20	13	FALSE	NV	v	['R', 'A', 'K', 'J', 'T', 'W', 'B', 'E', 'N', 'X', 'P', 'H', 'G', 'V', 'Y', 'S']	[1587, 697, 1122, 1029, 1888, 2448, 760, 904, 1335, 4000, 1456, 986, 944, 2245, 2670, 1731]	10	Present	NA	NA	PRESENT	0.29062604904174805	73.39475703239441	75.3976149559021	76.26192498207092	76.5646140575409	79.50026893615723	4.102653980255127	[73.40007305145264, 73.51677083969116, 74.50117301940918, 74.66808104515076, 75.41878890991211, 75.53559994697571, 75.65221786499023, 75.76924395561218, 75.88598394393921, 76.00273203849792, 76.11931991577148, 76.28631901741028, 76.35297989845276, 76.4699318408966, 76.58670687675476, 76.70353984832764, 76.82026505470276, 76.93707990646362, 77.05381989479065, 77.17069888114929, 77.28740000724792, 77.50026893615723]	[73.39640095367422, 73.51306762034088, 74.49606762034088, 74.66276762034089, 75.41276762034089, 75.52943428700755, 75.6461009536742, 75.76276762034087, 75.87943428700753, 75.99610095367419, 76.11276762034085, 76.2294342870075, 76.34610095367417, 76.46276762034083, 76.57943428700749, 76.69610095367415, 76.81276762034081, 76.92943428700747, 77.04610095367413, 77.16276762034079, 77.27943428700745, 77.51276762034078]	2021_Feb_02_1421	59.9369521539442	1	1
20	14	FALSE	AA	v	['U', 'E', 'A', 'R', 'B', 'W', 'K', 'S', 'Y', 'J', 'surprise', 'V', 'M', 'X', 'C', 'G']	[2059, 904, 697, 1587, 760, 2448, 1122, 1731, 2670, 1029, 'stimAuditory/all_stimAuditory/101.wav', 2245, 1224, 4000, 829, 944]	14	Present	stimAuditory/all_stimAuditory/101.wav	stimVisual/all_stimVisual/108.jpg	PRESENT	0.311816930770874	79.50105905532837	81.51411199569702	82.79777002334595	83.1474838256836	85.61663603782654	4.102524042129517	[79.50636196136475, 79.62306094169617, 80.60775184631348, 80.77453303337097, 81.54192090034485, 81.6419608592987, 81.75893187522888, 81.87549591064453, 81.99245405197144, 82.10897994041443, 82.22602891921997, 82.3428168296814, 82.45957493782043, 82.57632899284363, 82.70974397659302, 82.80984282493591, 82.92678499221802, 83.04344201087952, 83.16014194488525, 83.27711200714111, 83.39395904541016, 83.61663603782654]	[79.51276762034078, 79.62943428700744, 80.61243428700745, 80.77913428700745, 81.52913428700745, 81.64580095367411, 81.76246762034077, 81.87913428700743, 81.99580095367409, 82.11246762034075, 82.22913428700741, 82.34580095367407, 82.46246762034073, 82.57913428700739, 82.69580095367405, 82.81246762034071, 82.92913428700737, 83.04580095367403, 83.16246762034069, 83.27913428700735, 83.39580095367401, 83.62913428700735]	2021_Feb_02_1421	59.9369521539442	1	1
20	15	FALSE	NV	v	['P', 'E', 'H', 'R', 'U', 'A', 'G', 'Y', 'C', 'Z', 'X', 'J', 'B', 'T', 'K', 'V']	[1456, 904, 986, 1587, 2059, 697, 944, 2670, 829, 2911, 4000, 1029, 760, 1888, 1122, 2245]	11	Present	NA	NA	PRESENT	0.3245861530303955	85.62434482574463	87.63027882575989	88.56422996520996	88.91398000717163	91.73300290107728	4.102724075317383	[85.62964701652527, 85.74624395370483, 86.73076391220093, 86.89743399620056, 87.64840793609619, 87.76516795158386, 87.88205790519714, 87.99886298179626, 88.11561489105225, 88.23206806182861, 88.34914994239807, 88.46602392196655, 88.58263397216797, 88.69937705993652, 88.8163149356842, 88.93325591087341, 89.05000400543213, 89.16673302650452, 89.28343796730042, 89.40015888214111, 89.51708698272705, 89.73300194740295]	[85.62913428700735, 85.745800953674, 86.72880095367401, 86.89550095367402, 87.64550095367402, 87.76216762034068, 87.87883428700734, 87.995500953674, 88.11216762034066, 88.22883428700732, 88.34550095367398, 88.46216762034064, 88.5788342870073, 88.69550095367396, 88.81216762034062, 88.92883428700728, 89.04550095367394, 89.1621676203406, 89.27883428700726, 89.39550095367392, 89.51216762034058, 89.74550095367391]	2021_Feb_02_1421	59.9369521539442	1	1
20	16	FALSE	NN	v	['E', 'B', 'V', 'J', 'U', 'A', 'S', 'H', 'G', 'P', 'K', 'W', 'Y', 'Z', 'R', 'T']	[904, 760, 2245, 1029, 2059, 697, 1731, 986, 944, 1456, 1122, 2448, 2670, 2911, 1587, 1888]	9	Absent	NA	NA	ABSENT	0.2660079002380371	91.74792695045473	93.74689793586732	94.44706296920776	94.79741191864014	97.84936904907228	4.102471113204956	[91.75323104858398, 91.86967396736145, 92.85379600524902, 93.00395202636719, 93.77162003517151, 93.88843083381653, 94.00512385368347, 94.12206602096558, 94.23870992660522, 94.35560083389282, 94.47230386734009, 94.5892288684845, 94.70596098899841, 94.8227870464325, 94.93936586380005, 95.05624890327454, 95.17293405532837, 95.28983402252197, 95.40659689903259, 95.52329182624817, 95.62343502044678, 95.84936904907227]	[91.74550095367391, 91.86216762034057, 92.84516762034058, 93.01186762034058, 93.76186762034058, 93.87853428700724, 93.9952009536739, 94.11186762034056, 94.22853428700722, 94.34520095367388, 94.46186762034054, 94.5785342870072, 94.69520095367386, 94.81186762034052, 94.92853428700718, 95.04520095367384, 95.1618676203405, 95.27853428700716, 95.39520095367382, 95.51186762034048, 95.62853428700714, 95.86186762034048]	2021_Feb_02_1421	59.9369521539442	1	1
20	17	FALSE	NA	v	['K', 'E', 'Y', 'J', 'G', 'M', 'V', 'W', 'B', 'U', 'H', 'N', 'X', 'T', 'P', 'R']	[1122, 904, 2670, 1029, 944, 1224, 2245, 2448, 760, 2059, 986, 1335, 4000, 1888, 1456, 1587]	13	Present	NA	NA	PRESENT	0.8463048934936523	97.85387587547302	99.86305785179138	101.0304388999939	101.37995886802672	103.96573686599731	4.102679014205933	[97.85917901992798, 97.97600984573364, 98.96046090126038, 99.12727189064026, 99.87805199623108, 99.99486303329468, 100.1117730140686, 100.22836303710938, 100.34541392326355, 100.46209192276001, 100.57876205444336, 100.69561505317688, 100.81223583221436, 100.92918586730957, 101.04599094390869, 101.16275191307068, 101.2796380519867, 101.39634585380554, 101.51316285133362, 101.63019299507141, 101.74671483039856, 101.965735912323]	[97.86186762034048, 97.97853428700714, 98.96153428700714, 99.12823428700715, 99.87823428700715, 99.9949009536738, 100.11156762034047, 100.22823428700713, 100.34490095367379, 100.46156762034045, 100.5782342870071, 100.69490095367377, 100.81156762034043, 100.92823428700709, 101.04490095367375, 101.1615676203404, 101.27823428700707, 101.39490095367373, 101.51156762034039, 101.62823428700705, 101.7449009536737, 101.97823428700704]	2021_Feb_02_1421	59.9369521539442	1	1
20	18	FALSE	NN	v	['B', 'A', 'C', 'R', 'T', 'H', 'N', 'J', 'M', 'E', 'Y', 'S', 'U', 'V', 'P', 'Z']	[760, 697, 829, 1587, 1888, 986, 1335, 1029, 1224, 904, 2670, 1731, 2059, 2245, 1456, 2911]	12	Absent	NA	NA	ABSENT	0.3637659549713135	103.97704100608826	105.97952389717102	107.02971601486206	107.37993884086607	110.08210396766664	4.1025800704956055	[103.98234391212463, 104.09935998916626, 105.08360695838928, 105.25029301643372, 106.00118589401245, 106.1181468963623, 106.23474383354187, 106.35177993774414, 106.46823501586914, 106.58531188964844, 106.70200800895691, 106.81871700286865, 106.93543791770935, 107.05219101905823, 107.16928696632385, 107.28608798980713, 107.40281295776367, 107.51940894126892, 107.63626003265381, 107.7532868385315, 107.86996483802795, 108.08210301399231]	[103.97823428700704, 104.0949009536737, 105.0779009536737, 105.24460095367371, 105.99460095367371, 106.11126762034037, 106.22793428700703, 106.34460095367369, 106.46126762034035, 106.57793428700701, 106.69460095367367, 106.81126762034033, 106.92793428700699, 107.04460095367365, 107.16126762034031, 107.27793428700697, 107.39460095367363, 107.51126762034029, 107.62793428700695, 107.74460095367361, 107.86126762034027, 108.0946009536736]	2021_Feb_02_1421	59.9369521539442	1	1
20	19	FALSE	NA	v	['S', 'G', 'N', 'E', 'H', 'R', 'M', 'J', 'U', 'X', 'A', 'P', 'W', 'K', 'T', 'Z']	[1731, 944, 1335, 904, 986, 1587, 1224, 1029, 2059, 4000, 697, 1456, 2448, 1122, 1888, 2911]	10	Present	NA	NA	PRESENT	0.208298921585083	110.08373403549194	112.09581089019775	112.91290497779846	113.26275086402892	116.19846892356873	4.102658033370972	[110.08903694152832, 110.20581889152527, 111.18992400169373, 111.35683298110962, 112.12494897842407, 112.22443389892578, 112.3413999080658, 112.4582588672638, 112.57475900650024, 112.69156789779663, 112.80855989456177, 112.92518305778503, 113.04203605651855, 113.15881991386414, 113.27565288543701, 113.39250802993774, 113.50918984413147, 113.62594485282898, 113.74266386032104, 113.85963797569275, 113.97627687454224, 114.19846892356873]	[110.0946009536736, 110.21126762034027, 111.19426762034027, 111.36096762034028, 112.11096762034028, 112.22763428700694, 112.3443009536736, 112.46096762034026, 112.57763428700692, 112.69430095367358, 112.81096762034024, 112.9276342870069, 113.04430095367356, 113.16096762034022, 113.27763428700688, 113.39430095367354, 113.5109676203402, 113.62763428700686, 113.74430095367352, 113.86096762034018, 113.97763428700684, 114.21096762034017]	2021_Feb_02_1421	59.9369521539442	1	1
20	20	FALSE	NV	v	['C', 'B', 'P', 'N', 'R', 'Z', 'Y', 'G', 'S', 'U', 'W', 'X', 'H', 'V', 'J', 'M']	[829, 760, 1456, 1335, 1587, 2911, 2670, 944, 1731, 2059, 2448, 4000, 986, 2245, 1029, 1224]	12	Present	NA	NA	PRESENT	0.02868390083312988	116.20665287971497	118.21313095092772	119.2625379562378	119.61244988441469	122.31483697891235	4.101706027984619	[116.21195602416992, 116.32904005050659, 117.31327795982361, 117.48022603988647, 118.23065996170044, 118.34772396087646, 118.46435284614563, 118.5813980102539, 118.69821190834045, 118.81497097015381, 118.93161487579346, 119.0484549999237, 119.16521191596985, 119.28211688995361, 119.39892888069153, 119.5154800415039, 119.63229990005493, 119.74901390075684, 119.86607599258423, 119.98279905319214, 120.09963893890381, 120.31483602523804]	[116.21096762034017, 116.32763428700683, 117.31063428700683, 117.47733428700684, 118.22733428700684, 118.3440009536735, 118.46066762034016, 118.57733428700682, 118.69400095367348, 118.81066762034014, 118.9273342870068, 119.04400095367346, 119.16066762034012, 119.27733428700678, 119.39400095367344, 119.5106676203401, 119.62733428700676, 119.74400095367342, 119.86066762034008, 119.97733428700674, 120.0940009536734, 120.32733428700674]	2021_Feb_02_1421	59.9369521539442	1	1
20	21	FALSE	NN	v	['U', 'E', 'A', 'J', 'V', 'C', 'K', 'Y', 'T', 'N', 'S', 'M', 'P', 'H', 'G', 'R']	[2059, 904, 697, 1029, 2245, 829, 1122, 2670, 1888, 1335, 1731, 1224, 1456, 986, 944, 1587]	11	Absent	NA	NA	ABSENT	0.3060009479522705	122.33034586906432	124.32896900177002	125.26216793060304	125.6125979423523	128.43120193481445	4.102232933044434	[122.3356499671936, 122.45210289955139, 123.4195728302002, 123.58647394180298, 124.35402488708496, 124.4710099697113, 124.58770394325256, 124.70434403419495, 124.82138895988464, 124.93790793418884, 125.0547239780426, 125.17148900032043, 125.28848600387573, 125.40506601333618, 125.50518488883972, 125.63863492012024, 125.73872494697571, 125.8555269241333, 125.97225904464722, 126.08910894393921, 126.2060968875885, 126.43120288848877]	[122.32733428700674, 122.4440009536734, 123.4270009536734, 123.5937009536734, 124.3437009536734, 124.46036762034007, 124.57703428700673, 124.69370095367339, 124.81036762034005, 124.9270342870067, 125.04370095367337, 125.16036762034003, 125.27703428700669, 125.39370095367335, 125.51036762034, 125.62703428700667, 125.74370095367333, 125.86036762033999, 125.97703428700665, 126.0937009536733, 126.21036762033997, 126.4437009536733]	2021_Feb_02_1421	59.9369521539442	1	1
20	22	FALSE	NV	v	['E', 'T', 'S', 'Y', 'V', 'R', 'N', 'A', 'P', 'U', 'K', 'H', 'C', 'X', 'M', 'B']	[904, 1888, 1731, 2670, 2245, 1587, 1335, 697, 1456, 2059, 1122, 986, 829, 4000, 1224, 760]	14	Present	NA	NA	PRESENT	0.20660710334777832	128.4365429878235	130.44502782821655	131.72862792015076	132.0785059928894	134.54756903648376	4.102541208267212	[128.44184589385986, 128.55847001075745, 129.54282689094543, 129.70960903167725, 130.46053194999695, 130.5773389339447, 130.69427800178528, 130.81098103523254, 130.9278860092163, 131.04460382461548, 131.16132402420044, 131.2781789302826, 131.39496088027954, 131.5117359161377, 131.628830909729, 131.7452700138092, 131.86216688156128, 131.97894382476807, 132.09569597244263, 132.2124810218811, 132.32910704612732, 132.54756903648376]	[128.4437009536733, 128.56036762033997, 129.54336762033998, 129.71006762033997, 130.46006762033997, 130.57673428700664, 130.69340095367332, 130.81006762034, 130.92673428700667, 131.04340095367334, 131.16006762034002, 131.2767342870067, 131.39340095367336, 131.51006762034004, 131.6267342870067, 131.7434009536734, 131.86006762034006, 131.97673428700674, 132.0934009536734, 132.21006762034008, 132.32673428700676, 132.56006762034008]	2021_Feb_02_1421	59.9369521539442	1	1
20	23	FALSE	VA	v	['S', 'C', 'K', 'T', 'Z', 'B', 'J', 'H', 'W', 'Y', 'surprise', 'G', 'V', 'X', 'A', 'R']	[1731, 829, 1122, 1888, 2911, 760, 1029, 986, 2448, 2670, 'stimAuditory/all_stimAuditory/119.wav', 944, 2245, 4000, 697, 1587]	14	Present	NA	stimVisual/all_stimVisual/114.jpg	PRESENT	0.4679689407348633	134.55964303016663	136.56152606010437	137.84518003463745	138.19491696357727	140.6639368534088	4.102410793304443	[134.56494784355164, 134.68164896965027, 135.66606497764587, 135.83289790153503, 136.58356595039368, 136.70058798789978, 136.81721901893616, 136.934152841568, 137.05097198486328, 137.16774487495422, 137.28447484970093, 137.40141582489014, 137.518061876297, 137.63475894927979, 137.75155091285706, 137.8684630393982, 137.98509287834167, 138.10213804244995, 138.21886086463928, 138.33555698394775, 138.4356198310852, 138.6639368534088]	[134.56006762034008, 134.67673428700675, 135.65973428700676, 135.82643428700675, 136.57643428700675, 136.69310095367342, 136.8097676203401, 136.92643428700677, 137.04310095367345, 137.15976762034012, 137.2764342870068, 137.39310095367347, 137.50976762034014, 137.62643428700682, 137.7431009536735, 137.85976762034016, 137.97643428700684, 138.0931009536735, 138.2097676203402, 138.32643428700686, 138.44310095367354, 138.67643428700686]	2021_Feb_02_1421	59.9369521539442	1	1
20	24	FALSE	NV	v	['H', 'Z', 'M', 'Y', 'V', 'P', 'A', 'J', 'E', 'K', 'W', 'B', 'X', 'C', 'R', 'N']	[986, 2911, 1224, 2670, 2245, 1456, 697, 1029, 904, 1122, 2448, 760, 4000, 829, 1587, 1335]	13	Present	NA	NA	PRESENT	0.10447001457214355	140.66630792617798	142.67779684066772	143.84474682807922	144.19492101669312	146.7803030014038	4.102506160736084	[140.67161083221436, 140.78808403015137, 141.7729389667511, 141.9392328262329, 142.70694184303284, 142.8069589138031, 142.92367887496948, 143.04057788848877, 143.15726590156555, 143.27420902252197, 143.39103293418884, 143.50775003433228, 143.6246428489685, 143.74136090278625, 143.85803389549255, 143.974956035614, 144.09162998199463, 144.2085440158844, 144.32536697387695, 144.44216084480286, 144.55876994132996, 144.78030395507812]	[140.67643428700686, 140.79310095367353, 141.77610095367353, 141.94280095367353, 142.69280095367353, 142.8094676203402, 142.92613428700687, 143.04280095367355, 143.15946762034022, 143.2761342870069, 143.39280095367357, 143.50946762034025, 143.62613428700692, 143.7428009536736, 143.85946762034027, 143.97613428700694, 144.09280095367362, 144.2094676203403, 144.32613428700697, 144.44280095367364, 144.5594676203403, 144.79280095367363]	2021_Feb_02_1421	59.9369521539442	1	1
20	25	FALSE	NA	v	['G', 'J', 'U', 'R', 'A', 'K', 'Z', 'P', 'V', 'N', 'H', 'B', 'X', 'M', 'T', 'S']	[944, 1029, 2059, 1587, 697, 1122, 2911, 1456, 2245, 1335, 986, 760, 4000, 1224, 1888, 1731]	13	Present	NA	NA	PRESENT	0.27684807777404785	146.78919196128845	148.79422402381897	149.96098589897156	150.3111538887024	152.89666891098022	4.102444887161255	[146.79450798034668, 146.9114170074463, 147.89563989639282, 148.0624659061432, 148.81331586837769, 148.93016600608826, 149.0468430519104, 149.16384387016296, 149.2805519104004, 149.39744782447815, 149.5140929222107, 149.63088583946228, 149.74763083457947, 149.8645269870758, 149.98115992546082, 150.0981960296631, 150.2148299217224, 150.3317849636078, 150.44848895072937, 150.56528091430664, 150.68206882476807, 150.89666891098022]	[146.79280095367363, 146.9094676203403, 147.8924676203403, 148.0591676203403, 148.8091676203403, 148.92583428700698, 149.04250095367365, 149.15916762034033, 149.275834287007, 149.39250095367368, 149.50916762034035, 149.62583428700702, 149.7425009536737, 149.85916762034037, 149.97583428700705, 150.09250095367372, 150.2091676203404, 150.32583428700707, 150.44250095367374, 150.55916762034042, 150.6758342870071, 150.9091676203404]	2021_Feb_02_1421	59.9369521539442	1	1
20	26	FALSE	VV	v	['M', 'H', 'N', 'Z', 'S', 'G', 'E', 'C', 'K', 'U', 'surprise', 'Y', 'V', 'X', 'T', 'A']	[1224, 986, 1335, 2911, 1731, 944, 904, 829, 1122, 2059, 'stimAuditory/all_stimAuditory/214.wav', 2670, 2245, 4000, 1888, 697]	14	Present	NA	stimVisual/all_stimVisual/209.jpg	PRESENT	0.5063769817352295	152.91280794143677	154.91033601760864	156.19422793388367	156.5439350605011	159.01303696632385	4.10270094871521	[152.91811203956604, 153.03437495231628, 154.0021288394928, 154.16918182373047, 154.93646883964539, 155.05330395698547, 155.17008686065674, 155.28680300712585, 155.40370297431946, 155.5037488937378, 155.6204719543457, 155.73730087280273, 155.854150056839, 155.98787188529968, 156.10452389717102, 156.20437502861023, 156.32116603851318, 156.43796396255493, 156.55479884147644, 156.6715588569641, 156.7885558605194, 157.01303601264954]	[152.9091676203404, 153.0258342870071, 154.0088342870071, 154.17553428700708, 154.92553428700708, 155.04220095367376, 155.15886762034043, 155.2755342870071, 155.39220095367378, 155.50886762034045, 155.62553428700713, 155.7422009536738, 155.85886762034048, 155.97553428700715, 156.09220095367382, 156.2088676203405, 156.32553428700717, 156.44220095367385, 156.55886762034052, 156.6755342870072, 156.79220095367387, 157.0255342870072]	2021_Feb_02_1421	59.9369521539442	1	1
20	27	FALSE	NN	v	['K', 'C', 'U', 'M', 'B', 'W', 'V', 'S', 'T', 'Y', 'N', 'R', 'J', 'E', 'A', 'H']	[1122, 829, 2059, 1224, 760, 2448, 2245, 1731, 1888, 2670, 1335, 1587, 1029, 904, 697, 986]	13	Absent	NA	NA	ABSENT	0.15105104446411133	159.0190360546112	161.0268199443817	162.19371104240415	162.54382801055908	165.12940192222595	4.102581977844238	[159.02434086799622, 159.14104890823364, 160.1254529953003, 160.29222202301025, 161.04305982589722, 161.1599040031433, 161.27652883529663, 161.39351296424866, 161.51029896736145, 161.6270809173584, 161.7438359260559, 161.86070203781128, 161.97733783721924, 162.09426498413086, 162.21079993247986, 162.32784485816956, 162.44446206092834, 162.561420917511, 162.67839789390564, 162.79495191574097, 162.91172194480896, 163.12940192222595]	[159.0255342870072, 159.14220095367386, 160.12520095367387, 160.29190095367386, 161.04190095367386, 161.15856762034053, 161.2752342870072, 161.39190095367388, 161.50856762034056, 161.62523428700723, 161.7419009536739, 161.85856762034058, 161.97523428700725, 162.09190095367393, 162.2085676203406, 162.32523428700728, 162.44190095367395, 162.55856762034063, 162.6752342870073, 162.79190095367397, 162.90856762034065, 163.14190095367397]	2021_Feb_02_1421	59.9369521539442	1	1
20	28	FALSE	NV	v	['G', 'U', 'A', 'N', 'P', 'W', 'V', 'H', 'E', 'S', 'X', 'K', 'T', 'R', 'C', 'Z']	[944, 2059, 697, 1335, 1456, 2448, 2245, 986, 904, 1731, 4000, 1122, 1888, 1587, 829, 2911]	11	Present	NA	NA	PRESENT	0.16436314582824707	165.14227986335754	167.14331603050232	168.0768129825592	168.42677783966064	171.24576997756958	4.102453947067261	[165.14759588241577, 165.26420998573303, 166.24872183799744, 166.41554403305054, 167.16616702079773, 167.28304600715637, 167.3997449874878, 167.51674890518188, 167.63327598571777, 167.75012588500977, 167.8670608997345, 167.98377203941345, 168.10071897506714, 168.2173159122467, 168.3341040611267, 168.45087695121765, 168.567626953125, 168.68436002731323, 168.8014030456543, 168.91814184188843, 169.0180380344391, 169.24576902389526]	[165.14190095367397, 165.25856762034064, 166.24156762034065, 166.40826762034064, 167.15826762034064, 167.2749342870073, 167.391600953674, 167.50826762034066, 167.62493428700733, 167.741600953674, 167.85826762034068, 167.97493428700736, 168.09160095367403, 168.2082676203407, 168.32493428700738, 168.44160095367405, 168.55826762034073, 168.6749342870074, 168.79160095367408, 168.90826762034075, 169.02493428700743, 169.25826762034075]	2021_Feb_02_1421	59.9369521539442	1	1
20	29	FALSE	NN	v	['Y', 'C', 'E', 'G', 'R', 'T', 'Z', 'S', 'P', 'J', 'W', 'V', 'H', 'K', 'M', 'B']	[2670, 829, 904, 944, 1587, 1888, 2911, 1731, 1456, 1029, 2448, 2245, 986, 1122, 1224, 760]	11	Absent	NA	NA	ABSENT	0.23254895210266113	171.24861693382263	173.2597508430481	174.19331884384155	174.54323601722717	177.362135887146	4.1023850440979	[171.2539210319519, 171.37074089050293, 172.35521292686462, 172.52187585830688, 173.2728579044342, 173.38946795463562, 173.5064058303833, 173.6230149269104, 173.73975586891174, 173.85676193237305, 173.9734070301056, 174.09032487869263, 174.20719003677368, 174.3240029811859, 174.4405119419098, 174.5574939250946, 174.67399287223816, 174.79100894927979, 174.90767288208008, 175.02458596229553, 175.14140391349792, 175.362135887146]	[171.25826762034075, 171.37493428700742, 172.35793428700742, 172.52463428700742, 173.27463428700742, 173.3913009536741, 173.50796762034076, 173.62463428700744, 173.7413009536741, 173.8579676203408, 173.97463428700746, 174.09130095367414, 174.2079676203408, 174.32463428700748, 174.44130095367416, 174.55796762034083, 174.6746342870075, 174.79130095367418, 174.90796762034086, 175.02463428700753, 175.1413009536742, 175.37463428700752]	2021_Feb_02_1421	59.9369521539442	1	1
20	30	FALSE	NV	v	['K', 'S', 'G', 'R', 'C', 'W', 'T', 'U', 'X', 'P', 'B', 'N', 'Y', 'E', 'M', 'A']	[1122, 1731, 944, 1587, 829, 2448, 1888, 2059, 4000, 1456, 760, 1335, 2670, 904, 1224, 697]	9	Present	NA	NA	PRESENT	0.02929210662841797	177.37186288833618	179.37590384483337	180.07612490653992	180.42659497261047	183.4785029888153	4.102599143981934	[177.37716484069824, 177.49392199516296, 178.4783968925476, 178.6451380252838, 179.3957860469818, 179.51277494430542, 179.62930989265442, 179.74626684188843, 179.86308884620667, 179.9797019958496, 180.09669494628906, 180.21347904205322, 180.33024287223816, 180.44687795639038, 180.56386399269104, 180.68064284324646, 180.7972719669342, 180.91405200958252, 181.03098702430725, 181.1477448940277, 181.26458382606506, 181.4785029888153]	[177.37463428700752, 177.4913009536742, 178.4743009536742, 178.6410009536742, 179.3910009536742, 179.50766762034087, 179.62433428700754, 179.74100095367422, 179.8576676203409, 179.97433428700757, 180.09100095367424, 180.2076676203409, 180.3243342870076, 180.44100095367426, 180.55766762034094, 180.6743342870076, 180.79100095367428, 180.90766762034096, 181.02433428700763, 181.1410009536743, 181.25766762034098, 181.4910009536743]	2021_Feb_02_1421	59.9369521539442	1	1
20	31	FALSE	NA	v	['S', 'C', 'R', 'N', 'P', 'G', 'M', 'A', 'W', 'V', 'E', 'Y', 'X', 'B', 'J', 'T']	[1731, 829, 1587, 1335, 1456, 944, 1224, 697, 2448, 2245, 904, 2670, 4000, 760, 1029, 1888]	13	Present	NA	NA	PRESENT	0.22658014297485352	183.49508905410767	185.49233484268188	186.65908789634705	187.00934886932373	189.59486889839172	4.102534055709839	[183.50039291381836, 183.60028791427612, 184.5846300125122, 184.7516360282898, 185.51903104782104, 185.61906599998474, 185.73576593399048, 185.85260200500488, 185.96944093704224, 186.0861530303955, 186.20303988456726, 186.31972789764404, 186.43654704093933, 186.55358386039734, 186.6701328754425, 186.78701996803284, 186.90367197990417, 187.02073001861572, 187.137305021286, 187.25421690940857, 187.37105798721313, 187.5948679447174]	[183.4910009536743, 183.60766762034098, 184.59066762034098, 184.75736762034097, 185.50736762034097, 185.62403428700765, 185.74070095367432, 185.857367620341, 185.97403428700767, 186.09070095367434, 186.20736762034102, 186.3240342870077, 186.44070095367437, 186.55736762034104, 186.67403428700771, 186.7907009536744, 186.90736762034106, 187.02403428700774, 187.1407009536744, 187.25736762034109, 187.37403428700776, 187.60736762034108]	2021_Feb_02_1421	59.9369521539442	1	1
20	32	FALSE	NA	v	['N', 'Y', 'P', 'E', 'M', 'S', 'K', 'Z', 'C', 'A', 'H', 'V', 'U', 'X', 'G', 'R']	[1335, 2670, 1456, 904, 1224, 1731, 1122, 2911, 829, 697, 986, 2245, 2059, 4000, 944, 1587]	14	Present	NA	NA	PRESENT	0.22318792343139648	189.6015589237213	191.60882902145383	192.8922128677368	193.24214506149292	195.71123695373535	4.102407932281494	[189.6068618297577, 189.72339296340942, 190.70795583724976, 190.87461590766907, 191.62551498413086, 191.74239301681519, 191.85914182662964, 191.97599482536316, 192.0928180217743, 192.20950198173523, 192.32636499404907, 192.44317984580994, 192.55977582931519, 192.67706203460693, 192.79345893859863, 192.91019201278687, 193.02696585655212, 193.1437840461731, 193.26049900054932, 193.3774139881134, 193.4941029548645, 193.71123600006104]	[189.60736762034108, 189.72403428700775, 190.70703428700776, 190.87373428700775, 191.62373428700775, 191.74040095367442, 191.8570676203411, 191.97373428700777, 192.09040095367445, 192.20706762034112, 192.3237342870078, 192.44040095367447, 192.55706762034114, 192.67373428700782, 192.7904009536745, 192.90706762034117, 193.02373428700784, 193.14040095367451, 193.2570676203412, 193.37373428700786, 193.49040095367454, 193.72373428700786]	2021_Feb_02_1421	59.9369521539442	1	1
20	33	FALSE	NN	v	['A', 'P', 'U', 'H', 'T', 'Z', 'J', 'S', 'B', 'N', 'C', 'K', 'M', 'W', 'R', 'E']	[697, 1456, 2059, 986, 1888, 2911, 1029, 1731, 760, 1335, 829, 1122, 1224, 2448, 1587, 904]	11	Absent	NA	NA	ABSENT	0.34027099609375	195.7244520187378	197.7251179218292	198.6585488319397	199.00858902931213	201.82760286331177	4.102484941482544	[195.72975492477417, 195.8467469215393, 196.83123302459717, 196.99797582626343, 197.7487268447876, 197.86555099487305, 197.98220086097717, 198.09900999069214, 198.21596384048462, 198.33280301094055, 198.44948196411133, 198.566241979599, 198.68304586410522, 198.79990005493164, 198.916748046875, 199.03344202041626, 199.15015387535095, 199.2668318748474, 199.383859872818, 199.5004768371582, 199.60055088996887, 199.82760190963745]	[195.72373428700786, 195.84040095367453, 196.82340095367454, 196.99010095367453, 197.74010095367453, 197.8567676203412, 197.97343428700788, 198.09010095367455, 198.20676762034122, 198.3234342870079, 198.44010095367457, 198.55676762034125, 198.67343428700792, 198.7901009536746, 198.90676762034127, 199.02343428700794, 199.14010095367462, 199.2567676203413, 199.37343428700797, 199.49010095367464, 199.60676762034132, 199.84010095367464]	2021_Feb_02_1421	59.9369521539442	1	1
20	34	FALSE	NV	v	['P', 'V', 'Z', 'A', 'W', 'S', 'Y', 'C', 'K', 'X', 'N', 'M', 'J', 'R', 'T', 'B']	[1456, 2245, 2911, 697, 2448, 1731, 2670, 829, 1122, 4000, 1335, 1224, 1029, 1587, 1888, 760]	10	Present	NA	NA	PRESENT	0.23291516304016113	201.83123588562012	203.841246843338	204.6584129333496	205.0083680152893	207.94396901130676	4.10272216796875	[201.83653903007507, 201.95312190055847, 202.9379370212555, 203.10450100898743, 203.85502886772156, 203.97203183174133, 204.08870387077332, 204.20564699172974, 204.3222370147705, 204.43930387496948, 204.55599999427795, 204.6728219985962, 204.78939199447632, 204.90645289421082, 205.02321004867554, 205.13998198509216, 205.25671792030334, 205.3734200000763, 205.49030995368958, 205.60685992240906, 205.72387504577637, 205.94396901130676]	[201.84010095367464, 201.9567676203413, 202.9397676203413, 203.1064676203413, 203.8564676203413, 203.97313428700798, 204.08980095367465, 204.20646762034133, 204.323134287008, 204.43980095367468, 204.55646762034135, 204.67313428700803, 204.7898009536747, 204.90646762034137, 205.02313428700805, 205.13980095367472, 205.2564676203414, 205.37313428700807, 205.48980095367475, 205.60646762034142, 205.7231342870081, 205.9564676203414]	2021_Feb_02_1421	59.9369521539442	1	1
20	35	FALSE	NN	v	['J', 'C', 'N', 'M', 'E', 'U', 'K', 'V', 'Z', 'G', 'W', 'B', 'S', 'P', 'Y', 'H']	[1029, 829, 1335, 1224, 904, 2059, 1122, 2245, 2911, 944, 2448, 760, 1731, 1456, 2670, 986]	12	Absent	NA	NA	ABSENT	0.2458341121673584	207.9543080329895	209.95772886276245	211.00817894935608	211.35793900489807	214.0603358745575	4.102607011795044	[207.95961093902588, 208.0763590335846, 209.06063604354858, 209.2274968624115, 209.9782829284668, 210.09522104263306, 210.21202898025513, 210.32862091064453, 210.44547605514526, 210.56235194206238, 210.67914700508118, 210.79584288597107, 210.91276597976685, 211.02963185310364, 211.14639592170715, 211.26322388648987, 211.3799500465393, 211.4967188835144, 211.6133189201355, 211.73020386695862, 211.84698104858398, 212.0603358745575]	[207.9564676203414, 208.0731342870081, 209.0561342870081, 209.22283428700808, 209.97283428700808, 210.08950095367476, 210.20616762034143, 210.3228342870081, 210.43950095367478, 210.55616762034145, 210.67283428700813, 210.7895009536748, 210.90616762034148, 211.02283428700815, 211.13950095367483, 211.2561676203415, 211.37283428700817, 211.48950095367485, 211.60616762034152, 211.7228342870082, 211.83950095367487, 212.0728342870082]	2021_Feb_02_1421	59.9369521539442	1	1
20	36	FALSE	NA	v	['S', 'K', 'B', 'Z', 'A', 'P', 'N', 'E', 'U', 'H', 'R', 'X', 'G', 'T', 'Y', 'J']	[1731, 1122, 760, 2911, 697, 1456, 1335, 904, 2059, 986, 1587, 4000, 944, 1888, 2670, 1029]	12	Present	NA	NA	PRESENT	0.37087416648864746	214.0608229637146	216.0742609500885	217.1244759559631	217.47495484352112	220.1767029762268	4.102442026138306	[214.06612706184387, 214.18264389038086, 215.16716599464417, 215.3341498374939, 216.10151600837708, 216.2014238834381, 216.31824898719788, 216.43504405021667, 216.55190086364746, 216.66866493225098, 216.78549194335938, 216.90244793891907, 217.01913690567017, 217.135901927948, 217.25262784957886, 217.36957001686096, 217.48628783226013, 217.60302901268005, 217.71979784965515, 217.83674502372742, 217.9535448551178, 218.1767029762268]	[214.0728342870082, 214.18950095367487, 215.17250095367487, 215.33920095367486, 216.08920095367486, 216.20586762034154, 216.3225342870082, 216.43920095367488, 216.55586762034156, 216.67253428700823, 216.7892009536749, 216.90586762034158, 217.02253428700826, 217.13920095367493, 217.2558676203416, 217.37253428700828, 217.48920095367495, 217.60586762034163, 217.7225342870083, 217.83920095367498, 217.95586762034165, 218.18920095367497]	2021_Feb_02_1421	59.9369521539442	1	1
20	37	FALSE	NA	v	['V', 'B', 'Z', 'M', 'R', 'Y', 'A', 'U', 'T', 'H', 'W', 'X', 'J', 'S', 'N', 'P']	[2245, 760, 2911, 1224, 1587, 2670, 697, 2059, 1888, 986, 2448, 4000, 1029, 1731, 1335, 1456]	12	Present	NA	NA	PRESENT	0.15125298500061035	220.18377089500427	222.19042897224423	223.24068093299863	223.5908269882202	226.2930688858032	4.10263991355896	[220.18907403945923, 220.30609583854675, 221.2904908657074, 221.45719289779663, 222.20794701576233, 222.32490587234497, 222.4415318965912, 222.55833196640015, 222.67508697509766, 222.79211497306824, 222.9087369441986, 223.0254988670349, 223.14237093925476, 223.25926089286804, 223.37595987319946, 223.49258089065552, 223.6098759174347, 223.7263400554657, 223.8430678844452, 223.95991396903992, 224.07666492462158, 224.29306983947754]	[220.18920095367497, 220.30586762034164, 221.28886762034165, 221.45556762034164, 222.20556762034164, 222.3222342870083, 222.438900953675, 222.55556762034166, 222.67223428700834, 222.788900953675, 222.90556762034169, 223.02223428700836, 223.13890095367503, 223.2555676203417, 223.37223428700838, 223.48890095367506, 223.60556762034173, 223.7222342870084, 223.83890095367508, 223.95556762034175, 224.07223428700843, 224.30556762034175]	2021_Feb_02_1421	59.9369521539442	1	1
20	38	FALSE	NV	v	['C', 'K', 'Y', 'M', 'J', 'V', 'E', 'S', 'H', 'X', 'U', 'P', 'R', 'G', 'A', 'Z']	[829, 1122, 2670, 1224, 1029, 2245, 904, 1731, 986, 4000, 2059, 1456, 1587, 944, 697, 2911]	10	Present	NA	NA	PRESENT	0.084651947021484375	226.3071370124817	228.30699396133423	229.12404084205627	229.4737558364868	232.40943694114685	4.102442979812622	[226.31243991851807, 226.4291808605194, 227.41359996795654, 227.58051204681396, 228.33117485046387, 228.44788098335266, 228.56468200683594, 228.6814169883728, 228.79852986335754, 228.9152238368988, 229.03204798698425, 229.14861798286438, 229.26537799835205, 229.382248878479, 229.4992139339447, 229.615895986557, 229.73279190063477, 229.8494429588318, 229.9663429260254, 230.0829758644104, 230.1830518245697, 230.40943694114685]	[226.30556762034175, 226.42223428700842, 227.40523428700843, 227.57193428700842, 228.32193428700842, 228.4386009536751, 228.55526762034177, 228.67193428700844, 228.78860095367511, 228.9052676203418, 229.02193428700846, 229.13860095367514, 229.2552676203418, 229.3719342870085, 229.48860095367516, 229.60526762034183, 229.7219342870085, 229.83860095367518, 229.95526762034186, 230.07193428700853, 230.1886009536752, 230.42193428700853]	2021_Feb_02_1421	59.9369521539442	1	1
20	39	FALSE	NN	v	['T', 'U', 'J', 'E', 'R', 'Y', 'Z', 'H', 'N', 'A', 'B', 'C', 'P', 'G', 'V', 'W']	[1888, 2059, 1029, 904, 1587, 2670, 2911, 986, 1335, 697, 760, 829, 1456, 944, 2245, 2448]	9	Absent	NA	NA	ABSENT	0.08127808570861816	232.41342496871948	234.4236090183258	235.12336683273315	235.47400188446045	238.52580404281616	4.1021950244903564	[232.41873002052307, 232.53566098213196, 233.5201599597931, 233.6872639656067, 234.43752002716064, 234.55451202392578, 234.6711459159851, 234.78803396224976, 234.90468883514404, 235.02165293693542, 235.1382749080658, 235.25529193878174, 235.37197303771973, 235.48880696296692, 235.60562300682068, 235.72252488136292, 235.8392310142517, 235.9561369419098, 236.07287693023682, 236.18939995765686, 236.3064398765564, 236.52580404281616]	[232.42193428700853, 232.5386009536752, 233.5216009536752, 233.6883009536752, 234.4383009536752, 234.55496762034187, 234.67163428700854, 234.78830095367522, 234.9049676203419, 235.02163428700857, 235.13830095367524, 235.25496762034192, 235.3716342870086, 235.48830095367526, 235.60496762034194, 235.7216342870086, 235.8383009536753, 235.95496762034196, 236.07163428700864, 236.1883009536753, 236.30496762034198, 236.5383009536753]	2021_Feb_02_1421	59.9369521539442	1	1
20	40	FALSE	NA	v	['Y', 'C', 'Z', 'V', 'R', 'T', 'H', 'J', 'A', 'B', 'K', 'G', 'U', 'X', 'S', 'P']	[2670, 829, 2911, 2245, 1587, 1888, 986, 1029, 697, 760, 1122, 944, 2059, 4000, 1731, 1456]	14	Present	NA	NA	PRESENT	0.2537879943847656	238.5367820262909	240.5396659374237	241.82356190681455	242.17316484451297	244.64216899871823	4.102503061294556	[238.5420858860016, 238.6588740348816, 239.64328289031982, 239.81000304222107, 240.5607249736786, 240.67768096923828, 240.79429984092712, 240.91105890274048, 241.0279939174652, 241.14490604400635, 241.261647939682, 241.37831902503967, 241.49532794952393, 241.6120388507843, 241.72884583473206, 241.84559392929077, 241.96244883537292, 242.07899403572083, 242.19614696502686, 242.3125319480896, 242.42934894561768, 242.64216899871826]	[238.5383009536753, 238.65496762034198, 239.63796762034198, 239.80466762034197, 240.55466762034197, 240.67133428700865, 240.78800095367532, 240.904667620342, 241.02133428700867, 241.13800095367534, 241.25466762034202, 241.3713342870087, 241.48800095367537, 241.60466762034204, 241.72133428700872, 241.8380009536754, 241.95466762034206, 242.07133428700874, 242.1880009536754, 242.3046676203421, 242.42133428700876, 242.65466762034208]	2021_Feb_02_1421	59.9369521539442	1	1
20	41	FALSE	VV	v	['B', 'U', 'A', 'T', 'surprise', 'M', 'V', 'X', 'Y', 'J', 'G', 'Z', 'P', 'C', 'N', 'S']	[760, 2059, 697, 1888, 'stimAuditory/all_stimAuditory/211.wav', 1224, 2245, 4000, 2670, 1029, 944, 2911, 1456, 829, 1335, 1731]	8	Present	NA	stimVisual/all_stimVisual/103.jpg	PRESENT	0.2909238338470459	244.6432938575745	246.65579986572263	247.2402930259705	247.58959102630615	250.7585370540619	4.102737188339233	[244.64859700202942, 244.76523995399475, 245.74968791007996, 245.91646194458008, 246.68388986587524, 246.78396797180176, 246.90097403526306, 247.01776599884033, 247.15124893188477, 247.25119805335999, 247.3679599761963, 247.4849410057068, 247.60158491134644, 247.71855092048645, 247.8352129459381, 247.95227694511414, 248.06881403923035, 248.18552494049072, 248.3024079799652, 248.41912698745728, 248.53593397140503, 248.7585370540619]	[244.65466762034208, 244.77133428700876, 245.75433428700876, 245.92103428700875, 246.67103428700875, 246.78770095367543, 246.9043676203421, 247.02103428700877, 247.13770095367545, 247.25436762034212, 247.3710342870088, 247.48770095367547, 247.60436762034215, 247.72103428700882, 247.8377009536755, 247.95436762034217, 248.07103428700884, 248.18770095367552, 248.3043676203422, 248.42103428700887, 248.53770095367554, 248.77103428700886]	2021_Feb_02_1421	59.9369521539442	1	1
20	42	FALSE	NV	v	['M', 'H', 'N', 'T', 'K', 'P', 'V', 'W', 'S', 'R', 'Z', 'B', 'X', 'G', 'J', 'C']	[1224, 986, 1335, 1888, 1122, 1456, 2245, 2448, 1731, 1587, 2911, 760, 4000, 944, 1029, 829]	13	Present	NA	NA	PRESENT	0.15160489082336426	250.76625299453735	252.7723858356476	253.93939089775083	254.28938603401184	256.874902009964	4.102516174316406	[250.77155590057373, 250.88855600357056, 251.87273788452148, 252.03963685035706, 252.7905240058899, 252.90717697143555, 253.02407383918762, 253.14075183868408, 253.25760793685913, 253.3745539188385, 253.49106287956238, 253.60788798332214, 253.72473788261414, 253.84167504310608, 253.95846700668335, 254.07529282569885, 254.19213604927063, 254.30877685546875, 254.4256889820099, 254.54234886169434, 254.6594638824463, 254.874902009964]	[250.77103428700886, 250.88770095367553, 251.87070095367554, 252.03740095367553, 252.78740095367553, 252.9040676203422, 253.02073428700888, 253.13740095367555, 253.25406762034223, 253.3707342870089, 253.48740095367558, 253.60406762034225, 253.72073428700892, 253.8374009536756, 253.95406762034227, 254.07073428700895, 254.18740095367562, 254.3040676203423, 254.42073428700897, 254.53740095367564, 254.65406762034232, 254.88740095367564]	2021_Feb_02_1421	59.9369521539442	1	1
20	43	FALSE	NA	v	['M', 'T', 'J', 'N', 'U', 'H', 'C', 'A', 'W', 'V', 'B', 'R', 'X', 'G', 'P', 'Z']	[1224, 1888, 1029, 1335, 2059, 986, 829, 697, 2448, 2245, 760, 1587, 4000, 944, 1456, 2911]	13	Present	NA	NA	PRESENT	0.2209200859069824	256.88960099220276	258.8886158466339	260.0559630393982	260.4057400226593	262.9912688732147	4.1026530265808105	[256.89490389823914, 257.011559009552, 257.97915601730347, 258.14609003067017, 258.91386103630066, 259.0304880142212, 259.14710688591003, 259.264111995697, 259.38068985939026, 259.4977798461914, 259.6144788265228, 259.7313630580902, 259.84796595573425, 259.96465396881104, 260.08153200149536, 260.19844102859497, 260.3152060508728, 260.43213987350464, 260.5319359302521, 260.6487100124359, 260.7656719684601, 260.9912688732147]	[256.88740095367564, 257.0040676203423, 257.9870676203423, 258.1537676203423, 258.9037676203423, 259.020434287009, 259.13710095367566, 259.25376762034233, 259.370434287009, 259.4871009536757, 259.60376762034235, 259.720434287009, 259.8371009536757, 259.9537676203424, 260.07043428700905, 260.1871009536757, 260.3037676203424, 260.4204342870091, 260.53710095367575, 260.6537676203424, 260.7704342870091, 261.00376762034244]	2021_Feb_02_1421	59.9369521539442	1	1
20	44	FALSE	NN	v	['V', 'G', 'C', 'Z', 'W', 'K', 'U', 'H', 'B', 'S', 'N', 'M', 'J', 'A', 'E', 'T']	[2245, 944, 829, 2911, 2448, 1122, 2059, 986, 760, 1731, 1335, 1224, 1029, 697, 904, 1888]	12	Absent	NA	NA	NONE	-1	262.99607396125793	265.00517296791077	266.0553150177002	266.40537190437317	269.1243278980255	4.119154930114746	[263.0013768672943, 263.1181809902191, 264.102511882782, 264.2693738937378, 265.02031993865967, 265.1370449066162, 265.25361585617065, 265.3706169128418, 265.48723793029785, 265.60396790504456, 265.72097086906433, 265.83778500556946, 265.9545588493347, 266.0713460445404, 266.18811297416687, 266.30499505996704, 266.4218249320984, 266.53840589523315, 266.65525698661804, 266.77218985557556, 266.8887858390808, 267.10763597488403]	[263.00376762034244, 263.1204342870091, 264.1034342870091, 264.2701342870091, 265.0201342870091, 265.1368009536758, 265.25346762034246, 265.37013428700914, 265.4868009536758, 265.6034676203425, 265.72013428700916, 265.83680095367583, 265.9534676203425, 266.0701342870092, 266.18680095367586, 266.30346762034253, 266.4201342870092, 266.5368009536759, 266.65346762034255, 266.7701342870092, 266.8868009536759, 267.12013428700925]	2021_Feb_02_1421	59.9369521539442	1	1
20	45	FALSE	NA	v	['A', 'T', 'Y', 'N', 'H', 'Z', 'C', 'G', 'K', 'M', 'X', 'W', 'R', 'J', 'V', 'U']	[697, 1888, 2670, 1335, 986, 2911, 829, 944, 1122, 1224, 4000, 2448, 1587, 1029, 2245, 2059]	11	Present	NA	NA	ABSENT	1.6390440464019775	269.1357078552246	271.12173795700073	272.05497193336487	272.40510296821594	275.22400283813477	4.102264881134033	[269.1410119533539, 269.2413549423218, 270.22584199905396, 270.3926498889923, 271.1433629989624, 271.2601180076599, 271.3767399787903, 271.49370884895325, 271.6106369495392, 271.7273499965668, 271.84422183036804, 271.9609320163727, 272.07759404182434, 272.19439697265625, 272.31114292144775, 272.42821288108826, 272.5449318885803, 272.6615779399872, 272.7784249782562, 272.8950719833374, 272.99516201019287, 273.22400283813477]	[269.12013428700925, 269.2368009536759, 270.21980095367593, 270.3865009536759, 271.1365009536759, 271.2531676203426, 271.36983428700927, 271.48650095367594, 271.6031676203426, 271.7198342870093, 271.83650095367597, 271.95316762034264, 272.0698342870093, 272.186500953676, 272.30316762034266, 272.41983428700934, 272.536500953676, 272.6531676203427, 272.76983428700936, 272.88650095367603, 273.0031676203427, 273.23650095367606]	2021_Feb_02_1421	59.9369521539442	1	1
20	46	FALSE	NV	v	['Y', 'E', 'H', 'K', 'C', 'S', 'Z', 'U', 'X', 'M', 'A', 'W', 'V', 'P', 'R', 'B']	[2670, 904, 986, 1122, 829, 1731, 2911, 2059, 4000, 1224, 697, 2448, 2245, 1456, 1587, 760]	9	Present	NA	NA	PRESENT	0.30719709396362305	275.2255299091339	277.2377550601959	277.9386339187622	278.2879810333252	281.34036898612976	4.102613925933838	[275.23083305358887, 275.3477609157562, 276.33219504356384, 276.49912905693054, 277.26633405685425, 277.3666889667511, 277.483295917511, 277.6002779006958, 277.71678495407104, 277.8338849544525, 277.9505319595337, 278.06729102134705, 278.1842179298401, 278.3009090423584, 278.4178559780121, 278.5345449447632, 278.65132689476013, 278.76820397377014, 278.88496804237366, 279.0016579627991, 279.11859703063965, 279.34036898612976]	[275.23650095367606, 275.35316762034273, 276.33616762034274, 276.5028676203427, 277.2528676203427, 277.3695342870094, 277.4862009536761, 277.60286762034275, 277.7195342870094, 277.8362009536761, 277.9528676203428, 278.06953428700945, 278.1862009536761, 278.3028676203428, 278.41953428700947, 278.53620095367614, 278.6528676203428, 278.7695342870095, 278.88620095367617, 279.00286762034284, 279.1195342870095, 279.35286762034286]	2021_Feb_02_1421	59.9369521539442	1	1
20	47	FALSE	NV	v	['N', 'U', 'H', 'R', 'T', 'K', 'B', 'Z', 'P', 'X', 'C', 'G', 'J', 'W', 'M', 'A']	[1335, 2059, 986, 1587, 1888, 1122, 760, 2911, 1456, 4000, 829, 944, 1029, 2448, 1224, 697]	10	Present	NA	NA	PRESENT	0.10388302803039552	281.3486750125885	283.3540389537811	284.17127990722656	284.52103900909424	287.4567358493805	4.102696895599365	[281.3539779186249, 281.47098088264465, 282.4552969932556, 282.6222469806671, 283.3729739189148, 283.48968386650085, 283.60640692710876, 283.7233998775482, 283.8402099609375, 283.9569339752197, 284.0737500190735, 284.1905150413513, 284.30743288993835, 284.42404985427856, 284.54099798202515, 284.6580820083618, 284.7746238708496, 284.89137601852417, 285.0080029964447, 285.12480998039246, 285.2417058944702, 285.4567358493805]	[281.35286762034286, 281.46953428700954, 282.45253428700954, 282.61923428700953, 283.36923428700953, 283.4859009536762, 283.6025676203429, 283.71923428700956, 283.83590095367623, 283.9525676203429, 284.0692342870096, 284.18590095367625, 284.3025676203429, 284.4192342870096, 284.5359009536763, 284.65256762034295, 284.7692342870096, 284.8859009536763, 285.002567620343, 285.11923428700965, 285.2359009536763, 285.46923428700967]	2021_Feb_02_1421	59.9369521539442	1	1
20	48	FALSE	NN	v	['H', 'S', 'Z', 'N', 'R', 'U', 'Y', 'K', 'A', 'C', 'V', 'T', 'B', 'E', 'P', 'W']	[986, 1731, 2911, 1335, 1587, 2059, 2670, 1122, 697, 829, 2245, 1888, 760, 904, 1456, 2448]	10	Absent	NA	NA	ABSENT	0.18115806579589844	287.47218084335327	289.4706029891968	290.2876069545746	290.6380100250244	293.5731029510498	4.102499961853027	[287.4774839878082, 287.594034910202, 288.5617549419403, 288.72853684425354, 289.49605202674866, 289.613077878952, 289.72964692115784, 289.84633803367615, 289.9632170200348, 290.08014488220215, 290.19692182540894, 290.31379985809326, 290.4306709766388, 290.5471489429474, 290.66398787498474, 290.7641088962555, 290.88083004951477, 290.9976239204407, 291.1144230365753, 291.2312169075012, 291.3481478691101, 291.5731019973755]	[287.46923428700967, 287.58590095367634, 288.56890095367635, 288.73560095367634, 289.48560095367634, 289.602267620343, 289.7189342870097, 289.83560095367636, 289.95226762034304, 290.0689342870097, 290.1856009536764, 290.30226762034306, 290.41893428700973, 290.5356009536764, 290.6522676203431, 290.76893428700976, 290.88560095367643, 291.0022676203431, 291.1189342870098, 291.23560095367645, 291.3522676203431, 291.5856009536765]	2021_Feb_02_1421	59.9369521539442	1	1
20	49	FALSE	NV	v	['P', 'K', 'R', 'M', 'Z', 'B', 'Y', 'E', 'X', 'J', 'N', 'W', 'V', 'G', 'A', 'T']	[1456, 1122, 1587, 1224, 2911, 760, 2670, 904, 4000, 1029, 1335, 2448, 2245, 944, 697, 1888]	9	Present	NA	NA	PRESENT	0.09778714179992676	293.5785150527954	295.5869619846344	296.2870440483093	296.63738894462585	299.6894688606262	4.102506875991821	[293.58382987976074, 293.70065999031067, 294.6853070259094, 294.85169982910156, 295.60257482528687, 295.7195899486542, 295.8360788822174, 295.9531350135803, 296.0697338581085, 296.18648290634155, 296.3033950328827, 296.4200088977814, 296.5370628833771, 296.6537220478058, 296.77053785324097, 296.8874568939209, 297.0041208267212, 297.12103295326233, 297.2378029823303, 297.35471391677856, 297.47134804725647, 297.6894688606262]	[293.5856009536765, 293.70226762034315, 294.68526762034315, 294.85196762034315, 295.60196762034315, 295.7186342870098, 295.8353009536765, 295.95196762034317, 296.06863428700984, 296.1853009536765, 296.3019676203432, 296.41863428700987, 296.53530095367654, 296.6519676203432, 296.7686342870099, 296.88530095367656, 297.00196762034324, 297.1186342870099, 297.2353009536766, 297.35196762034326, 297.46863428700993, 297.7019676203433]	2021_Feb_02_1421	59.9369521539442	1	1
20	50	FALSE	NA	v	['H', 'Z', 'R', 'Y', 'T', 'B', 'A', 'C', 'M', 'X', 'U', 'G', 'W', 'N', 'E', 'K']	[986, 2911, 1587, 2670, 1888, 760, 697, 829, 1224, 4000, 2059, 944, 2448, 1335, 904, 1122]	10	Present	NA	NA	PRESENT	0.25507283210754395	299.70180892944336	301.7032558917999	302.5201449394226	302.8700339794159	305.80583596229553	4.1025800704956055	[299.70711398124695, 299.82379388809204, 300.8080949783325, 300.9749529361725, 301.72588086128235, 301.8425328731537, 301.95927906036377, 302.0762228965759, 302.19301891326904, 302.30982089042664, 302.4267158508301, 302.5431900024414, 302.6602358818054, 302.7769160270691, 302.89360785484314, 303.0106780529022, 303.12736988067627, 303.2441279888153, 303.36104702949524, 303.4776289463043, 303.5777368545532, 303.80583691596985]	[299.7019676203433, 299.81863428700996, 300.80163428700996, 300.96833428700995, 301.71833428700995, 301.8350009536766, 301.9516676203433, 302.06833428701, 302.18500095367665, 302.3016676203433, 302.41833428701, 302.5350009536767, 302.65166762034335, 302.76833428701, 302.8850009536767, 303.00166762034337, 303.11833428701004, 303.2350009536767, 303.3516676203434, 303.46833428701007, 303.58500095367674, 303.8183342870101]	2021_Feb_02_1421	59.9369521539442	1	1
20	51	FALSE	NN	v	['G', 'J', 'N', 'V', 'A', 'R', 'Z', 'U', 'K', 'B', 'T', 'P', 'C', 'S', 'E', 'W']	[944, 1029, 1335, 2245, 697, 1587, 2911, 2059, 1122, 760, 1888, 1456, 829, 1731, 904, 2448]	8	Absent	NA	NA	ABSENT	0.21146297454833984	305.80858087539673	307.81990098953247	308.40322184562683	308.75313687324524	311.92220282554626	4.102301836013794	[305.8138840198517, 305.9303638935089, 306.9147560596466, 307.0815620422363, 307.848886013031, 307.94910192489624, 308.0657238960266, 308.18266797065735, 308.29944801330566, 308.4161570072174, 308.53298902511597, 308.6496949195862, 308.7666108608246, 308.8835279941559, 309.0002598762512, 309.11693692207336, 309.2339539527893, 309.35048389434814, 309.46751499176025, 309.58404183387756, 309.70103192329407, 309.92220282554626]	[305.8183342870101, 305.93500095367676, 306.91800095367677, 307.08470095367676, 307.83470095367676, 307.95136762034343, 308.0680342870101, 308.1847009536768, 308.30136762034346, 308.41803428701013, 308.5347009536768, 308.6513676203435, 308.76803428701015, 308.8847009536768, 309.0013676203435, 309.1180342870102, 309.23470095367685, 309.3513676203435, 309.4680342870102, 309.5847009536769, 309.70136762034355, 309.9347009536769]	2021_Feb_02_1421	59.9369521539442	1	1
20	52	FALSE	NV	v	['E', 'S', 'C', 'J', 'K', 'Y', 'N', 'X', 'U', 'H', 'W', 'P', 'G', 'R', 'T', 'B']	[904, 1731, 829, 1029, 1122, 2670, 1335, 4000, 2059, 986, 2448, 1456, 944, 1587, 1888, 760]	8	Present	NA	NA	PRESENT	0.09614205360412598	311.931480884552	313.93602085113525	314.51971888542175	314.86958384513855	318.0385699272156	4.102549076080322	[311.93678402900696, 312.0535879135132, 313.0378329753876, 313.2047469615936, 313.9554648399353, 314.0721609592438, 314.188973903656, 314.3056728839874, 314.4226658344269, 314.5395359992981, 314.6563079357147, 314.77304196357727, 314.88994002342224, 315.00645184516907, 315.12344694137573, 315.24015498161316, 315.3570029735565, 315.4738519191742, 315.59085392951965, 315.7072868347168, 315.8240969181061, 316.0385699272156]	[311.9347009536769, 312.05136762034357, 313.0343676203436, 313.20106762034357, 313.95106762034357, 314.06773428701024, 314.1844009536769, 314.3010676203436, 314.41773428701026, 314.53440095367694, 314.6510676203436, 314.7677342870103, 314.88440095367696, 315.00106762034363, 315.1177342870103, 315.234400953677, 315.35106762034366, 315.46773428701033, 315.584400953677, 315.7010676203437, 315.81773428701035, 316.0510676203437]	2021_Feb_02_1421	59.9369521539442	1	1
20	53	FALSE	NA	v	['J', 'N', 'C', 'B', 'E', 'P', 'W', 'K', 'S', 'T', 'V', 'G', 'Z', 'X', 'Y', 'U']	[1029, 1335, 829, 760, 904, 1456, 2448, 1122, 1731, 1888, 2245, 944, 2911, 4000, 2670, 2059]	14	Present	NA	NA	PRESENT	0.21343088150024417	318.05463790893555	320.05229902267456	321.3371579647064	321.6860990524292	324.154935836792	4.102636814117432	[318.0599398612976, 318.1597909927368, 319.14416694641113, 319.311007976532, 320.078577041626, 320.17866492271423, 320.31219601631165, 320.42883801460266, 320.5289318561554, 320.6457860469818, 320.76250290870667, 320.87929105758667, 320.99613094329834, 321.112930059433, 321.2297248840332, 321.36344504356384, 321.46346783638, 321.5801248550415, 321.69693303108215, 321.81368684768677, 321.9306969642639, 322.1549370288849]	[318.0510676203437, 318.1677342870104, 319.1507342870104, 319.31743428701037, 320.06743428701037, 320.18410095367705, 320.3007676203437, 320.4174342870104, 320.53410095367707, 320.65076762034374, 320.7674342870104, 320.8841009536771, 321.00076762034377, 321.11743428701044, 321.2341009536771, 321.3507676203438, 321.46743428701046, 321.58410095367714, 321.7007676203438, 321.8174342870105, 321.93410095367716, 322.1674342870105]	2021_Feb_02_1421	59.9369521539442	1	1
20	54	FALSE	NA	v	['G', 'M', 'T', 'N', 'R', 'E', 'H', 'X', 'K', 'Y', 'A', 'S', 'W', 'P', 'J', 'B']	[944, 1224, 1888, 1335, 1587, 904, 986, 4000, 1122, 2670, 697, 1731, 2448, 1456, 1029, 760]	8	Present	NA	NA	PRESENT	0.24203109741210935	324.16120195388794	326.16854190826416	326.75245690345764	327.1024079322815	330.271301984787	4.102760076522827	[324.1665048599243, 324.28317499160767, 325.26753997802734, 325.43430185317993, 326.18553590774536, 326.3018820285797, 326.4188349246979, 326.5354058742523, 326.65242290496826, 326.7691378593445, 326.8859848976135, 327.00257396698, 327.1194808483124, 327.23631286621094, 327.35313391685486, 327.46974205970764, 327.58660793304443, 327.7034020423889, 327.8203270435333, 327.9369649887085, 328.0539000034332, 328.2713029384613]	[324.1674342870105, 324.2841009536772, 325.2671009536772, 325.4338009536772, 326.1838009536772, 326.30046762034385, 326.4171342870105, 326.5338009536772, 326.6504676203439, 326.76713428701055, 326.8838009536772, 327.0004676203439, 327.1171342870106, 327.23380095367725, 327.3504676203439, 327.4671342870106, 327.58380095367727, 327.70046762034394, 327.8171342870106, 327.9338009536773, 328.05046762034397, 328.2838009536773]	2021_Feb_02_1421	59.9369521539442	1	1
20	55	FALSE	VA	v	['A', 'V', 'G', 'K', 'N', 'surprise', 'S', 'W', 'X', 'R', 'E', 'P', 'U', 'B', 'M', 'Z']	[697, 2245, 944, 1122, 1335, 'stimAuditory/all_stimAuditory/205.wav', 1731, 2448, 4000, 1587, 904, 1456, 2059, 760, 1224, 2911]	9	Present	NA	stimVisual/all_stimVisual/223.jpg	PRESENT	0.2713899612426758	330.2843918800354	332.28510189056396	332.9854860305786	333.3356008529663	336.3876700401306	4.10256814956665	[330.28969502449036, 330.4064199924469, 331.39066886901855, 331.5575349330902, 332.3082618713379, 332.4251809120178, 332.54179883003235, 332.65869402885437, 332.7752778530121, 332.8922698497772, 333.0091178417206, 333.1259160041809, 333.2425379753113, 333.3595018386841, 333.4762828350067, 333.5930960178375, 333.709725856781, 333.82670187950134, 333.94331884384155, 334.06021904945374, 334.1603238582611, 334.3876688480377]	[330.2838009536773, 330.400467620344, 331.383467620344, 331.550167620344, 332.300167620344, 332.41683428701066, 332.53350095367733, 332.650167620344, 332.7668342870107, 332.88350095367736, 333.00016762034403, 333.1168342870107, 333.2335009536774, 333.35016762034405, 333.4668342870107, 333.5835009536774, 333.7001676203441, 333.81683428701075, 333.9335009536774, 334.0501676203441, 334.1668342870108, 334.4001676203441]	2021_Feb_02_1421	59.9369521539442	1	1
20	56	FALSE	NV	v	['G', 'B', 'H', 'A', 'E', 'U', 'T', 'P', 'C', 'Y', 'W', 'X', 'Z', 'S', 'V', 'J']	[944, 760, 986, 697, 904, 2059, 1888, 1456, 829, 2670, 2448, 4000, 2911, 1731, 2245, 1029]	12	Present	NA	NA	PRESENT	0.2278740406036377	336.3908920288086	338.4015598297119	339.4520308971405	339.8017408847809	342.50403690338135	4.102477073669434	[336.39619493484497, 336.51281690597534, 337.49715995788574, 337.6638569831848, 338.4147388935089, 338.53146386146545, 338.6484339237213, 338.7652518749237, 338.88197088241577, 338.9987540245056, 339.11561393737793, 339.2323868274689, 339.34918189048767, 339.465970993042, 339.58278489112854, 339.6995270252228, 339.8163800239563, 339.933217048645, 340.04987597465515, 340.1666479110718, 340.2835009098053, 340.50403594970703]	[336.4001676203441, 336.5168342870108, 337.4998342870108, 337.6665342870108, 338.4165342870108, 338.53320095367746, 338.64986762034414, 338.7665342870108, 338.8832009536775, 338.99986762034416, 339.11653428701084, 339.2332009536775, 339.3498676203442, 339.46653428701086, 339.58320095367753, 339.6998676203442, 339.8165342870109, 339.93320095367756, 340.04986762034423, 340.1665342870109, 340.2832009536776, 340.5165342870109]	2021_Feb_02_1421	59.9369521539442	1	1
20	57	FALSE	NV	v	['U', 'A', 'G', 'K', 'R', 'J', 'B', 'C', 'T', 'S', 'Y', 'E', 'Z', 'X', 'H', 'M']	[2059, 697, 944, 1122, 1587, 1029, 760, 829, 1888, 1731, 2670, 904, 2911, 4000, 986, 1224]	14	Present	NA	NA	PRESENT	0.2486429214477539	342.51399183273315	344.51776695251465	345.8017249107361	346.15138387680054	348.62040305137634	4.102636098861694	[342.5192949771881, 342.6361198425293, 343.6204090118408, 343.78727984428406, 344.5380280017853, 344.6548810005188, 344.77167105674744, 344.88845205307007, 345.00519585609436, 345.1218888759613, 345.2387478351593, 345.3554630279541, 345.4721128940582, 345.58925700187683, 345.7058880329132, 345.8225028514862, 345.93949699401855, 346.0562059879303, 346.1731159687042, 346.28971099853516, 346.4067208766937, 346.62040400505066]	[342.5165342870109, 342.6332009536776, 343.6162009536776, 343.7829009536776, 344.5329009536776, 344.64956762034427, 344.76623428701095, 344.8829009536776, 344.9995676203443, 345.11623428701097, 345.23290095367764, 345.3495676203443, 345.466234287011, 345.58290095367767, 345.69956762034434, 345.816234287011, 345.9329009536777, 346.04956762034436, 346.16623428701104, 346.2829009536777, 346.3995676203444, 346.63290095367773]	2021_Feb_02_1421	59.9369521539442	1	1
20	58	FALSE	NV	v	['T', 'G', 'K', 'Z', 'C', 'R', 'S', 'W', 'N', 'A', 'H', 'X', 'V', 'M', 'B', 'E']	[1888, 944, 1122, 2911, 829, 1587, 1731, 2448, 1335, 697, 986, 4000, 2245, 1224, 760, 904]	12	Present	NA	NA	PRESENT	0.21370387077331543	348.63693404197693	350.63432693481445	351.68453192710876	352.0343608856201	354.7367699146271	4.102442979812622	[348.6422369480133, 348.7423679828644, 349.7266879081726, 349.89349603652954, 350.66104888916016, 350.7610590457916, 350.87791895866394, 350.99472284317017, 351.11149287223816, 351.22820496559143, 351.3450789451599, 351.4617669582367, 351.5787830352783, 351.695415019989, 351.81213784217834, 351.92898082733154, 352.0458998680115, 352.1627838611603, 352.2795329093933, 352.39617705345154, 352.51319885253906, 352.73676896095276]	[348.63290095367773, 348.7495676203444, 349.7325676203444, 349.8992676203444, 350.6492676203444, 350.7659342870111, 350.88260095367775, 350.9992676203444, 351.1159342870111, 351.2326009536778, 351.34926762034445, 351.4659342870111, 351.5826009536778, 351.6992676203445, 351.81593428701115, 351.9326009536778, 352.0492676203445, 352.16593428701117, 352.28260095367784, 352.3992676203445, 352.5159342870112, 352.74926762034454]	2021_Feb_02_1421	59.9369521539442	1	1
20	59	FALSE	NV	v	['A', 'N', 'R', 'J', 'Z', 'M', 'U', 'B', 'K', 'E', 'S', 'X', 'G', 'Y', 'C', 'W']	[697, 1335, 1587, 1029, 2911, 1224, 2059, 760, 1122, 904, 1731, 4000, 944, 2670, 829, 2448]	12	Present	NA	NA	PRESENT	0.23427104949951172	354.743451833725	356.75059485435486	357.80085492134094	358.15087890625	360.8531358242035	4.102540969848633	[354.74875593185425, 354.8654570579529, 355.8501398563385, 356.01675391197205, 356.76766085624695, 356.8843319416046, 357.00137305259705, 357.11800503730774, 357.234876871109, 357.35160994529724, 357.46836495399475, 357.58505392074585, 357.70201992988586, 357.8187839984894, 357.9355728626251, 358.0524489879608, 358.1689169406891, 358.285856962204, 358.402804851532, 358.5193929672241, 358.6363458633423, 358.8531358242035]	[354.74926762034454, 354.8659342870112, 355.8489342870112, 356.0156342870112, 356.7656342870112, 356.8823009536779, 356.99896762034456, 357.11563428701123, 357.2323009536779, 357.3489676203446, 357.46563428701126, 357.58230095367793, 357.6989676203446, 357.8156342870113, 357.93230095367795, 358.0489676203446, 358.1656342870113, 358.282300953678, 358.39896762034465, 358.5156342870113, 358.632300953678, 358.86563428701135]	2021_Feb_02_1421	59.9369521539442	1	1
20	60	FALSE	NN	v	['R', 'P', 'S', 'A', 'J', 'T', 'U', 'W', 'Y', 'K', 'M', 'G', 'V', 'N', 'B', 'E']	[1587, 1456, 1731, 697, 1029, 1888, 2059, 2448, 2670, 1122, 1224, 944, 2245, 1335, 760, 904]	8	Absent	NA	NA	ABSENT	0.2154839038848877	360.86663699150085	362.86704087257385	363.4508008956909	363.8019089698791	366.9695019721985	4.102461099624634	[360.87194085121155, 360.98888087272644, 361.9731659889221, 362.14008498191833, 362.89080786705017, 363.0075559616089, 363.12433886528015, 363.2412509918213, 363.35808801651, 363.4746530056, 363.59158205986023, 363.70822405815125, 363.82502794265747, 363.94193291664124, 364.05852484703064, 364.1755428314209, 364.2921419143677, 364.40891289711, 364.5257408618927, 364.64254093170166, 364.7428288459778, 364.9695019721985]	[360.86563428701135, 360.982300953678, 361.965300953678, 362.132000953678, 362.882000953678, 362.9986676203447, 363.11533428701136, 363.23200095367804, 363.3486676203447, 363.4653342870114, 363.58200095367806, 363.69866762034474, 363.8153342870114, 363.9320009536781, 364.04866762034476, 364.16533428701143, 364.2820009536781, 364.3986676203448, 364.51533428701146, 364.63200095367813, 364.7486676203448, 364.98200095367815]	2021_Feb_02_1421	59.9369521539442	1	1
20	61	FALSE	NA	v	['S', 'P', 'V', 'E', 'J', 'K', 'C', 'T', 'U', 'H', 'A', 'Y', 'R', 'X', 'B', 'Z']	[1731, 1456, 2245, 904, 1029, 1122, 829, 1888, 2059, 986, 697, 2670, 1587, 4000, 760, 2911]	14	Present	NA	NA	PRESENT	0.14803695678710938	366.97345995903015	368.9833409786224	370.26701498031616	370.61709785461426	373.0858700275421	4.102529048919678	[366.9787640571594, 367.0952088832855, 368.07948994636536, 368.2465808391571, 368.9972360134125, 369.1139359474182, 369.2310359477997, 369.34772992134094, 369.4645929336548, 369.5811839103699, 369.6980650424957, 369.81472992897034, 369.93157601356506, 370.0483229160309, 370.16521286964417, 370.2818739414215, 370.398638010025, 370.51547384262085, 370.632355928421, 370.7490749359131, 370.8659448623657, 371.0858688354492]	[366.98200095367815, 367.0986676203448, 368.08166762034483, 368.2483676203448, 368.9983676203448, 369.1150342870115, 369.23170095367817, 369.34836762034485, 369.4650342870115, 369.5817009536782, 369.69836762034487, 369.81503428701154, 369.9317009536782, 370.0483676203449, 370.16503428701157, 370.28170095367824, 370.3983676203449, 370.5150342870116, 370.63170095367826, 370.74836762034494, 370.8650342870116, 371.09836762034496]	2021_Feb_02_1421	59.9369521539442	1	1
20	62	FALSE	AV	v	['A', 'V', 'G', 'Y', 'B', 'P', 'M', 'K', 'J', 'surprise', 'E', 'S', 'X', 'R', 'N', 'H']	[697, 2245, 944, 2670, 760, 1456, 1224, 1122, 1029, 'stimAuditory/all_stimAuditory/206.wav', 904, 1731, 4000, 1587, 1335, 986]	13	Present	stimAuditory/all_stimAuditory/119.wav	stimVisual/all_stimVisual/105.jpg	PRESENT	0.1366751194000244	373.0964298248291	375.099503993988	376.2667238712311	376.6173498630524	379.2022359371186	4.102731943130493	[373.10173201560974, 373.21855092048645, 374.202880859375, 374.36961102485657, 375.12051701545715, 375.23734998703003, 375.35395789146423, 375.47084283828735, 375.5875759124756, 375.7043628692627, 375.82127499580383, 375.9378569126129, 376.0545599460602, 376.1715278625488, 376.28836703300476, 376.40515184402466, 376.5220558643341, 376.63891792297363, 376.7555549144745, 376.8722379207611, 376.98919796943665, 377.20223689079285]	[373.09836762034496, 373.21503428701163, 374.19803428701164, 374.36473428701163, 375.11473428701163, 375.2314009536783, 375.348067620345, 375.46473428701165, 375.5814009536783, 375.698067620345, 375.8147342870117, 375.93140095367835, 376.048067620345, 376.1647342870117, 376.28140095367837, 376.39806762034505, 376.5147342870117, 376.6314009536784, 376.74806762034507, 376.86473428701174, 376.9814009536784, 377.21473428701177]	2021_Feb_02_1421	59.9369521539442	1	1
20	63	FALSE	NA	v	['E', 'W', 'K', 'G', 'V', 'C', 'T', 'Z', 'P', 'X', 'Y', 'R', 'J', 'U', 'B', 'N']	[904, 2448, 1122, 944, 2245, 829, 1888, 2911, 1456, 4000, 2670, 1587, 1029, 2059, 760, 1335]	10	Present	NA	NA	NONE	-1	379.20263600349426	381.21605587005615	382.0330529212952	382.3828809261322	385.33132004737854	4.115264177322388	[379.20793890953064, 379.3248460292816, 380.30935502052307, 380.4759838581085, 381.2435998916626, 381.3436539173126, 381.46055793762207, 381.57713294029236, 381.6940040588379, 381.8107919692993, 381.92754197120667, 382.0443768501282, 382.161239862442, 382.27790904045105, 382.39484095573425, 382.51143288612366, 382.6284668445587, 382.74518394470215, 382.8620729446411, 382.97886395454407, 383.09549283981323, 383.31860303878784]	[379.21473428701177, 379.33140095367844, 380.31440095367844, 380.48110095367844, 381.23110095367844, 381.3477676203451, 381.4644342870118, 381.58110095367846, 381.69776762034513, 381.8144342870118, 381.9311009536785, 382.04776762034516, 382.16443428701183, 382.2811009536785, 382.3977676203452, 382.51443428701185, 382.6311009536785, 382.7477676203452, 382.8644342870119, 382.98110095367855, 383.0977676203452, 383.3311009536786]	2021_Feb_02_1421	59.9369521539442	1	1
20	64	FALSE	NA	v	['H', 'J', 'C', 'A', 'W', 'S', 'G', 'X', 'V', 'P', 'N', 'Z', 'Y', 'K', 'U', 'T']	[986, 1029, 829, 697, 2448, 1731, 944, 4000, 2245, 1456, 1335, 2911, 2670, 1122, 2059, 1888]	8	Present	NA	NA	PRESENT	0.00263381004333496	385.34262800216675	387.3323030471802	387.9161288738251	388.2666020393371	391.43496894836426	4.102665901184082	[385.3479309082031, 385.4481110572815, 386.4324288368225, 386.5996038913727, 387.3500978946686, 387.46676301956177, 387.58370995521545, 387.70051884651184, 387.8173599243164, 387.93406200408936, 388.05103182792664, 388.16775703430176, 388.2845139503479, 388.4012749195099, 388.5180959701538, 388.6347670555115, 388.7514748573303, 388.8683888912201, 388.9850549697876, 389.1018249988556, 389.21881103515625, 389.4349699020386]	[385.3311009536786, 385.44776762034525, 386.43076762034525, 386.59746762034524, 387.34746762034524, 387.4641342870119, 387.5808009536786, 387.69746762034526, 387.81413428701194, 387.9308009536786, 388.0474676203453, 388.16413428701196, 388.28080095367864, 388.3974676203453, 388.514134287012, 388.63080095367866, 388.74746762034533, 388.864134287012, 388.9808009536787, 389.09746762034536, 389.21413428701203, 389.4474676203454]	2021_Feb_02_1421	59.9369521539442	1	1
20	65	FALSE	NA	v	['G', 'V', 'N', 'H', 'T', 'C', 'S', 'J', 'R', 'X', 'P', 'A', 'B', 'K', 'M', 'E']	[944, 2245, 1335, 986, 1888, 829, 1731, 1029, 1587, 4000, 1456, 697, 760, 1122, 1224, 904]	10	Present	NA	NA	PRESENT	0.07188200950622559	391.4493110179901	393.4488170146942	394.26572585105896	394.61624097824097	397.5513360500336	4.1025190353393555	[391.4546139240265, 391.5713608264923, 392.55570793151855, 392.7223598957062, 393.4732439517975, 393.5901839733124, 393.70672583580017, 393.823734998703, 393.94055795669556, 394.05738592147827, 394.1740210056305, 394.29086899757385, 394.40741086006165, 394.5244858264923, 394.6411929130554, 394.75803899765015, 394.87478399276733, 394.99161982536316, 395.1084270477295, 395.2249779701233, 395.32530403137207, 395.55133605003357]	[391.4474676203454, 391.56413428701205, 392.54713428701206, 392.71383428701205, 393.46383428701205, 393.5805009536787, 393.6971676203454, 393.81383428701207, 393.93050095367875, 394.0471676203454, 394.1638342870121, 394.28050095367877, 394.39716762034544, 394.5138342870121, 394.6305009536788, 394.74716762034546, 394.86383428701214, 394.9805009536788, 395.0971676203455, 395.21383428701216, 395.33050095367884, 395.5638342870122]	2021_Feb_02_1421	59.9369521539442	1	1
20	66	FALSE	NA	v	['B', 'G', 'E', 'C', 'A', 'K', 'M', 'H', 'X', 'S', 'U', 'V', 'J', 'N', 'P', 'T']	[760, 944, 904, 829, 697, 1122, 1224, 986, 4000, 1731, 2059, 2245, 1029, 1335, 1456, 1888]	9	Present	NA	NA	ABSENT	0.5724120140075684	397.55600690841675	399.5653100013733	400.2655749320984	400.6153600215912	403.66770195961	4.102391958236694	[397.56131196022034, 397.6775999069214, 398.6621799468994, 398.8289828300476, 399.57957696914673, 399.69671082496643, 399.81345105171204, 399.9301209449768, 400.0470268726349, 400.16367387771606, 400.28057885169983, 400.3972170352936, 400.51410603523254, 400.63090991973877, 400.74761605262756, 400.8643958568573, 400.9812638759613, 401.09809398651123, 401.2149200439453, 401.33155488967896, 401.4485309123993, 401.66770195961]	[397.5638342870122, 397.68050095367886, 398.66350095367886, 398.83020095367885, 399.58020095367885, 399.69686762034553, 399.8135342870122, 399.9302009536789, 400.04686762034555, 400.1635342870122, 400.2802009536789, 400.3968676203456, 400.51353428701225, 400.6302009536789, 400.7468676203456, 400.86353428701227, 400.98020095367895, 401.0968676203456, 401.2135342870123, 401.33020095367897, 401.44686762034564, 401.680200953679]	2021_Feb_02_1421	59.9369521539442	1	1
20	67	FALSE	NA	v	['Y', 'M', 'C', 'P', 'U', 'W', 'K', 'N', 'X', 'G', 'H', 'J', 'E', 'V', 'A', 'S']	[2670, 1224, 829, 1456, 2059, 2448, 1122, 1335, 4000, 944, 986, 1029, 904, 2245, 697, 1731]	9	Present	NA	NA	NONE	-1	403.67882204055786	405.68149185180664	406.3817570209503	406.7320749759674	409.79060101509094	4.109109163284302	[403.68412494659424, 403.8007688522339, 404.78511595726013, 404.9521939754486, 405.70291900634766, 405.81963205337524, 405.93636989593506, 406.053297996521, 406.1701400279999, 406.2868800163269, 406.40358805656433, 406.52058386802673, 406.63757395744324, 406.75408601760864, 406.87064599990845, 406.9877049922943, 407.10454201698303, 407.2211320400238, 407.3379600048065, 407.45464396476746, 407.5716989040375, 407.7840690612793]	[403.680200953679, 403.79686762034567, 404.77986762034567, 404.94656762034566, 405.69656762034566, 405.81323428701234, 405.929900953679, 406.0465676203457, 406.16323428701236, 406.27990095367903, 406.3965676203457, 406.5132342870124, 406.62990095367905, 406.74656762034573, 406.8632342870124, 406.9799009536791, 407.09656762034575, 407.2132342870124, 407.3299009536791, 407.4465676203458, 407.56323428701245, 407.7965676203458]	2021_Feb_02_1421	59.9369521539442	1	1
20	68	FALSE	VV	v	['J', 'P', 'M', 'S', 'A', 'R', 'T', 'Y', 'surprise', 'Z', 'C', 'X', 'N', 'H', 'G', 'E']	[1029, 1456, 1224, 1731, 697, 1587, 1888, 2670, 'stimAuditory/all_stimAuditory/122.wav', 2911, 829, 4000, 1335, 986, 944, 904]	12	Present	NA	stimVisual/all_stimVisual/250.jpg	PRESENT	0.246204137802124	409.8018560409546	411.7979419231415	412.8483259677887	413.1982419490814	415.90043592453	4.10249400138855	[409.8071599006653, 409.9072358608246, 410.89186787605286, 411.05854296684265, 411.8260419368744, 411.9260869026184, 412.043007850647, 412.15968084335327, 412.27668499946594, 412.393404006958, 412.5102388858795, 412.62701392173767, 412.74381494522095, 412.8605818748474, 412.97742795944214, 413.0941219329834, 413.21099495887756, 413.3276958465576, 413.4445049762726, 413.5612139701843, 413.67816185951233, 413.90043687820435]	[409.7965676203458, 409.9132342870125, 410.8962342870125, 411.06293428701247, 411.81293428701247, 411.92960095367914, 412.0462676203458, 412.1629342870125, 412.27960095367916, 412.39626762034584, 412.5129342870125, 412.6296009536792, 412.74626762034586, 412.86293428701254, 412.9796009536792, 413.0962676203459, 413.21293428701256, 413.32960095367923, 413.4462676203459, 413.5629342870126, 413.67960095367926, 413.9129342870126]	2021_Feb_02_1421	59.9369521539442	1	1
20	69	FALSE	NA	v	['G', 'H', 'N', 'C', 'R', 'Y', 'K', 'W', 'T', 'M', 'X', 'P', 'A', 'B', 'E', 'S']	[944, 986, 1335, 829, 1587, 2670, 1122, 2448, 1888, 1224, 4000, 1456, 697, 760, 904, 1731]	11	Present	NA	NA	PRESENT	0.3386800289154053	415.9086048603058	417.9142589569092	418.84789299964905	419.1979179382324	422.01680302619934	4.102544069290161	[415.91390800476074, 416.0305209159851, 417.015291929245, 417.18190693855286, 417.9325158596039, 418.04952692985535, 418.16607189178467, 418.2830460071564, 418.3998739719391, 418.5165719985962, 418.63346791267395, 418.7500698566437, 418.8668689727783, 418.98361992836, 419.1003408432007, 419.2172999382019, 419.33386301994324, 419.45087599754333, 419.56749987602234, 419.6842908859253, 419.8011100292206, 420.01680302619934]	[415.9129342870126, 416.0296009536793, 417.0126009536793, 417.1793009536793, 417.9293009536793, 418.04596762034595, 418.1626342870126, 418.2793009536793, 418.39596762034597, 418.51263428701265, 418.6293009536793, 418.745967620346, 418.86263428701267, 418.97930095367934, 419.095967620346, 419.2126342870127, 419.32930095367936, 419.44596762034604, 419.5626342870127, 419.6793009536794, 419.79596762034606, 420.0293009536794]	2021_Feb_02_1421	59.9369521539442	1	1
20	70	FALSE	NV	v	['T', 'W', 'G', 'Z', 'V', 'K', 'R', 'A', 'E', 'X', 'M', 'P', 'N', 'S', 'C', 'B']	[1888, 2448, 944, 2911, 2245, 1122, 1587, 697, 904, 4000, 1224, 1456, 1335, 1731, 829, 760]	10	Present	NA	NA	PRESENT	0.1521739959716797	422.03151392936707	424.03073596954346	424.8475139141083	425.19763588905334	428.13316893577576	4.1024329662323	[422.03681802749634, 422.15371894836426, 423.1213119029999, 423.28817105293274, 424.0558090209961, 424.1726620197296, 424.2893888950348, 424.4062418937683, 424.52301597595215, 424.63962388038635, 424.7566409111023, 424.8732759952545, 424.9901418685913, 425.1067898273468, 425.22372698783875, 425.3405749797821, 425.4573538303375, 425.55712890625, 425.67404794692993, 425.79074692726135, 425.9077739715576, 426.13316893577576]	[422.0293009536794, 422.1459676203461, 423.1289676203461, 423.2956676203461, 424.0456676203461, 424.16233428701275, 424.27900095367943, 424.3956676203461, 424.5123342870128, 424.62900095367945, 424.7456676203461, 424.8623342870128, 424.9790009536795, 425.09566762034615, 425.2123342870128, 425.3290009536795, 425.44566762034617, 425.56233428701285, 425.6790009536795, 425.7956676203462, 425.91233428701287, 426.1456676203462]	2021_Feb_02_1421	59.9369521539442	1	1
20	71	FALSE	NA	v	['P', 'M', 'Y', 'J', 'K', 'Z', 'S', 'T', 'X', 'A', 'C', 'R', 'U', 'G', 'H', 'E']	[1456, 1224, 2670, 1029, 1122, 2911, 1731, 1888, 4000, 697, 829, 1587, 2059, 944, 986, 904]	9	Present	NA	NA	PRESENT	0.7407050132751465	428.138475894928	430.1471529006958	430.8471419811249	431.1973040103912	434.2495369911194	4.102384090423584	[428.14377999305725, 428.26014590263367, 429.2446999549866, 429.411484003067, 430.1620659828186, 430.27902388572693, 430.3959279060364, 430.51254892349243, 430.62925004959106, 430.74614787101746, 430.8630838394165, 430.9799129962921, 431.09646582603455, 431.21345686912537, 431.3302278518677, 431.4469199180603, 431.56363797187805, 431.68056082725525, 431.79744005203247, 431.91410398483276, 432.03074193000793, 432.2495369911194]	[428.1456676203462, 428.2623342870129, 429.2453342870129, 429.4120342870129, 430.1620342870129, 430.27870095367956, 430.39536762034624, 430.5120342870129, 430.6287009536796, 430.74536762034626, 430.86203428701293, 430.9787009536796, 431.0953676203463, 431.21203428701295, 431.32870095367963, 431.4453676203463, 431.562034287013, 431.67870095367965, 431.7953676203463, 431.912034287013, 432.0287009536797, 432.262034287013]	2021_Feb_02_1421	59.9369521539442	1	1
20	72	FALSE	NA	v	['V', 'R', 'E', 'Y', 'H', 'K', 'U', 'W', 'A', 'G', 'C', 'X', 'M', 'T', 'Z', 'B']	[2245, 1587, 904, 2670, 986, 1122, 2059, 2448, 697, 944, 829, 4000, 1224, 1888, 2911, 760]	12	Present	NA	NA	PRESENT	0.7300620079040527	434.2613399028778	436.26310086250305	437.3138029575348	437.6635830402374	440.3659019470215	4.102801084518433	[434.26664304733276, 434.3833689689636, 435.367821931839, 435.53450989723206, 436.2852449417114, 436.40223383903503, 436.5190999507904, 436.63593888282776, 436.7525489330292, 436.86942505836487, 436.98612785339355, 437.10310888290405, 437.2197148799896, 437.3366458415985, 437.45329189300537, 437.5701458454132, 437.6872479915619, 437.8037109375, 437.9205319881439, 438.0371718406677, 438.13721799850464, 438.3659019470215]	[434.262034287013, 434.3787009536797, 435.3617009536797, 435.5284009536797, 436.2784009536797, 436.39506762034637, 436.51173428701304, 436.6284009536797, 436.7450676203464, 436.86173428701306, 436.97840095367974, 437.0950676203464, 437.2117342870131, 437.32840095367976, 437.44506762034644, 437.5617342870131, 437.6784009536798, 437.79506762034646, 437.91173428701313, 438.0284009536798, 438.1450676203465, 438.37840095367983]	2021_Feb_02_1421	59.9369521539442	1	1
20	73	FALSE	AV	v	['B', 'W', 'E', 'R', 'M', 'C', 'surprise', 'T', 'H', 'X', 'A', 'U', 'V', 'S', 'G', 'N']	[760, 2448, 904, 1587, 1224, 829, 'stimAuditory/all_stimAuditory/224.wav', 1888, 986, 4000, 697, 2059, 2245, 1731, 944, 1335]	10	Present	stimAuditory/all_stimAuditory/214.wav	stimVisual/all_stimVisual/111.jpg	PRESENT	0.22247886657714844	440.3678069114685	442.3796570301056	443.1968688964844	443.5471060276031	446.4822690486908	4.102612018585205	[440.37311005592346, 440.48975896835327, 441.47432589530945, 441.64118003845215, 442.40859389305115, 442.5087568759918, 442.6255738735199, 442.7422058582306, 442.8591549396515, 442.9759638309479, 443.09255599975586, 443.20948100090027, 443.3263030052185, 443.4429838657379, 443.5598440170288, 443.676540851593, 443.7934379577637, 443.9101538658142, 444.0267798900604, 444.1437919139862, 444.2604339122772, 444.4822700023651]	[440.37840095367983, 440.4950676203465, 441.4780676203465, 441.6447676203465, 442.3947676203465, 442.5114342870132, 442.62810095367985, 442.7447676203465, 442.8614342870132, 442.97810095367987, 443.09476762034654, 443.2114342870132, 443.3281009536799, 443.44476762034657, 443.56143428701324, 443.6781009536799, 443.7947676203466, 443.91143428701326, 444.02810095367994, 444.1447676203466, 444.2614342870133, 444.49476762034664]	2021_Feb_02_1421	59.9369521539442	1	1
20	74	FALSE	NN	v	['Y', 'H', 'V', 'T', 'R', 'W', 'E', 'B', 'K', 'P', 'J', 'Z', 'N', 'M', 'G', 'C']	[2670, 986, 2245, 1888, 1587, 2448, 904, 760, 1122, 1456, 1029, 2911, 1335, 1224, 944, 829]	11	Absent	NA	NA	ABSENT	0.24295783042907715	446.4910979270935	448.4962010383606	449.4296238422394	449.77985882759094	452.59863686561584	4.102435827255249	[446.4964008331299, 446.6129319667816, 447.59781289100647, 447.7641999721527, 448.5150828361511, 448.63183999061584, 448.74873399734497, 448.86541986465454, 448.98231387138367, 449.09897899627686, 449.2159550189972, 449.3326048851013, 449.4492738246918, 449.56620693206787, 449.68313002586365, 449.799772977829, 449.916620016098, 450.033478975296, 450.15024399757385, 450.2667648792267, 450.38365602493286, 450.5986359119415]	[446.49476762034664, 446.6114342870133, 447.5944342870133, 447.7611342870133, 448.5111342870133, 448.62780095368, 448.74446762034665, 448.86113428701333, 448.97780095368, 449.0944676203467, 449.21113428701335, 449.32780095368, 449.4444676203467, 449.5611342870134, 449.67780095368005, 449.7944676203467, 449.9111342870134, 450.02780095368007, 450.14446762034675, 450.2611342870134, 450.3778009536801, 450.61113428701344]	2021_Feb_02_1421	59.9369521539442	1	1
20	75	FALSE	NN	v	['S', 'R', 'C', 'N', 'Y', 'H', 'K', 'E', 'A', 'P', 'B', 'J', 'M', 'W', 'Z', 'T']	[1731, 1587, 829, 1335, 2670, 986, 1122, 904, 697, 1456, 760, 1029, 1224, 2448, 2911, 1888]	9	Absent	NA	NA	ABSENT	0.23225998878479004	452.614294052124	454.6124370098114	455.3127429485321	455.66291189193726	458.7150039672851	4.102566957473755	[452.6195979118347, 452.7362358570099, 453.70388102531433, 453.8705759048462, 454.6382918357849, 454.7549178600311, 454.87171483039856, 454.98862385749817, 455.1054618358612, 455.22228598594666, 455.33918595314026, 455.43900203704834, 455.55573892593384, 455.6725468635559, 455.78934502601624, 455.906152009964, 456.02287697792053, 456.13968086242676, 456.25646901130676, 456.3732440471649, 456.4902148246765, 456.7150020599365]	[452.61113428701344, 452.7278009536801, 453.7108009536801, 453.8775009536801, 454.6275009536801, 454.7441676203468, 454.86083428701346, 454.97750095368013, 455.0941676203468, 455.2108342870135, 455.32750095368016, 455.44416762034683, 455.5608342870135, 455.6775009536802, 455.79416762034685, 455.91083428701353, 456.0275009536802, 456.1441676203469, 456.26083428701355, 456.3775009536802, 456.4941676203469, 456.72750095368025]	2021_Feb_02_1421	59.9369521539442	1	1
20	76	FALSE	NV	v	['K', 'M', 'N', 'P', 'W', 'C', 'S', 'X', 'U', 'A', 'Y', 'E', 'H', 'G', 'T', 'Z']	[1122, 1224, 1335, 1456, 2448, 829, 1731, 4000, 2059, 697, 2670, 904, 986, 944, 1888, 2911]	8	Present	NA	NA	PRESENT	0.24493002891540527	458.7209188938141	460.7287378311157	461.3125629425049	461.6623549461365	464.83136892318726	4.102631092071533	[458.72622299194336, 458.8425450325012, 459.8269670009613, 459.99404883384705, 460.7445719242096, 460.86143589019775, 460.97833704948425, 461.09515595436096, 461.2119770050049, 461.32875394821167, 461.4453229904175, 461.56230783462524, 461.67922496795654, 461.79598903656006, 461.91277289390564, 462.0296058654785, 462.14627289772034, 462.2631130218506, 462.37987089157104, 462.4966549873352, 462.6133589744568, 462.8313698768616]	[458.72750095368025, 458.8441676203469, 459.8271676203469, 459.9938676203469, 460.7438676203469, 460.8605342870136, 460.97720095368027, 461.09386762034694, 461.2105342870136, 461.3272009536803, 461.44386762034696, 461.56053428701364, 461.6772009536803, 461.793867620347, 461.91053428701366, 462.02720095368034, 462.143867620347, 462.2605342870137, 462.37720095368036, 462.49386762034703, 462.6105342870137, 462.84386762034705]	2021_Feb_02_1421	59.9369521539442	1	1
20	77	FALSE	AA	v	['K', 'N', 'A', 'H', 'M', 'S', 'W', 'T', 'surprise', 'R', 'V', 'X', 'J', 'Z', 'U', 'B']	[1122, 1335, 697, 986, 1224, 1731, 2448, 1888, 'stimAuditory/all_stimAuditory/209.wav', 1587, 2245, 4000, 1029, 2911, 2059, 760]	12	Present	stimAuditory/all_stimAuditory/211.wav	stimVisual/all_stimVisual/206.jpg	PRESENT	0.04238510131835937	464.84370398521423	466.84531593322754	467.8954689502716	468.245463848114	470.9477369785309	4.102421045303345	[464.8490078449249, 464.96599793434143, 465.9503960609436, 466.117164850235, 466.8678379058838, 466.9846730232239, 467.1013309955597, 467.21835589408875, 467.3350110054016, 467.45196890830994, 467.56881499290466, 467.68530082702637, 467.80229902267456, 467.91902899742126, 468.0358500480652, 468.1527829170227, 468.2694809436798, 468.38621497154236, 468.503084897995, 468.61995697021484, 468.7196910381317, 468.94773602485657]	[464.84386762034705, 464.96053428701373, 465.94353428701373, 466.1102342870137, 466.8602342870137, 466.9769009536804, 467.0935676203471, 467.21023428701375, 467.3269009536804, 467.4435676203471, 467.56023428701377, 467.67690095368044, 467.7935676203471, 467.9102342870138, 468.02690095368047, 468.14356762034714, 468.2602342870138, 468.3769009536805, 468.49356762034716, 468.61023428701384, 468.7269009536805, 468.96023428701386]	2021_Feb_02_1421	59.9369521539442	1	1
20	78	FALSE	NV	v	['R', 'K', 'G', 'S', 'W', 'M', 'C', 'A', 'N', 'X', 'T', 'Z', 'U', 'E', 'J', 'P']	[1587, 1122, 944, 1731, 2448, 1224, 829, 697, 1335, 4000, 1888, 2911, 2059, 904, 1029, 1456]	10	Present	NA	NA	ABSENT	0.6707301139831543	470.95023798942566	472.9615490436554	473.77846598625183	474.12837195396423	477.0641028881073	4.102553844451904	[470.95554184913635, 471.0723738670349, 472.05693793296814, 472.2237010002136, 472.97417283058167, 473.09105682373047, 473.20795488357544, 473.32471990585327, 473.44163393974304, 473.5582718849182, 473.67524695396423, 473.791916847229, 473.90884804725647, 474.0254180431366, 474.142333984375, 474.25918197631836, 474.3759639263153, 474.49259996414185, 474.6094410419464, 474.726331949234, 474.84305000305176, 475.0641028881073]	[470.96023428701386, 471.07690095368054, 472.05990095368054, 472.22660095368053, 472.97660095368053, 473.0932676203472, 473.2099342870139, 473.32660095368055, 473.4432676203472, 473.5599342870139, 473.6766009536806, 473.79326762034725, 473.9099342870139, 474.0266009536806, 474.1432676203473, 474.25993428701395, 474.3766009536806, 474.4932676203473, 474.60993428701397, 474.72660095368065, 474.8432676203473, 475.07660095368067]	2021_Feb_02_1421	59.9369521539442	1	1
20	79	FALSE	NN	v	['T', 'B', 'M', 'A', 'W', 'N', 'C', 'Y', 'Z', 'K', 'P', 'H', 'J', 'E', 'G', 'V']	[1888, 760, 1224, 697, 2448, 1335, 829, 2670, 2911, 1122, 1456, 986, 1029, 904, 944, 2245]	13	Absent	NA	NA	ABSENT	0.3473379611968994	477.07345485687256	479.0780029296875	480.2450048923493	480.5948040485382	483.1804690361023	4.102466106414795	[477.0787580013275, 477.1956160068512, 478.18095088005066, 478.34667897224426, 479.0978629589081, 479.21434903144836, 479.3309679031372, 479.4479959011078, 479.56476402282715, 479.68149995803833, 479.7982039451599, 479.9151530265808, 480.0318739414215, 480.1485848426819, 480.2655680179596, 480.3822078704834, 480.49915385246277, 480.6159348487854, 480.73258805274963, 480.8492329120636, 480.96619486808777, 481.1804678440094]	[477.07660095368067, 477.19326762034734, 478.17626762034735, 478.34296762034734, 479.09296762034734, 479.209634287014, 479.3263009536807, 479.44296762034736, 479.55963428701403, 479.6763009536807, 479.7929676203474, 479.90963428701406, 480.02630095368073, 480.1429676203474, 480.2596342870141, 480.37630095368075, 480.49296762034743, 480.6096342870141, 480.7263009536808, 480.84296762034745, 480.9596342870141, 481.1929676203475]	2021_Feb_02_1421	59.9369521539442	1	1
