participant	trial_num	practice	task	condition	RSVP	RAP	probePos	probe_presence	surprise_sound	surprise_img	probe_response	probe_resp_time	first_fixation_time	trial_start_time	surprise_start_time	probe_start_time	trial_end_time	trial_duration	actualEventTimes	plannedEventTimes	date	framerate	marker_vol	RAP_vol
20	1	FALSE	NA	a	['C', 'H', 'K', 'Y', 'N', 'U', 'W', 'X', 'A', 'V', 'M', 'S', 'B', 'J', 'T', 'Z']	[829, 986, 1122, 2670, 1335, 2059, 2448, 4000, 697, 2245, 1224, 1731, 760, 1029, 1888, 2911]	8	Present	NA	NA	PRESENT	0.38690900802612305	4.0531158447265625e-6	1.9971258640289309	2.5804682572349367	2.9304704029821487	6.1038689613342285	4.106743097305298	[0.012564897537231445, 0.11240696907043457, 1.0871899127960205, 1.2636299133300781, 2.014211893081665, 2.131197929382324, 2.2480130195617676, 2.364788055419922, 2.481580972671509, 2.5984079837799072, 2.7152178287506104, 2.831805944442749, 2.9488329887390137, 3.065647840499878, 3.182481050491333, 3.2990849018096924, 3.415860891342163, 3.532810926437378, 3.649423837661743, 3.7661328315734863, 3.882920026779175, 4.1038689613342285]	[9.5367431640625e-07, 0.11666762033431641, 1.0996676203343163, 1.2663676203343164, 2.016367620334316, 2.133034286994316, 2.249700953654316, 2.3663676203143162, 2.4830342869743163, 2.5997009536343163, 2.7163676202943163, 2.8330342869543164, 2.9497009536143164, 3.0663676202743164, 3.1830342869343164, 3.2997009535943165, 3.4163676202543165, 3.5330342869143165, 3.6497009535743166, 3.7663676202343166, 3.8830342868943166, 4.11636762022765]	2021_Feb_02_1359	59.941234980049614	1	0.375
20	2	FALSE	NA	a	['K', 'P', 'C', 'B', 'Z', 'G', 'E', 'J', 'X', 'T', 'Y', 'A', 'M', 'R', 'W', 'V']	[1122, 1456, 829, 760, 2911, 944, 904, 1029, 4000, 1888, 2670, 697, 1224, 1587, 2448, 2245]	9	Present	NA	NA	PRESENT	0.3595271110534668	6.106199026107788	8.11021089553833	8.810219001730019	9.160220909058651	12.22023582458496	4.110024929046631	[6.118758916854858, 6.235649824142456, 7.20355486869812, 7.3868818283081055, 8.137537956237793, 8.254308938980103, 8.371248960494995, 8.488023042678833, 8.604835033416748, 8.721581935882568, 8.83846402168274, 8.95507287979126, 9.07174301147461, 9.188604831695557, 9.305524826049805, 9.422245979309082, 9.538986921310425, 9.656227827072144, 9.772703886032104, 9.889384031295776, 10.006330966949463, 10.220235824584961]	[6.11636762022765, 6.23303428688765, 7.216034286887649, 7.382734286887649, 8.132734286887649, 8.24940095354765, 8.36606762020765, 8.48273428686765, 8.59940095352765, 8.716067620187651, 8.832734286847652, 8.949400953507652, 9.066067620167653, 9.182734286827653, 9.299400953487654, 9.416067620147654, 9.532734286807655, 9.649400953467655, 9.766067620127656, 9.882734286787656, 9.999400953447656, 10.232734286780989]	2021_Feb_02_1359	59.941234980049614	1	0.375
20	3	FALSE	NV	a	['K', 'R', 'M', 'T', 'E', 'S', 'A', 'Z', 'P', 'X', 'B', 'H', 'U', 'Y', 'C', 'J']	[1122, 1587, 1224, 1888, 904, 1731, 697, 2911, 1456, 4000, 760, 986, 2059, 2670, 829, 1029]	10	Present	NA	NA	PRESENT	0.30859899520874023	12.229374885559082	14.226896047592165	15.043570582025271	15.393572727772485	18.336601972579956	4.109705924987793	[12.241935968399048, 12.341953039169312, 13.319922924041748, 13.493420839309692, 14.260697841644287, 14.36074686050415, 14.477601051330566, 14.59429383277893, 14.711133003234863, 14.828023910522461, 14.944808959960938, 15.06172800064087, 15.178388833999634, 15.295321941375732, 15.411986827850342, 15.528624057769775, 15.6457200050354, 15.76241683959961, 15.879219055175781, 15.995805025100708, 16.112753868103027, 16.336601972579956]	[12.232734286780989, 12.34940095344099, 13.33240095344099, 13.49910095344099, 14.24910095344099, 14.365767620100991, 14.482434286760991, 14.599100953420992, 14.715767620080992, 14.832434286740993, 14.949100953400993, 15.065767620060994, 15.182434286720994, 15.299100953380995, 15.415767620040995, 15.532434286700996, 15.649100953360996, 15.765767620020997, 15.882434286680997, 15.999100953340998, 16.115767620000998, 16.349100953334332]	2021_Feb_02_1359	59.941234980049614	1	0.375
20	4	FALSE	NV	a	['A', 'J', 'G', 'Z', 'V', 'N', 'T', 'E', 'W', 'Y', 'X', 'M', 'B', 'S', 'R', 'K']	[697, 1029, 944, 2911, 2245, 1335, 1888, 904, 2448, 2670, 4000, 1224, 760, 1731, 1587, 1122]	11	Present	NA	NA	PRESENT	0.25729894638061523	18.33572888374329	20.34290099143982	21.27624219253293	21.62624433828014	24.452970027923584	4.110069036483765	[18.348289012908936, 18.465039014816284, 19.436288833618164, 19.616745948791504, 20.36726403236389, 20.48391103744507, 20.600795030593872, 20.71760892868042, 20.834394931793213, 20.9510600566864, 21.06806492805481, 21.184815883636475, 21.301463842391968, 21.41846489906311, 21.53529405593872, 21.65198802947998, 21.768823862075806, 21.885560035705566, 22.002286911010742, 22.11908984184265, 22.23580503463745, 22.45296883583069]	[18.349100953334332, 18.46576761999433, 19.44876761999433, 19.61546761999433, 20.36546761999433, 20.48213428665433, 20.598800953314328, 20.715467619974326, 20.832134286634325, 20.948800953294324, 21.065467619954322, 21.18213428661432, 21.29880095327432, 21.41546761993432, 21.532134286594317, 21.648800953254316, 21.765467619914315, 21.882134286574313, 21.998800953234312, 22.11546761989431, 22.23213428655431, 22.465467619887644]	2021_Feb_02_1359	59.941234980049614	1	0.375
20	5	FALSE	NN	a	['Y', 'U', 'M', 'T', 'K', 'S', 'A', 'J', 'Z', 'R', 'P', 'G', 'H', 'C', 'E', 'V']	[2670, 2059, 1224, 1888, 1122, 1731, 697, 1029, 2911, 1587, 1456, 944, 986, 829, 904, 2245]	8	Absent	NA	NA	ABSENT	0.28661394119262695	24.45914602279663	26.4595148563385	27.042857249544507	27.39285939529172	30.5693359375	4.109821081161499	[24.4717059135437, 24.588489055633545, 25.552655935287476, 25.73976492881775, 26.490367889404297, 26.590325832366943, 26.70713496208191, 26.823894023895264, 26.94070291519165, 27.05750799179077, 27.174340963363647, 27.291188955307007, 27.407891035079956, 27.524792909622192, 27.64157485961914, 27.758384943008423, 27.875066995620728, 27.991869926452637, 28.108914852142334, 28.225498914718628, 28.34245491027832, 28.5693359375]	[24.465467619887644, 24.582134286547642, 25.565134286547643, 25.73183428654764, 26.48183428654764, 26.59850095320764, 26.71516761986764, 26.831834286527638, 26.948500953187636, 27.065167619847635, 27.181834286507634, 27.298500953167633, 27.41516761982763, 27.53183428648763, 27.64850095314763, 27.765167619807627, 27.881834286467626, 27.998500953127625, 28.115167619787623, 28.231834286447622, 28.34850095310762, 28.581834286440955]	2021_Feb_02_1359	59.941234980049614	1	0.375
20	6	FALSE	AV	a	['G', 'Y', 'W', 'J', 'R', 'C', 'H', 'surprise', 'E', 'Z', 'X', 'N', 'K', 'B', 'A', 'M']	[944, 2670, 2448, 1029, 1587, 829, 986, 'stimAuditory/all_stimAuditory/109.wav', 904, 2911, 4000, 1335, 1122, 760, 697, 1224]	11	Present	stimAuditory/all_stimAuditory/109.wav	NA	ABSENT	0.3390181064605713	30.56580400466919	32.575785875320435	33.509126361157804	33.85912922216076	36.68570303916931	4.109917163848877	[30.578364849090576, 30.69473099708557, 31.66902184486389, 31.846214056015015, 32.596829891204834, 32.713812828063965, 32.830392837524414, 32.94737195968628, 33.064170837402344, 33.18079400062561, 33.2977979183197, 33.414286851882935, 33.531160831451416, 33.64801383018494, 33.764739990234375, 33.88167405128479, 33.998289823532104, 34.1152229309082, 34.2320659160614, 34.348657846450806, 34.46546387672424, 34.68570399284363]	[30.581834286440955, 30.698500953100954, 31.681500953100954, 31.848200953100953, 32.59820095310096, 32.71486761976096, 32.83153428642096, 32.94820095308096, 33.064867619740966, 33.18153428640097, 33.29820095306097, 33.41486761972097, 33.531534286380975, 33.64820095304098, 33.76486761970098, 33.88153428636098, 33.998200953020984, 34.114867619680986, 34.23153428634099, 34.34820095300099, 34.46486761966099, 34.69820095299433]	2021_Feb_02_1359	59.941234980049614	1	0.375
20	7	FALSE	NN	a	['B', 'W', 'Z', 'A', 'C', 'P', 'J', 'M', 'N', 'G', 'Y', 'K', 'H', 'U', 'E', 'V']	[760, 2448, 2911, 697, 829, 1456, 1029, 1224, 1335, 944, 2670, 1122, 986, 2059, 904, 2245]	12	Absent	NA	NA	ABSENT	0.29563307762145996	36.68868899345398	38.69222092628479	39.74222903245648	40.09223093978511	42.80206894874573	4.1098480224609375	[36.70124888420105, 36.81797385215759, 37.78538990020752, 37.96934199333191, 38.72007894515991, 38.836796045303345, 38.95371985435486, 39.07027792930603, 39.18722105026245, 39.30390000343323, 39.42082190513611, 39.53761386871338, 39.65454697608948, 39.7712938785553, 39.88803291320801, 40.00484085083008, 40.121731996536255, 40.238466024398804, 40.35510587692261, 40.47209405899048, 40.58915996551514, 40.80206894874573]	[36.69820095299433, 36.81486761965433, 37.797867619654326, 37.964567619654325, 38.714567619654325, 38.83123428631433, 38.94790095297433, 39.06456761963433, 39.181234286294334, 39.297900952954336, 39.41456761961434, 39.53123428627434, 39.64790095293434, 39.764567619594345, 39.88123428625435, 39.99790095291435, 40.11456761957435, 40.231234286234354, 40.347900952894356, 40.46456761955436, 40.58123428621436, 40.814567619547695]	2021_Feb_02_1359	59.941234980049614	1	0.375
20	8	FALSE	NA	a	['W', 'K', 'J', 'C', 'U', 'P', 'V', 'Z', 'G', 'T', 'Y', 'X', 'H', 'B', 'S', 'E']	[2448, 1122, 1029, 829, 2059, 1456, 2245, 2911, 944, 1888, 2670, 4000, 986, 760, 1731, 904]	12	Present	NA	NA	PRESENT	0.31678295135498047	42.81171488761902	44.80849504470825	45.85850291246136	46.20850505820857	48.91843605041504	4.109941005706787	[42.824275970458984, 42.92442798614502, 43.90175485610962, 44.075636863708496, 44.82643795013428, 44.94342398643494, 45.060160875320435, 45.176997900009155, 45.29371905326843, 45.41040396690369, 45.52737092971802, 45.64409589767456, 45.7609748840332, 45.877702951431274, 45.99444890022278, 46.111209869384766, 46.228155851364136, 46.34476184844971, 46.46176505088806, 46.5783429145813, 46.695154905319214, 46.91843605041504]	[42.814567619547695, 42.9312342862077, 43.914234286207694, 44.08093428620769, 44.83093428620769, 44.947600952867695, 45.0642676195277, 45.1809342861877, 45.2976009528477, 45.414267619507704, 45.53093428616771, 45.64760095282771, 45.76426761948771, 45.88093428614771, 45.997600952807716, 46.11426761946772, 46.23093428612772, 46.34760095278772, 46.464267619447725, 46.58093428610773, 46.69760095276773, 46.93093428610106]	2021_Feb_02_1359	59.941234980049614	1	0.375
20	9	FALSE	AA	a	['V', 'T', 'K', 'U', 'Y', 'H', 'surprise', 'Z', 'N', 'X', 'C', 'P', 'S', 'M', 'E', 'G']	[2245, 1888, 1122, 2059, 2670, 986, 'stimAuditory/all_stimAuditory/222.wav', 2911, 1335, 4000, 829, 1456, 1731, 1224, 904, 944]	10	Present	stimAuditory/all_stimAuditory/222.wav	NA	ABSENT	0.4095051288604736	48.91840696334839	50.92479205131531	51.74146658574842	52.09146873149563	55.034801959991455	4.1100099086761475	[48.930968046188354, 49.04767298698425, 50.01812386512756, 50.19910383224487, 50.95006799697876, 51.06649899482727, 51.18332290649414, 51.300108909606934, 51.41685104370117, 51.5336799621582, 51.650567054748535, 51.76723790168762, 51.88418197631836, 52.00083088874817, 52.117674827575684, 52.23444104194641, 52.35143494606018, 52.46799302101135, 52.5850248336792, 52.70159983634949, 52.8184609413147, 53.034801959991455]	[48.93093428610106, 49.047600952761066, 50.03060095276106, 50.19730095276106, 50.94730095276106, 51.063967619421064, 51.180634286081066, 51.29730095274107, 51.41396761940107, 51.53063428606107, 51.647300952721075, 51.76396761938108, 51.88063428604108, 51.99730095270108, 52.113967619361084, 52.230634286021086, 52.34730095268109, 52.46396761934109, 52.58063428600109, 52.697300952661095, 52.8139676193211, 53.04730095265443]	2021_Feb_02_1359	59.941234980049614	1	0.375
20	10	FALSE	NN	a	['G', 'S', 'A', 'E', 'N', 'K', 'T', 'C', 'J', 'P', 'Y', 'H', 'M', 'B', 'U', 'Z']	[944, 1731, 697, 904, 1335, 1122, 1888, 829, 1029, 1456, 2670, 986, 1224, 760, 2059, 2911]	9	Absent	NA	NA	ABSENT	0.27071690559387207	55.041648864746094	57.04136800765991	57.74137587543302	58.09137802118023	61.15116882324219	4.109800815582275	[55.054210901260376, 55.17089104652405, 56.13448882102966, 56.32211685180664, 57.072993993759155, 57.17289590835571, 57.289633989334106, 57.406434059143066, 57.52327585220337, 57.64008402824402, 57.75679898262024, 57.8736629486084, 57.990463972091675, 58.10736894607544, 58.223989963531494, 58.34081697463989, 58.457783937454224, 58.574559926986694, 58.69135499000549, 58.8079149723053, 58.92501783370972, 59.15116882324219]	[55.04730095265443, 55.163967619314434, 56.14696761931443, 56.31366761931443, 57.06366761931443, 57.18033428597443, 57.297000952634434, 57.413667619294436, 57.53033428595444, 57.64700095261444, 57.76366761927444, 57.880334285934445, 57.99700095259445, 58.11366761925445, 58.23033428591445, 58.347000952574454, 58.46366761923446, 58.58033428589446, 58.69700095255446, 58.81366761921446, 58.930334285874466, 59.1636676192078]	2021_Feb_02_1359	59.941234980049614	1	0.375
20	11	FALSE	NN	a	['T', 'E', 'K', 'H', 'S', 'U', 'P', 'C', 'Z', 'J', 'V', 'Y', 'A', 'W', 'M', 'N']	[1888, 904, 1122, 986, 1731, 2059, 1456, 829, 2911, 1029, 2245, 2670, 697, 2448, 1224, 1335]	8	Absent	NA	NA	ABSENT	0.6032378673553467	61.14849591255188	63.15741586685181	63.74075730638349	64.09075921371213	67.2675359249115	4.110120058059692	[61.16105604171753, 61.2775399684906, 62.25085496902466, 62.42864394187927, 63.17944598197937, 63.296329975128174, 63.413113832473755, 63.52967405319214, 63.64666485786438, 63.76344084739685, 63.88012504577637, 63.99680805206299, 64.11375999450684, 64.23040699958801, 64.34738898277283, 64.46396994590759, 64.58072805404663, 64.69773197174072, 64.81447100639343, 64.93126392364502, 65.048024892807, 65.2675359249115]	[61.1636676192078, 61.2803342858678, 62.2633342858678, 62.4300342858678, 63.1800342858678, 63.2967009525278, 63.4133676191878, 63.530034285847805, 63.64670095250781, 63.76336761916781, 63.88003428582781, 63.996700952487814, 64.11336761914781, 64.2300342858078, 64.3467009524678, 64.4633676191278, 64.58003428578779, 64.69670095244778, 64.81336761910778, 64.93003428576777, 65.04670095242777, 65.2800342857611]	2021_Feb_02_1359	59.941234980049614	1	0.375
20	12	FALSE	VA	a	['T', 'S', 'Y', 'P', 'C', 'W', 'U', 'Z', 'G', 'surprise', 'H', 'R', 'X', 'E', 'A', 'B']	[1888, 1731, 2670, 1456, 829, 2448, 2059, 2911, 944, 'stimAuditory/all_stimAuditory/122.wav', 986, 1587, 4000, 904, 697, 760]	13	Present	NA	NA	PRESENT	0.4959030151367187	67.27120590209961	69.27397799491882	70.44065157565761	70.79065372140482	73.38390302658081	4.109925031661987	[67.28376603126526, 67.40062403678894, 68.36722302436829, 68.55180788040161, 69.3025770187378, 69.41923403739929, 69.53629899024963, 69.6529598236084, 69.76958394050598, 69.8866069316864, 70.00317597389221, 70.12015891075134, 70.23695993423462, 70.35373902320862, 70.47051405906677, 70.58770394325256, 70.70393705368042, 70.82078504562378, 70.93774104118347, 71.05451393127441, 71.17124199867249, 71.38390302658081]	[67.2800342857611, 67.3967009524211, 68.3797009524211, 68.54640095242111, 69.29640095242111, 69.4130676190811, 69.5297342857411, 69.6464009524011, 69.76306761906109, 69.87973428572109, 69.99640095238108, 70.11306761904108, 70.22973428570107, 70.34640095236107, 70.46306761902106, 70.57973428568106, 70.69640095234105, 70.81306761900105, 70.92973428566104, 71.04640095232104, 71.16306761898103, 71.39640095231437]	2021_Feb_02_1359	59.941234980049614	1	0.375
20	13	FALSE	NA	a	['K', 'A', 'Z', 'B', 'J', 'H', 'T', 'X', 'N', 'U', 'V', 'Y', 'W', 'R', 'M', 'C']	[1122, 697, 2911, 760, 1029, 986, 1888, 4000, 1335, 2059, 2245, 2670, 2448, 1587, 1224, 829]	8	Present	NA	NA	PRESENT	0.2692289352416992	73.37758207321167	75.39045691490173	75.97379835443343	76.32380026176206	79.50026893615723	4.109812021255493	[73.39014196395874, 73.50718593597412, 74.48358798027039, 74.6582419872284, 75.40900492668152, 75.5257089138031, 75.64270496368408, 75.75952291488647, 75.8762629032135, 75.99302291870117, 76.10978198051453, 76.22669696807861, 76.34338688850403, 76.46024489402771, 76.57701301574707, 76.69380593299866, 76.81067395210266, 76.9272530078888, 77.04419803619385, 77.16094398498535, 77.27778387069702, 77.50026893615723]	[73.39640095231437, 73.51306761897436, 74.49606761897437, 74.66276761897437, 75.41276761897437, 75.52943428563437, 75.64610095229436, 75.76276761895436, 75.87943428561435, 75.99610095227435, 76.11276761893434, 76.22943428559434, 76.34610095225433, 76.46276761891433, 76.57943428557432, 76.69610095223432, 76.81276761889431, 76.92943428555431, 77.0461009522143, 77.1627676188743, 77.2794342855343, 77.51276761886763]	2021_Feb_02_1359	59.941234980049614	1	0.375
20	14	FALSE	NA	a	['Z', 'N', 'A', 'J', 'R', 'H', 'M', 'S', 'K', 'C', 'P', 'E', 'W', 'X', 'B', 'G']	[2911, 1335, 697, 1029, 1587, 986, 1224, 1731, 1122, 829, 1456, 904, 2448, 4000, 760, 944]	14	Present	NA	NA	PRESENT	0.18571901321411133	79.50096988677979	81.50671696662903	82.79005721402783	83.14005935977504	85.61663603782654	4.10991907119751	[79.51353001594543, 79.63034892082214, 80.59995603561401, 80.78182196617126, 81.5322790145874, 81.64916801452637, 81.76593399047852, 81.88251900672913, 81.9993908405304, 82.11621689796448, 82.23285293579102, 82.34970903396606, 82.46647596359253, 82.58329391479492, 82.70035004615784, 82.81700301170349, 82.93362593650818, 83.05059099197388, 83.16734504699707, 83.28418898582458, 83.4007978439331, 83.61663484573364]	[79.51276761886763, 79.62943428552762, 80.61243428552763, 80.77913428552763, 81.52913428552763, 81.64580095218763, 81.76246761884762, 81.87913428550762, 81.99580095216761, 82.11246761882761, 82.2291342854876, 82.3458009521476, 82.4624676188076, 82.57913428546759, 82.69580095212758, 82.81246761878758, 82.92913428544757, 83.04580095210757, 83.16246761876756, 83.27913428542756, 83.39580095208755, 83.62913428542089]	2021_Feb_02_1359	59.941234980049614	1	0.375
20	15	FALSE	NV	a	['Y', 'M', 'V', 'H', 'Z', 'B', 'R', 'C', 'T', 'P', 'X', 'W', 'J', 'S', 'K', 'A']	[2670, 1224, 2245, 986, 2911, 760, 1587, 829, 1888, 1456, 4000, 2448, 1029, 1731, 1122, 697]	11	Present	NA	NA	PRESENT	0.21513795852661133	85.62408685684204	87.62295389175415	88.55629533126584	88.90629723859448	91.73300194740295	4.110048055648804	[85.636647939682, 85.75328493118286, 86.71632289886475, 86.88783597946167, 87.6554799079895, 87.75539898872375, 87.87234592437744, 87.9890148639679, 88.10597801208496, 88.22256803512573, 88.33947896957397, 88.45631790161133, 88.5730299949646, 88.68970489501953, 88.80673384666443, 88.92328786849976, 89.0403208732605, 89.15687990188599, 89.27388191223145, 89.39050102233887, 89.50739884376526, 89.73300194740295]	[85.62913428542089, 85.74580095208088, 86.72880095208089, 86.8955009520809, 87.6455009520809, 87.76216761874089, 87.87883428540088, 87.99550095206088, 88.11216761872087, 88.22883428538087, 88.34550095204087, 88.46216761870086, 88.57883428536086, 88.69550095202085, 88.81216761868085, 88.92883428534084, 89.04550095200084, 89.16216761866083, 89.27883428532083, 89.39550095198082, 89.51216761864082, 89.74550095197415]	2021_Feb_02_1359	59.941234980049614	1	0.375
20	16	FALSE	NN	a	['C', 'N', 'R', 'J', 'G', 'A', 'W', 'V', 'H', 'B', 'Z', 'K', 'E', 'P', 'S', 'U']	[829, 1335, 1587, 1029, 944, 697, 2448, 2245, 986, 760, 2911, 1122, 904, 1456, 1731, 2059]	10	Absent	NA	NA	PRESENT	0.5477089881896973	91.73087096214294	93.73945999145508	94.55613571798108	94.9061457315414	97.84937000274658	4.109910011291504	[91.74343085289001, 91.85990190505981, 92.83268904685974, 93.01112103462219, 93.76196599006653, 93.87854599952698, 93.99551296234131, 94.11220788955688, 94.2291579246521, 94.34577584266663, 94.46264791488647, 94.57944798469543, 94.6962149143219, 94.81312298774719, 94.92985796928406, 95.04650282859802, 95.16342496871948, 95.2802369594574, 95.39705491065979, 95.51360893249512, 95.63049292564392, 95.84936904907227]	[91.74550095197415, 91.86216761863415, 92.84516761863415, 93.01186761863416, 93.76186761863416, 93.87853428529415, 93.99520095195415, 94.11186761861414, 94.22853428527414, 94.34520095193413, 94.46186761859413, 94.57853428525412, 94.69520095191412, 94.81186761857411, 94.92853428523411, 95.0452009518941, 95.1618676185541, 95.27853428521409, 95.39520095187409, 95.51186761853408, 95.62853428519408, 95.86186761852741]	2021_Feb_02_1359	59.941234980049614	1	0.375
20	17	FALSE	NV	a	['V', 'Y', 'S', 'A', 'G', 'C', 'J', 'R', 'Z', 'U', 'N', 'X', 'M', 'T', 'B', 'W']	[2245, 2670, 1731, 697, 944, 829, 1029, 1587, 2911, 2059, 1335, 4000, 1224, 1888, 760, 2448]	12	Present	NA	NA	PRESENT	0.17705798149108887	97.85358500480652	99.85562992095949	100.90563802713116	101.2556399344598	103.965735912323	4.110105991363525	[97.86614489555359, 97.983158826828, 98.949059009552, 99.13435697555542, 99.88506698608398, 100.00197696685791, 100.11864590644836, 100.23556995391846, 100.35232186317444, 100.46916890144348, 100.58579802513123, 100.70266199111938, 100.81933903694153, 100.93614983558655, 101.05293798446655, 101.16979503631592, 101.28661298751831, 101.4031879901886, 101.52008891105652, 101.63708186149597, 101.73693203926086, 101.965735912323]	[97.86186761852741, 97.97853428518741, 98.96153428518741, 99.12823428518742, 99.87823428518742, 99.99490095184741, 100.11156761850741, 100.2282342851674, 100.3449009518274, 100.4615676184874, 100.57823428514739, 100.69490095180738, 100.81156761846738, 100.92823428512737, 101.04490095178737, 101.16156761844736, 101.27823428510736, 101.39490095176735, 101.51156761842735, 101.62823428508734, 101.74490095174734, 101.97823428508067]	2021_Feb_02_1359	59.941234980049614	1	0.375
20	18	FALSE	NN	a	['H', 'W', 'S', 'U', 'A', 'M', 'B', 'Z', 'G', 'R', 'E', 'Y', 'K', 'T', 'P', 'V']	[986, 2448, 1731, 2059, 697, 1224, 760, 2911, 944, 1587, 904, 2670, 1122, 1888, 1456, 2245]	10	Absent	NA	NA	ABSENT	0.6135280132293701	103.9600269794464	105.97213792800903	106.78881270086072	107.13881460818936	110.08210301399232	4.109965085983276	[103.97258687019348, 104.0896348953247, 105.0654399394989, 105.24078798294067, 105.9915418624878, 106.10824799537659, 106.22517085075378, 106.34186601638794, 106.45889592170715, 106.57549786567688, 106.69245290756226, 106.80901384353638, 106.92597103118896, 107.04271602630615, 107.15933084487915, 107.2761640548706, 107.39306092262268, 107.50985884666443, 107.62668299674988, 107.74339890480042, 107.86005592346191, 108.08210301399231]	[103.97823428508067, 104.09490095174067, 105.07790095174067, 105.24460095174068, 105.99460095174068, 106.11126761840067, 106.22793428506067, 106.34460095172066, 106.46126761838066, 106.57793428504066, 106.69460095170065, 106.81126761836065, 106.92793428502064, 107.04460095168064, 107.16126761834063, 107.27793428500063, 107.39460095166062, 107.51126761832062, 107.62793428498061, 107.7446009516406, 107.8612676183006, 108.09460095163394]	2021_Feb_02_1359	59.941234980049614	1	0.375
20	19	FALSE	NA	a	['S', 'Y', 'P', 'T', 'U', 'C', 'G', 'J', 'X', 'V', 'M', 'R', 'Z', 'W', 'N', 'E']	[1731, 2670, 1456, 1888, 2059, 829, 944, 1029, 4000, 2245, 1224, 1587, 2911, 2448, 1335, 904]	9	Present	NA	NA	PRESENT	0.15408921241760254	110.08341002464294	112.08867907524107	112.7886869430142	113.13868885034285	116.19846892356873	4.109789848327637	[110.09597086906433, 110.2126669883728, 111.1817889213562, 111.36379599571228, 112.11497092247009, 112.23155188560486, 112.34844088554382, 112.46518993377686, 112.58198094367981, 112.6985878944397, 112.8156909942627, 112.93234491348267, 113.04916000366211, 113.16583585739136, 113.28249883651733, 113.39936089515686, 113.51625394821167, 113.63283205032349, 113.74986791610718, 113.8666980266571, 113.98344683647156, 114.19846892356873]	[110.09460095163394, 110.21126761829393, 111.19426761829394, 111.36096761829394, 112.11096761829394, 112.22763428495394, 112.34430095161393, 112.46096761827393, 112.57763428493392, 112.69430095159392, 112.81096761825391, 112.9276342849139, 113.0443009515739, 113.1609676182339, 113.27763428489389, 113.39430095155389, 113.51096761821388, 113.62763428487388, 113.74430095153387, 113.86096761819387, 113.97763428485386, 114.2109676181872]	2021_Feb_02_1359	59.941234980049614	1	0.375
20	20	FALSE	NA	a	['N', 'P', 'Z', 'S', 'K', 'V', 'A', 'J', 'H', 'U', 'E', 'X', 'G', 'T', 'R', 'M']	[1335, 1456, 2911, 1731, 1122, 2245, 697, 1029, 986, 2059, 904, 4000, 944, 1888, 1587, 1224]	12	Present	NA	NA	PRESENT	0.12736797332763672	116.20647192001344	118.20484900474548	119.2548568724986	119.6048590182458	122.31483602523804	4.109987020492554	[116.21903204917908, 116.3359808921814, 117.29815697669983, 117.47033095359802, 118.2377769947052, 118.33790183067322, 118.45481705665588, 118.57153701782227, 118.68840503692627, 118.80506587028503, 118.92193484306335, 119.03880286216736, 119.15563583374023, 119.27230286598206, 119.38893389701843, 119.50582194328308, 119.62251091003418, 119.73944282531738, 119.85632705688477, 119.97302389144897, 120.08995795249939, 120.31483602523804]	[116.2109676181872, 116.32763428484719, 117.3106342848472, 117.4773342848472, 118.2273342848472, 118.3440009515072, 118.4606676181672, 118.57733428482719, 118.69400095148718, 118.81066761814718, 118.92733428480717, 119.04400095146717, 119.16066761812716, 119.27733428478716, 119.39400095144715, 119.51066761810715, 119.62733428476714, 119.74400095142714, 119.86066761808713, 119.97733428474713, 120.09400095140712, 120.32733428474046]	2021_Feb_02_1359	59.941234980049614	1	0.375
20	21	FALSE	NN	a	['R', 'C', 'N', 'K', 'T', 'W', 'P', 'M', 'G', 'B', 'H', 'Z', 'E', 'A', 'V', 'J']	[1587, 829, 1335, 1122, 1888, 2448, 1456, 1224, 944, 760, 986, 2911, 904, 697, 2245, 1029]	11	Absent	NA	NA	ABSENT	0.1720259189605713	122.31340789794922	124.3211178779602	125.25445836379758	125.6044602711262	128.43120193481445	4.110084056854248	[122.32596898078918, 122.4424250125885, 123.41452288627625, 123.59349799156189, 124.34435987472534, 124.46119594573975, 124.57802104949951, 124.69483685493469, 124.81152892112732, 124.92842483520508, 125.04509091377258, 125.16199588775635, 125.27874803543091, 125.39558696746826, 125.51216101646423, 125.62904691696167, 125.74577903747559, 125.86271286010742, 125.97932982444763, 126.09634304046631, 126.2128849029541, 126.43120193481445]	[122.32733428474046, 122.44400095140045, 123.42700095140046, 123.59370095140046, 124.34370095140046, 124.46036761806046, 124.57703428472045, 124.69370095138045, 124.81036761804044, 124.92703428470044, 125.04370095136044, 125.16036761802043, 125.27703428468043, 125.39370095134042, 125.51036761800042, 125.62703428466041, 125.7437009513204, 125.8603676179804, 125.9770342846404, 126.09370095130039, 126.21036761796039, 126.44370095129372]	2021_Feb_02_1359	59.941234980049614	1	0.375
20	22	FALSE	NV	a	['N', 'A', 'T', 'H', 'P', 'E', 'Y', 'R', 'U', 'M', 'W', 'G', 'X', 'Z', 'V', 'B']	[1335, 697, 1888, 986, 1456, 904, 2670, 1587, 2059, 1224, 2448, 944, 4000, 2911, 2245, 760]	13	Present	NA	NA	PRESENT	0.11349010467529295	128.43623805046082	130.4376358985901	131.6043106714218	131.9543125787504	134.54756903648376	4.109933137893677	[128.44879794120789, 128.56550884246826, 129.53088998794556, 129.71677803993225, 130.46747088432312, 130.58448100090027, 130.70095491409302, 130.81798005104065, 130.93469095230103, 131.0515148639679, 131.16827702522278, 131.28509497642517, 131.4019739627838, 131.51862692832947, 131.6357569694519, 131.75226998329163, 131.8521490097046, 131.96903204917908, 132.08586192131042, 132.20261096954346, 132.31931900978088, 132.54756999015808]	[128.44370095129372, 128.56036761795372, 129.54336761795372, 129.7100676179537, 130.4600676179537, 130.5767342846137, 130.6934009512737, 130.8100676179337, 130.9267342845937, 131.0434009512537, 131.16006761791368, 131.27673428457368, 131.39340095123367, 131.51006761789367, 131.62673428455366, 131.74340095121366, 131.86006761787365, 131.97673428453365, 132.09340095119364, 132.21006761785364, 132.32673428451363, 132.56006761784695]	2021_Feb_02_1359	59.941234980049614	1	0.375
20	23	FALSE	NV	a	['U', 'V', 'A', 'R', 'T', 'B', 'H', 'K', 'P', 'X', 'J', 'E', 'C', 'Z', 'Y', 'G']	[2059, 2245, 697, 1587, 1888, 760, 986, 1122, 1456, 4000, 1029, 904, 829, 2911, 2670, 944]	10	Present	NA	NA	PRESENT	0.22174596786499023	134.54276084899902	136.55410194396973	137.3707767168214	137.72077957782437	140.6639358997345	4.1098339557647705	[134.55532002449036, 134.67209601402283, 135.64725804328918, 135.823322057724, 136.5740089416504, 136.69082403182983, 136.80774092674255, 136.92436385154724, 137.0413248538971, 137.15794396400452, 137.27470684051514, 137.3915090560913, 137.50830101966858, 137.625079870224, 137.74182796478271, 137.8586449623108, 137.9754240512848, 138.09230589866638, 138.2090859413147, 138.3259358406067, 138.44263696670532, 138.6639368534088]	[134.56006761784695, 134.67673428450695, 135.65973428450695, 135.82643428450695, 136.57643428450695, 136.69310095116694, 136.80976761782694, 136.92643428448693, 137.04310095114693, 137.15976761780692, 137.27643428446692, 137.3931009511269, 137.5097676177869, 137.6264342844469, 137.7431009511069, 137.8597676177669, 137.9764342844269, 138.09310095108688, 138.20976761774688, 138.32643428440687, 138.44310095106687, 138.6764342844002]	2021_Feb_02_1359	59.941234980049614	1	0.375
20	24	FALSE	NN	a	['Z', 'P', 'A', 'Y', 'N', 'G', 'W', 'M', 'K', 'T', 'B', 'C', 'H', 'J', 'S', 'E']	[2911, 1456, 697, 2670, 1335, 944, 2448, 1224, 1122, 1888, 760, 829, 986, 1029, 1731, 904]	12	Absent	NA	NA	ABSENT	0.0982367992401123	140.66581797599792	142.6703028678894	143.7203109740611	144.07031288138973	146.7803030014038	4.110000133514404	[140.678377866745, 140.79505395889282, 141.76362586021423, 141.9465959072113, 142.69719982147217, 142.81425189971924, 142.93076705932617, 143.04764485359192, 143.16428899765015, 143.28118085861206, 143.398020029068, 143.5146608352661, 143.63151097297668, 143.74847197532654, 143.8652310371399, 143.98206400871277, 144.09866905212402, 144.2154860496521, 144.33228302001953, 144.44898796081543, 144.56583499908447, 144.7803020477295]	[140.6764342844002, 140.79310095106018, 141.7761009510602, 141.94280095106018, 142.69280095106018, 142.80946761772017, 142.92613428438017, 143.04280095104016, 143.15946761770016, 143.27613428436015, 143.39280095102015, 143.50946761768014, 143.62613428434014, 143.74280095100013, 143.85946761766013, 143.97613428432012, 144.09280095098012, 144.20946761764012, 144.3261342843001, 144.4428009509601, 144.5594676176201, 144.79280095095342]	2021_Feb_02_1359	59.941234980049614	1	0.375
20	25	FALSE	NA	a	['E', 'H', 'W', 'S', 'Y', 'V', 'P', 'Z', 'B', 'N', 'U', 'X', 'J', 'G', 'R', 'M']	[904, 986, 2448, 1731, 2670, 2245, 1456, 2911, 760, 1335, 2059, 4000, 1029, 944, 1587, 1224]	12	Present	NA	NA	PRESENT	0.0875089168548584	146.7889380455017	148.78655695915222	149.83656506532392	150.18656697265254	152.89666891098022	4.110111951828003	[146.80149793624878, 146.91856002807617, 147.87998986244202, 148.05280184745789, 148.82046604156494, 148.9204568862915, 149.03732895851135, 149.1539659500122, 149.2708809375763, 149.38759088516235, 149.50432705879211, 149.62115097045898, 149.73806285858154, 149.8549268245697, 149.97151899337769, 150.0884189605713, 150.20533800125122, 150.32199001312256, 150.43885493278503, 150.55560183525085, 150.6722869873047, 150.89666891098022]	[146.79280095095342, 146.90946761761342, 147.89246761761342, 148.0591676176134, 148.8091676176134, 148.9258342842734, 149.0425009509334, 149.1591676175934, 149.2758342842534, 149.3925009509134, 149.50916761757338, 149.62583428423338, 149.74250095089337, 149.85916761755337, 149.97583428421336, 150.09250095087336, 150.20916761753335, 150.32583428419335, 150.44250095085334, 150.55916761751334, 150.67583428417333, 150.90916761750665]	2021_Feb_02_1359	59.941234980049614	1	0.375
20	26	FALSE	VV	a	['K', 'G', 'M', 'U', 'S', 'C', 'B', 'E', 'Z', 'V', 'surprise', 'P', 'J', 'X', 'Y', 'H']	[1122, 944, 1224, 2059, 1731, 829, 760, 904, 2911, 2245, 'stimAuditory/all_stimAuditory/124.wav', 1456, 1029, 4000, 2670, 986]	14	Present	NA	NA	PRESENT	0.7642138004302979	152.89580607414246	154.90312695503235	156.18646720243115	156.53646934817834	159.01303601264954	4.1099090576171875	[152.90836691856384, 153.0250060558319, 153.996356010437, 154.17621397972107, 154.92682600021362, 155.043683052063, 155.16046285629272, 155.27727794647217, 155.39396786689758, 155.5108790397644, 155.6275680065155, 155.74450397491455, 155.861065864563, 155.97817397117615, 156.0947299003601, 156.2116138935089, 156.3283040523529, 156.44515991210938, 156.56186199188232, 156.67867588996887, 156.79552602767944, 157.01303505897522]	[152.90916761750665, 153.02583428416665, 154.00883428416665, 154.17553428416664, 154.92553428416664, 155.04220095082664, 155.15886761748664, 155.27553428414663, 155.39220095080663, 155.50886761746662, 155.62553428412662, 155.7422009507866, 155.8588676174466, 155.9755342841066, 156.0922009507666, 156.2088676174266, 156.3255342840866, 156.44220095074658, 156.55886761740658, 156.67553428406657, 156.79220095072657, 157.0255342840599]	2021_Feb_02_1359	59.941234980049614	1	0.375
20	27	FALSE	NV	a	['H', 'G', 'P', 'R', 'Z', 'A', 'K', 'W', 'V', 'T', 'E', 'J', 'Y', 'X', 'N', 'M']	[986, 944, 1456, 1587, 2911, 697, 1122, 2448, 2245, 1888, 904, 1029, 2670, 4000, 1335, 1224]	14	Present	NA	NA	PRESENT	0.26560187339782715	159.01859092712402	161.01954698562622	162.3028881866993	162.65289033244653	165.12940287590027	4.109855890274048	[159.03115105628967, 159.1479949951172, 160.11272287368774, 160.29923295974731, 161.05011296272278, 161.1669180393219, 161.28358483314514, 161.40044403076172, 161.5172188282013, 161.633859872818, 161.73399782180786, 161.85084891319275, 161.9676320552826, 162.08441805839539, 162.2011740207672, 162.3179578781128, 162.4347219467163, 162.55154490470886, 162.66858983039856, 162.7850420475006, 162.90190386772156, 163.12940192222595]	[159.0255342840599, 159.14220095071988, 160.1252009507199, 160.29190095071988, 161.04190095071988, 161.15856761737987, 161.27523428403987, 161.39190095069986, 161.50856761735986, 161.62523428401985, 161.74190095067985, 161.85856761733984, 161.97523428399984, 162.09190095065983, 162.20856761731983, 162.32523428397982, 162.44190095063982, 162.55856761729981, 162.6752342839598, 162.7919009506198, 162.9085676172798, 163.14190095061312]	2021_Feb_02_1359	59.941234980049614	1	0.375
20	28	FALSE	NN	a	['Z', 'C', 'T', 'J', 'P', 'E', 'W', 'N', 'U', 'M', 'Y', 'G', 'S', 'R', 'K', 'B']	[2911, 829, 1888, 1029, 1456, 904, 2448, 1335, 2059, 1224, 2670, 944, 1731, 1587, 1122, 760]	11	Absent	NA	NA	ABSENT	0.18202686309814453	165.1252679824829	167.1359338760376	168.06927531554928	168.41927722287792	171.24576902389526	4.109835147857666	[165.1378300189972, 165.25458002090454, 166.22908902168274, 166.40579104423523, 167.15642404556274, 167.27324199676514, 167.3902268409729, 167.50682592391968, 167.62371301651, 167.74032402038574, 167.85735392570496, 167.9740879535675, 168.09084582328796, 168.20773482322693, 168.32430505752563, 168.441321849823, 168.55813097953796, 168.67489790916443, 168.7918050289154, 168.90831899642944, 169.02502489089966, 169.24576902389526]	[165.14190095061312, 165.25856761727312, 166.24156761727312, 166.4082676172731, 167.1582676172731, 167.2749342839331, 167.3916009505931, 167.5082676172531, 167.6249342839131, 167.7416009505731, 167.85826761723308, 167.97493428389308, 168.09160095055307, 168.20826761721307, 168.32493428387306, 168.44160095053306, 168.55826761719305, 168.67493428385305, 168.79160095051304, 168.90826761717304, 169.02493428383303, 169.25826761716635]	2021_Feb_02_1359	59.941234980049614	1	0.375
20	29	FALSE	AA	a	['V', 'H', 'A', 'Z', 'M', 'U', 'P', 'W', 'surprise', 'Y', 'K', 'X', 'R', 'T', 'J', 'N']	[2245, 986, 697, 2911, 1224, 2059, 1456, 2448, 'stimAuditory/all_stimAuditory/216.wav', 2670, 1122, 4000, 1587, 1888, 1029, 1335]	12	Present	stimAuditory/all_stimAuditory/122.wav	NA	PRESENT	0.6505880355834961	171.24839401245117	173.2521698474884	174.30217890733442	174.65218105308162	177.362135887146	4.109966039657593	[171.26095390319824, 171.37772703170776, 172.3454568386078, 172.52903699874878, 173.27996587753296, 173.3964879512787, 173.51315093040466, 173.63013982772827, 173.7468638420105, 173.86366987228394, 173.98045682907104, 174.0971839427948, 174.21392798423767, 174.33093285560608, 174.44772791862488, 174.5645170211792, 174.68110489845276, 174.79804301261902, 174.91479897499084, 175.03151392936707, 175.14829683303833, 175.36213493347168]	[171.25826761716635, 171.37493428382635, 172.35793428382635, 172.52463428382634, 173.27463428382634, 173.39130095048634, 173.50796761714633, 173.62463428380633, 173.74130095046633, 173.85796761712632, 173.97463428378632, 174.0913009504463, 174.2079676171063, 174.3246342837663, 174.4413009504263, 174.5579676170863, 174.6746342837463, 174.79130095040628, 174.90796761706628, 175.02463428372627, 175.14130095038627, 175.3746342837196]	2021_Feb_02_1359	59.941234980049614	1	0.375
20	30	FALSE	NV	a	['E', 'U', 'H', 'A', 'P', 'J', 'V', 'Z', 'T', 'G', 'W', 'X', 'S', 'Y', 'R', 'C']	[904, 2059, 986, 697, 1456, 1029, 2245, 2911, 1888, 944, 2448, 4000, 1731, 2670, 1587, 829]	12	Present	NA	NA	PRESENT	0.11985301971435548	177.37137389183044	179.3682780265808	180.41828589433393	180.76828804008113	183.4785029888153	4.110224962234497	[177.3839349746704, 177.4840829372406, 178.46181988716125, 178.63548493385315, 179.38600492477417, 179.5028338432312, 179.6198148727417, 179.73639702796936, 179.85342288017273, 179.9701418876648, 180.08696389198303, 180.2037799358368, 180.32061791419983, 180.43740582466125, 180.55405402183533, 180.6710319519043, 180.7877049446106, 180.904541015625, 181.02126097679138, 181.1381208896637, 181.25482892990112, 181.4785029888153]	[177.3746342837196, 177.49130095037958, 178.4743009503796, 178.64100095037958, 179.39100095037958, 179.50766761703957, 179.62433428369957, 179.74100095035956, 179.85766761701956, 179.97433428367955, 180.09100095033955, 180.20766761699954, 180.32433428365954, 180.44100095031953, 180.55766761697953, 180.67433428363952, 180.79100095029952, 180.90766761695951, 181.0243342836195, 181.1410009502795, 181.2576676169395, 181.49100095027282]	2021_Feb_02_1359	59.941234980049614	1	0.375
20	31	FALSE	NV	a	['N', 'Y', 'S', 'B', 'R', 'V', 'W', 'T', 'A', 'U', 'M', 'E', 'X', 'H', 'C', 'P']	[1335, 2670, 1731, 760, 1587, 2245, 2448, 1888, 697, 2059, 1224, 904, 4000, 986, 829, 1456]	13	Present	NA	NA	PRESENT	0.19646000862121585	183.4782829284668	185.48480200767517	186.6514765420883	187.0014786878355	189.59486985206604	4.110067844390869	[183.49084305763245, 183.6074378490448, 184.57819199562073, 184.75854182243347, 185.50937604904175, 185.62621998786926, 185.74303483963013, 185.8598518371582, 185.9764449596405, 186.09337782859802, 186.2100100517273, 186.32702493667603, 186.44377088546753, 186.5604588985443, 186.67732000350952, 186.79414582252502, 186.91094589233398, 187.027685880661, 187.14450883865356, 187.26121592521667, 187.37809491157532, 187.59486985206604]	[183.49100095027282, 183.60766761693282, 184.59066761693282, 184.7573676169328, 185.5073676169328, 185.6240342835928, 185.7407009502528, 185.8573676169128, 185.9740342835728, 186.0907009502328, 186.20736761689278, 186.32403428355278, 186.44070095021277, 186.55736761687277, 186.67403428353276, 186.79070095019276, 186.90736761685275, 187.02403428351275, 187.14070095017274, 187.25736761683274, 187.37403428349273, 187.60736761682605]	2021_Feb_02_1359	59.941234980049614	1	0.375
20	32	FALSE	NN	a	['W', 'Y', 'S', 'E', 'A', 'V', 'B', 'U', 'C', 'P', 'N', 'Z', 'K', 'R', 'M', 'G']	[2448, 2670, 1731, 904, 697, 2245, 760, 2059, 829, 1456, 1335, 2911, 1122, 1587, 1224, 944]	13	Absent	NA	NA	ABSENT	0.2655751705169678	189.60122990608215	191.601322889328	192.7679976621597	193.11799956948832	195.71123695373535	4.109914064407349	[189.6137900352478, 189.73062992095947, 190.6945550441742, 190.88185000419617, 191.63252091407776, 191.73242092132568, 191.84923791885376, 191.9660198688507, 192.0828549861908, 192.19968700408936, 192.3164439201355, 192.43323493003845, 192.55003595352173, 192.66709303855896, 192.78364896774292, 192.90053296089172, 193.01721692085266, 193.13417100906372, 193.2510449886322, 193.3677089214325, 193.4845838546753, 193.71123600006104]	[189.60736761682605, 189.72403428348605, 190.70703428348605, 190.87373428348604, 191.62373428348604, 191.74040095014604, 191.85706761680603, 191.97373428346603, 192.09040095012602, 192.20706761678602, 192.32373428344602, 192.440400950106, 192.557067616766, 192.673734283426, 192.790400950086, 192.907067616746, 193.023734283406, 193.14040095006598, 193.25706761672598, 193.37373428338597, 193.49040095004597, 193.7237342833793]	2021_Feb_02_1359	59.941234980049614	1	0.375
20	33	FALSE	AV	a	['G', 'K', 'M', 'T', 'S', 'H', 'E', 'B', 'surprise', 'A', 'N', 'X', 'C', 'Z', 'W', 'R']	[944, 1122, 1224, 1888, 1731, 986, 904, 760, 'stimAuditory/all_stimAuditory/117.wav', 697, 1335, 4000, 829, 2911, 2448, 1587]	12	Present	stimAuditory/all_stimAuditory/124.wav	NA	PRESENT	0.4062821865081787	195.7076699733734	197.71751499176025	198.76752190583903	199.11752405158623	201.82760190963745	4.110086917877197	[195.72023105621338, 195.83698296546936, 196.81092286109924, 196.98811101913452, 197.73912501335144, 197.85580396652222, 197.9726278781891, 198.08946585655212, 198.20618104934692, 198.32302403450012, 198.43986892700195, 198.5566999912262, 198.67336583137512, 198.79022884368896, 198.90700602531433, 199.0237159729004, 199.14047694206238, 199.2574338912964, 199.3741319179535, 199.49100995063782, 199.60774397850037, 199.82760190963745]	[195.7237342833793, 195.84040095003928, 196.8234009500393, 196.99010095003928, 197.74010095003928, 197.85676761669927, 197.97343428335927, 198.09010095001926, 198.20676761667926, 198.32343428333925, 198.44010094999925, 198.55676761665924, 198.67343428331924, 198.79010094997923, 198.90676761663923, 199.02343428329922, 199.14010094995922, 199.25676761661921, 199.3734342832792, 199.4901009499392, 199.6067676165992, 199.84010094993252]	2021_Feb_02_1359	59.941234980049614	1	0.375
20	34	FALSE	NA	a	['M', 'U', 'T', 'J', 'G', 'N', 'K', 'V', 'H', 'Z', 'X', 'E', 'B', 'R', 'P', 'A']	[1224, 2059, 1888, 1029, 944, 1335, 1122, 2245, 986, 2911, 4000, 904, 760, 1587, 1456, 697]	11	Present	NA	NA	PRESENT	0.15480399131774902	201.8308069705963	203.83416986465457	204.76751130416625	205.11751321149487	207.94396996498108	4.109800100326538	[201.84336686134338, 201.96027994155884, 202.92729091644287, 203.11178183555603, 203.86218404769897, 203.97879886627197, 204.09571194648743, 204.21263003349304, 204.3294539451599, 204.44624400138855, 204.56287598609924, 204.6796350479126, 204.79643297195435, 204.91322493553162, 205.02995800971985, 205.1468780040741, 205.26383996009827, 205.3805148601532, 205.49731993675232, 205.61392903327942, 205.73097395896912, 205.94396901130676]	[201.84010094993252, 201.95676761659251, 202.93976761659252, 203.1064676165925, 203.8564676165925, 203.9731342832525, 204.0898009499125, 204.2064676165725, 204.3231342832325, 204.4398009498925, 204.55646761655248, 204.67313428321248, 204.78980094987247, 204.90646761653247, 205.02313428319246, 205.13980094985246, 205.25646761651245, 205.37313428317245, 205.48980094983244, 205.60646761649244, 205.72313428315243, 205.95646761648575]	2021_Feb_02_1359	59.941234980049614	1	0.375
20	35	FALSE	NA	a	['J', 'M', 'C', 'P', 'K', 'B', 'V', 'S', 'N', 'Y', 'Z', 'U', 'X', 'T', 'W', 'R']	[1029, 1224, 829, 1456, 1122, 760, 2245, 1731, 1335, 2670, 2911, 2059, 4000, 1888, 2448, 1587]	13	Present	NA	NA	PRESENT	0.2159571647644043	207.93721389770508	209.95035195350647	211.11702768001248	211.4670295873411	214.0603368282318	4.109984874725342	[207.94977402687073, 208.06655097007751, 209.04365587234497, 209.21799087524414, 209.96857404708862, 210.0856728553772, 210.202162027359, 210.31910586357117, 210.4359109401703, 210.55271005630493, 210.66950583457947, 210.7862298488617, 210.90307998657227, 211.0198619365692, 211.13641595840454, 211.25344491004944, 211.37024998664856, 211.48686599731445, 211.6036570072174, 211.72060203552246, 211.83746790885925, 212.0603358745575]	[207.95646761648575, 208.07313428314575, 209.05613428314575, 209.22283428314574, 209.97283428314574, 210.08950094980574, 210.20616761646573, 210.32283428312573, 210.43950094978572, 210.55616761644572, 210.67283428310571, 210.7895009497657, 210.9061676164257, 211.0228342830857, 211.1395009497457, 211.2561676164057, 211.37283428306569, 211.48950094972568, 211.60616761638568, 211.72283428304567, 211.83950094970567, 212.072834283039]	2021_Feb_02_1359	59.941234980049614	1	0.375
20	36	FALSE	NV	a	['Y', 'J', 'V', 'E', 'Z', 'H', 'W', 'X', 'B', 'R', 'T', 'N', 'C', 'U', 'M', 'S']	[2670, 1029, 2245, 904, 2911, 986, 2448, 4000, 760, 1587, 1888, 1335, 829, 2059, 1224, 1731]	8	Present	NA	NA	PRESENT	0.1967308521270752	214.0608959197998	216.06651997566223	216.64986117677535	216.99986236884823	220.1767029762268	4.110183000564575	[214.07345700263977, 214.1898968219757, 215.16002583503723, 215.34087705612183, 216.09195590019226, 216.20862889289856, 216.32550501823425, 216.44214487075806, 216.55903482437134, 216.67578887939453, 216.79250192642212, 216.90945196151733, 217.02614283561707, 217.14284682273865, 217.25978589057922, 217.37643098831177, 217.4934229850769, 217.61023902893066, 217.72703289985657, 217.84376502037048, 217.9606728553772, 218.1767029762268]	[214.072834283039, 214.18950094969898, 215.17250094969899, 215.33920094969898, 216.08920094969898, 216.20586761635897, 216.32253428301897, 216.43920094967896, 216.55586761633896, 216.67253428299895, 216.78920094965895, 216.90586761631894, 217.02253428297894, 217.13920094963893, 217.25586761629893, 217.37253428295892, 217.48920094961892, 217.6058676162789, 217.7225342829389, 217.8392009495989, 217.9558676162589, 218.18920094959222]	2021_Feb_02_1359	59.941234980049614	1	0.375
20	37	FALSE	AN	a	['C', 'P', 'Z', 'T', 'W', 'A', 'H', 'M', 'B', 'surprise', 'J', 'V', 'R', 'N', 'E', 'U']	[829, 1456, 2911, 1888, 2448, 697, 986, 1224, 760, 'stimAuditory/all_stimAuditory/205.wav', 1029, 2245, 1587, 1335, 904, 2059]	13	Absent	stimAuditory/all_stimAuditory/216.wav	NA	ABSENT	0.7298851013183594	220.18382501602173	222.1832799911499	223.3499535718887	223.6999557176359	226.2930698394775	4.109789848327637	[220.1963849067688, 220.31312894821167, 221.2763888835907, 221.46420192718506, 222.215078830719, 222.31505393981934, 222.43186688423157, 222.54852890968323, 222.66537594795227, 222.7821478843689, 222.8991138935089, 223.0157070159912, 223.13269901275635, 223.24946904182434, 223.36633205413818, 223.4830138683319, 223.60014390945435, 223.7167239189148, 223.83350205421448, 223.95032405853271, 224.0670838356018, 224.29306888580322]	[220.18920094959222, 220.30586761625221, 221.28886761625222, 221.4555676162522, 222.2055676162522, 222.3222342829122, 222.4389009495722, 222.5555676162322, 222.6722342828922, 222.7889009495522, 222.90556761621218, 223.02223428287218, 223.13890094953217, 223.25556761619217, 223.37223428285216, 223.48890094951216, 223.60556761617215, 223.72223428283215, 223.83890094949214, 223.95556761615214, 224.07223428281213, 224.30556761614545]	2021_Feb_02_1359	59.941234980049614	1	0.375
20	38	FALSE	NA	a	['E', 'C', 'A', 'U', 'H', 'T', 'J', 'B', 'K', 'X', 'M', 'Z', 'R', 'S', 'V', 'W']	[904, 829, 697, 2059, 986, 1888, 1029, 760, 1122, 4000, 1224, 2911, 1587, 1731, 2245, 2448]	10	Present	NA	NA	PRESENT	0.27062296867370605	226.29028606414795	228.299241065979	229.1159146467378	229.46591655406644	232.40943598747253	4.11019492149353	[226.30286693572998, 226.41954803466797, 227.3927550315857, 227.57080602645874, 228.32159399986267, 228.4383568763733, 228.55523085594177, 228.67193794250488, 228.7887978553772, 228.9055209159851, 229.0220799446106, 229.1390998363495, 229.25572395324707, 229.37254285812378, 229.48951482772827, 229.6060700416565, 229.7229709625244, 229.83987998962402, 229.95653104782104, 230.07342195510864, 230.1901798248291, 230.40943598747253]	[226.30556761614545, 226.42223428280545, 227.40523428280545, 227.57193428280544, 228.32193428280544, 228.43860094946544, 228.55526761612543, 228.67193428278543, 228.78860094944542, 228.90526761610542, 229.02193428276541, 229.1386009494254, 229.2552676160854, 229.3719342827454, 229.4886009494054, 229.6052676160654, 229.72193428272539, 229.83860094938538, 229.95526761604538, 230.07193428270537, 230.18860094936537, 230.4219342826987]	2021_Feb_02_1359	59.941234980049614	1	0.375
20	39	FALSE	NA	a	['C', 'W', 'G', 'K', 'V', 'S', 'P', 'X', 'N', 'Y', 'A', 'H', 'R', 'J', 'E', 'B']	[829, 2448, 944, 1122, 2245, 1731, 1456, 4000, 1335, 2670, 697, 986, 1587, 1029, 904, 760]	8	Present	NA	NA	PRESENT	0.2509758472442627	232.4134759902954	234.41589283943176	234.99923427896343	235.34923618629207	238.52580285072327	4.109910011291504	[232.42603588104248, 232.54276990890503, 233.50912189483643, 233.69406485557556, 234.44476985931396, 234.56167197227478, 234.67830085754395, 234.79503083229065, 234.91196393966675, 235.0286500453949, 235.14546394348145, 235.26233291625977, 235.37906694412231, 235.49578189849854, 235.61248993873596, 235.72925782203674, 235.8461878299713, 235.96310591697693, 236.07986497879028, 236.19655299186707, 236.31325602531433, 236.52580285072327]	[232.4219342826987, 232.53860094935868, 233.52160094935869, 233.68830094935868, 234.43830094935868, 234.55496761601867, 234.67163428267867, 234.78830094933866, 234.90496761599866, 235.02163428265865, 235.13830094931865, 235.25496761597864, 235.37163428263864, 235.48830094929863, 235.60496761595863, 235.72163428261862, 235.83830094927862, 235.9549676159386, 236.0716342825986, 236.1883009492586, 236.3049676159186, 236.53830094925192]	2021_Feb_02_1359	59.941234980049614	1	0.375
20	40	FALSE	VV	a	['C', 'W', 'E', 'Y', 'B', 'J', 'Z', 'T', 'V', 'R', 'surprise', 'H', 'P', 'X', 'G', 'N']	[829, 2448, 904, 2670, 760, 1029, 2911, 1888, 2245, 1587, 'stimAuditory/all_stimAuditory/210.wav', 986, 1456, 4000, 944, 1335]	14	Present	NA	NA	PRESENT	0.30442094802856445	238.51976585388184	240.5320279598236	241.8153693993153	242.16537130664392	244.64216899871823	4.110141038894653	[238.53232598304749, 238.64915895462036, 239.62548899650574, 239.80044889450073, 240.55106282234192, 240.66801190376282, 240.7849359512329, 240.9015338420868, 241.01822805404663, 241.13520097732544, 241.25188899040222, 241.36875295639038, 241.48537588119507, 241.60235285758972, 241.7189860343933, 241.83595085144043, 241.95260286331177, 242.06955289840698, 242.1862030029297, 242.30306196212769, 242.41976189613342, 242.64216804504395]	[238.53830094925192, 238.65496761591191, 239.63796761591192, 239.8046676159119, 240.5546676159119, 240.6713342825719, 240.7880009492319, 240.9046676158919, 241.0213342825519, 241.1380009492119, 241.25466761587188, 241.37133428253188, 241.48800094919187, 241.60466761585187, 241.72133428251186, 241.83800094917186, 241.95466761583185, 242.07133428249185, 242.18800094915184, 242.30466761581184, 242.42133428247183, 242.65466761580515]	2021_Feb_02_1359	59.941234980049614	1	0.375
20	41	FALSE	NA	a	['Z', 'G', 'U', 'C', 'H', 'Y', 'K', 'T', 'N', 'E', 'X', 'V', 'J', 'A', 'W', 'S']	[2911, 944, 2059, 829, 986, 2670, 1122, 1888, 1335, 904, 4000, 2245, 1029, 697, 2448, 1731]	11	Present	NA	NA	PRESENT	0.3452589511871338	244.6433310508728	246.64862895011905	247.5819691975378	247.93197229695937	250.758535861969	4.109906911849976	[244.6558918952942, 244.77235889434814, 245.74185800552368, 245.92365789413452, 246.67435884475708, 246.79121685028076, 246.907940864563, 247.024799823761, 247.1414840221405, 247.2582769393921, 247.37462091445923, 247.49153685569763, 247.60839104652405, 247.72494292259216, 247.84190583229065, 247.9586319923401, 248.0755410194397, 248.19223403930664, 248.30915188789368, 248.42574095726013, 248.54270792007446, 248.758535861969]	[244.65466761580515, 244.77133428246515, 245.75433428246515, 245.92103428246514, 246.67103428246514, 246.78770094912514, 246.90436761578513, 247.02103428244513, 247.13770094910512, 247.25436761576512, 247.37103428242511, 247.4877009490851, 247.6043676157451, 247.7210342824051, 247.8377009490651, 247.9543676157251, 248.07103428238509, 248.18770094904508, 248.30436761570508, 248.42103428236507, 248.53770094902507, 248.77103428235839]	2021_Feb_02_1359	59.941234980049614	1	0.375
20	42	FALSE	NV	a	['Y', 'T', 'R', 'E', 'M', 'H', 'W', 'V', 'S', 'A', 'X', 'J', 'C', 'P', 'K', 'B']	[2670, 1888, 1587, 904, 1224, 986, 2448, 2245, 1731, 697, 4000, 1029, 829, 1456, 1122, 760]	11	Present	NA	NA	PRESENT	0.4304361343383789	250.76561188697815	252.76496005058289	253.698301251676	254.0483033974232	256.874902009964	4.1099419593811035	[250.7781720161438, 250.89529490470886, 251.85822582244873, 252.0464849472046, 252.79711985588074, 252.8971619606018, 253.0139639377594, 253.1307728290558, 253.2474958896637, 253.36421585083008, 253.48100686073303, 253.59793400764465, 253.71475386619568, 253.83152794837952, 253.94820094108582, 254.06512594223022, 254.1819498538971, 254.29874300956726, 254.4155149459839, 254.5323920249939, 254.64945483207703, 254.874902009964]	[250.77103428235839, 250.88770094901838, 251.87070094901839, 252.03740094901838, 252.78740094901838, 252.90406761567837, 253.02073428233837, 253.13740094899836, 253.25406761565836, 253.37073428231835, 253.48740094897835, 253.60406761563834, 253.72073428229834, 253.83740094895833, 253.95406761561833, 254.07073428227832, 254.18740094893832, 254.3040676155983, 254.4207342822583, 254.5374009489183, 254.6540676155783, 254.88740094891162]	2021_Feb_02_1359	59.941234980049614	1	0.375
20	43	FALSE	NA	a	['B', 'P', 'E', 'C', 'W', 'A', 'T', 'J', 'Y', 'V', 'H', 'N', 'X', 'R', 'Z', 'U']	[760, 1456, 904, 829, 2448, 697, 1888, 1029, 2670, 2245, 986, 1335, 4000, 1587, 2911, 2059]	13	Present	NA	NA	PRESENT	0.26712918281555176	256.87226390838623	258.8814239501953	260.048098723027	260.39810063035566	262.9912688732147	4.109844923019409	[256.8848240375519, 257.00166487693787, 257.97459292411804, 258.1526699066162, 258.90357184410095, 259.0203938484192, 259.13727498054504, 259.25403904914856, 259.3707220554352, 259.48751497268677, 259.6043679714203, 259.7210478782654, 259.8379280567169, 259.95476484298706, 260.07155895233154, 260.18838596343994, 260.30514788627625, 260.4219460487366, 260.53879284858704, 260.6553490161896, 260.7722828388214, 260.9912688732147]	[256.8874009489116, 257.0040676155716, 257.9870676155716, 258.1537676155716, 258.9037676155716, 259.02043428223163, 259.13710094889166, 259.2537676155517, 259.3704342822117, 259.4871009488717, 259.60376761553175, 259.7204342821918, 259.8371009488518, 259.9537676155118, 260.07043428217185, 260.18710094883187, 260.3037676154919, 260.4204342821519, 260.53710094881194, 260.65376761547196, 260.770434282132, 261.00376761546534]	2021_Feb_02_1359	59.941234980049614	1	0.375
20	44	FALSE	NN	a	['Z', 'B', 'G', 'A', 'P', 'T', 'M', 'C', 'V', 'N', 'E', 'R', 'W', 'Y', 'J', 'H']	[2911, 760, 944, 697, 1456, 1888, 1224, 829, 2245, 1335, 904, 1587, 2448, 2670, 1029, 986]	12	Absent	NA	NA	ABSENT	0.2555551528930664	262.99542689323425	264.99773597717285	266.04774289125163	266.39774503699886	269.10763597488403	4.109899997711182	[263.0079870223999, 263.12487983703613, 264.09095788002014, 264.27587389945984, 265.0271499156952, 265.14372992515564, 265.260449886322, 265.3771028518677, 265.49405694007874, 265.61063504219055, 265.7276179790497, 265.8441729545593, 265.96138405799866, 266.0778510570526, 266.1946828365326, 266.31148886680603, 266.428258895874, 266.5451638698578, 266.66190791130066, 266.7786478996277, 266.89547991752625, 267.10763597488403]	[263.00376761546534, 263.12043428212536, 264.10343428212536, 264.27013428212535, 265.02013428212535, 265.1368009487854, 265.2534676154454, 265.3701342821054, 265.48680094876545, 265.6034676154255, 265.7201342820855, 265.8368009487455, 265.95346761540554, 266.07013428206557, 266.1868009487256, 266.3034676153856, 266.42013428204564, 266.53680094870566, 266.6534676153657, 266.7701342820257, 266.88680094868573, 267.1201342820191]	2021_Feb_02_1359	59.941234980049614	1	0.375
20	45	FALSE	NN	a	['R', 'Y', 'G', 'P', 'C', 'B', 'A', 'J', 'T', 'E', 'W', 'U', 'K', 'Z', 'N', 'V']	[1587, 2670, 944, 1456, 829, 760, 697, 1029, 1888, 904, 2448, 2059, 1122, 2911, 1335, 2245]	9	Absent	NA	NA	ABSENT	0.2528409957885742	269.1018559932709	271.1138319969177	271.81383986469086	272.16384201043803	275.22400403022766	4.1101720333099365	[269.11441588401794, 269.23125886917114, 270.20732402801514, 270.3823080062866, 271.1331789493561, 271.25014996528625, 271.36680483818054, 271.4837009906769, 271.6005699634552, 271.7173960208893, 271.8340890407562, 271.9507100582123, 272.0674669742584, 272.1843249797821, 272.3011598587036, 272.41779088974, 272.534903049469, 272.6513819694519, 272.76825499534607, 272.88511896133423, 273.0019099712372, 273.22400283813477]	[269.1201342820191, 269.2368009486791, 270.2198009486791, 270.3865009486791, 271.1365009486791, 271.2531676153391, 271.36983428199915, 271.48650094865917, 271.6031676153192, 271.7198342819792, 271.83650094863924, 271.95316761529926, 272.0698342819593, 272.1865009486193, 272.30316761527934, 272.41983428193936, 272.5365009485994, 272.6531676152594, 272.76983428191943, 272.88650094857945, 273.0031676152395, 273.2365009485728]	2021_Feb_02_1359	59.941234980049614	1	0.375
20	46	FALSE	NA	a	['R', 'S', 'E', 'U', 'V', 'Z', 'H', 'X', 'P', 'J', 'A', 'C', 'G', 'W', 'K', 'Y']	[1587, 1731, 904, 2059, 2245, 2911, 986, 4000, 1456, 1029, 697, 829, 944, 2448, 1122, 2670]	8	Present	NA	NA	PRESENT	0.35352110862731934	275.2254340648651	277.23040294647217	277.81374319391097	278.1637453396582	281.3403699398041	4.109966993331909	[275.2379949092865, 275.35446786880493, 276.32368993759155, 276.50548791885376, 277.25643491744995, 277.3733639717102, 277.49000000953674, 277.6068789958954, 277.723680973053, 277.8404049873352, 277.9571979045868, 278.07380199432373, 278.19076800346375, 278.30753684043884, 278.4243619441986, 278.54121685028076, 278.6579990386963, 278.7747859954834, 278.8914198875427, 279.0082290172577, 279.1251528263092, 279.34036803245544]	[275.2365009485728, 275.35316761523285, 276.33616761523285, 276.50286761523284, 277.25286761523284, 277.36953428189287, 277.4862009485529, 277.6028676152129, 277.71953428187294, 277.83620094853296, 277.952867615193, 278.069534281853, 278.18620094851303, 278.30286761517306, 278.4195342818331, 278.5362009484931, 278.6528676151531, 278.76953428181315, 278.8862009484732, 279.0028676151332, 279.1195342817932, 279.35286761512657]	2021_Feb_02_1359	59.941234980049614	1	0.375
20	47	FALSE	NV	a	['W', 'H', 'B', 'K', 'R', 'S', 'U', 'M', 'P', 'Y', 'A', 'J', 'C', 'X', 'N', 'V']	[2448, 986, 760, 1122, 1587, 1731, 2059, 1224, 1456, 2670, 697, 1029, 829, 4000, 1335, 2245]	14	Present	NA	NA	PRESENT	0.4628942012786865	281.3483028411865	283.3468668460846	284.63020828557626	284.9802101929049	287.4567370414734	4.109870195388794	[281.3608629703522, 281.47778487205505, 282.44005703926086, 282.61197686195374, 283.37962198257446, 283.479779958725, 283.5964479446411, 283.71335005760193, 283.829941034317, 283.94697284698486, 284.0635199546814, 284.18051505088806, 284.2971649169922, 284.4140729904175, 284.5308530330658, 284.64792585372925, 284.76434302330017, 284.8812930583954, 284.9979808330536, 285.1148569583893, 285.2315528392792, 285.4567370414734]	[281.35286761512657, 281.4695342817866, 282.4525342817866, 282.6192342817866, 283.3692342817866, 283.4859009484466, 283.60256761510664, 283.71923428176666, 283.8359009484267, 283.9525676150867, 284.06923428174673, 284.18590094840675, 284.3025676150668, 284.4192342817268, 284.5359009483868, 284.65256761504685, 284.7692342817069, 284.8859009483669, 285.0025676150269, 285.11923428168694, 285.23590094834697, 285.4692342816803]	2021_Feb_02_1359	59.941234980049614	1	0.375
20	48	FALSE	NN	a	['A', 'J', 'C', 'E', 'K', 'H', 'N', 'B', 'M', 'U', 'Y', 'V', 'S', 'P', 'Z', 'R']	[697, 1029, 829, 904, 1122, 986, 1335, 760, 1224, 2059, 2670, 2245, 1731, 1456, 2911, 1587]	9	Absent	NA	NA	ABSENT	0.5713281631469727	287.45480585098267	289.4630460739136	290.16305489536103	290.5130558490153	293.5731019973755	4.110055923461914	[287.46736693382263, 287.58422088623047, 288.5564248561859, 288.7352600097656, 289.48603200912476, 289.60293984413147, 289.71961283683777, 289.83662605285645, 289.95326590538025, 290.0701448917389, 290.1869149208069, 290.3036320209503, 290.42052483558655, 290.5371849536896, 290.6540460586548, 290.77073884010315, 290.88759684562683, 291.00443983078003, 291.1212160587311, 291.23796582221985, 291.35485887527466, 291.5731019973755]	[287.4692342816803, 287.58590094834034, 288.56890094834034, 288.73560094834033, 289.48560094834033, 289.60226761500036, 289.7189342816604, 289.8356009483204, 289.9522676149804, 290.06893428164045, 290.1856009483005, 290.3022676149605, 290.4189342816205, 290.53560094828055, 290.65226761494057, 290.7689342816006, 290.8856009482606, 291.00226761492064, 291.11893428158066, 291.2356009482407, 291.3522676149007, 291.58560094823406]	2021_Feb_02_1359	59.941234980049614	1	0.375
20	49	FALSE	NA	a	['U', 'H', 'G', 'P', 'Z', 'N', 'J', 'M', 'C', 'V', 'B', 'X', 'T', 'Y', 'A', 'W']	[2059, 986, 944, 1456, 2911, 1335, 1029, 1224, 829, 2245, 760, 4000, 1888, 2670, 697, 2448]	12	Present	NA	NA	PRESENT	0.18481111526489255	293.57800602912903	295.5793628692627	296.62937002176005	296.9793719290887	299.6894688606262	4.110105991363525	[293.5905659198761, 293.70729303359985, 294.6727888584137, 294.85872888565063, 295.60927391052246, 295.72603583335876, 295.8429310321808, 295.9597179889679, 296.0765130519867, 296.1931748390198, 296.3103039264679, 296.426805973053, 296.5436098575592, 296.66031098365784, 296.77720499038696, 296.8939788341522, 297.0106999874115, 297.1107020378113, 297.2274868488312, 297.34428691864014, 297.46108984947205, 297.6894688606262]	[293.58560094823406, 293.7022676148941, 294.6852676148941, 294.8519676148941, 295.6019676148941, 295.7186342815541, 295.8353009482141, 295.95196761487415, 296.0686342815342, 296.1853009481942, 296.3019676148542, 296.41863428151424, 296.53530094817427, 296.6519676148343, 296.7686342814943, 296.88530094815434, 297.00196761481436, 297.1186342814744, 297.2353009481344, 297.35196761479443, 297.46863428145446, 297.7019676147878]	2021_Feb_02_1359	59.941234980049614	1	0.375
20	50	FALSE	NV	a	['G', 'W', 'N', 'V', 'P', 'Y', 'M', 'B', 'C', 'X', 'Z', 'E', 'S', 'T', 'K', 'U']	[944, 2448, 1335, 2245, 1456, 2670, 1224, 760, 829, 4000, 2911, 904, 1731, 1888, 1122, 2059]	10	Present	NA	NA	PRESENT	0.2291710376739502	299.68448090553284	301.6958918571472	302.5125666299989	302.86256853732755	305.80583596229553	4.109944105148315	[299.6970410346985, 299.8138608932495, 300.7891550064087, 300.96490001678467, 301.71565985679626, 301.83271288871765, 301.94949102401733, 302.0662670135498, 302.18296694755554, 302.2998080253601, 302.41660594940186, 302.5333569049835, 302.64997601509094, 302.7667169570923, 302.88362288475037, 303.0004529953003, 303.1172149181366, 303.2339668273926, 303.3509440422058, 303.4676299095154, 303.58457684516907, 303.80583596229553]	[299.7019676147878, 299.8186342814478, 300.80163428144783, 300.9683342814478, 301.7183342814478, 301.83500094810785, 301.95166761476787, 302.0683342814279, 302.1850009480879, 302.30166761474794, 302.41833428140797, 302.535000948068, 302.651667614728, 302.76833428138804, 302.88500094804806, 303.0016676147081, 303.1183342813681, 303.23500094802813, 303.35166761468815, 303.4683342813482, 303.5850009480082, 303.81833428134155]	2021_Feb_02_1359	59.941234980049614	1	0.375
20	51	FALSE	NN	a	['P', 'E', 'K', 'M', 'R', 'Z', 'A', 'T', 'C', 'Y', 'N', 'H', 'S', 'U', 'G', 'V']	[1456, 904, 1122, 1224, 1587, 2911, 697, 1888, 829, 2670, 1335, 986, 1731, 2059, 944, 2245]	14	Absent	NA	NA	ABSENT	0.24161386489868164	305.807981967926	307.8120460510254	309.0953872520985	309.4453893978457	311.92220282554626	4.110156774520874	[305.8205418586731, 305.93698596954346, 306.90552401542664, 307.0882399082184, 307.8388628959656, 307.95580983161926, 308.0726020336151, 308.1892309188843, 308.30612301826477, 308.42280197143555, 308.53976702690125, 308.65662693977356, 308.77326488494873, 308.88996601104736, 309.0067310333252, 309.12356305122375, 309.24035382270813, 309.3572618961334, 309.4738709926605, 309.5907428264618, 309.70754289627075, 309.92220401763916]	[305.81833428134155, 305.9350009480016, 306.9180009480016, 307.08470094800157, 307.83470094800157, 307.9513676146616, 308.0680342813216, 308.18470094798164, 308.30136761464166, 308.4180342813017, 308.5347009479617, 308.65136761462173, 308.76803428128176, 308.8847009479418, 309.0013676146018, 309.1180342812618, 309.23470094792185, 309.3513676145819, 309.4680342812419, 309.5847009479019, 309.70136761456195, 309.9347009478953]	2021_Feb_02_1359	59.941234980049614	1	0.375
20	52	FALSE	NA	a	['R', 'S', 'H', 'W', 'U', 'Y', 'B', 'Z', 'V', 'K', 'X', 'G', 'A', 'N', 'P', 'E']	[1587, 1731, 986, 2448, 2059, 2670, 760, 2911, 2245, 1122, 4000, 944, 697, 1335, 1456, 904]	11	Present	NA	NA	PRESENT	0.3271210193634033	311.93083906173706	313.92860889434814	314.86195033385985	315.21195224118844	318.03856897354126	4.109960079193115	[311.94339990615845, 312.06021785736084, 313.02188992500305, 313.19453287124634, 313.9621798992157, 314.06235790252686, 314.1790769100189, 314.2959258556366, 314.4125089645386, 314.52938985824585, 314.6460828781128, 314.7629358768463, 314.8796720504761, 314.9965739250183, 315.1132378578186, 315.22998785972595, 315.3469228744507, 315.46353697776794, 315.5808939933777, 315.69727301597595, 315.8140959739685, 316.03856897354126]	[311.9347009478953, 312.0513676145553, 313.0343676145553, 313.2010676145553, 313.9510676145553, 314.06773428121534, 314.18440094787536, 314.3010676145354, 314.4177342811954, 314.53440094785543, 314.65106761451545, 314.7677342811755, 314.8844009478355, 315.0010676144955, 315.11773428115555, 315.2344009478156, 315.3510676144756, 315.4677342811356, 315.58440094779564, 315.70106761445567, 315.8177342811157, 316.05106761444904]	2021_Feb_02_1359	59.941234980049614	1	0.375
20	53	FALSE	NV	a	['U', 'S', 'B', 'M', 'E', 'T', 'Y', 'R', 'Z', 'V', 'K', 'N', 'X', 'A', 'W', 'J']	[2059, 1731, 760, 1224, 904, 1888, 2670, 1587, 2911, 2245, 1122, 1335, 4000, 697, 2448, 1029]	13	Present	NA	NA	PRESENT	0.25971293449401855	318.03739404678345	320.0448179244995	321.2114926973312	321.56149460465986	324.154935836792	4.1101179122924805	[318.04995489120483, 318.1667158603668, 319.13825583457947, 319.3177499771118, 320.06858682632446, 320.1854360103607, 320.3023359775543, 320.4190719127655, 320.5357208251953, 320.65272402763367, 320.769455909729, 320.8862638473511, 321.00296998023987, 321.1195340156555, 321.23656582832336, 321.35326504707336, 321.47015285491943, 321.5868580341339, 321.7036700248718, 321.82035994529724, 321.93733382225037, 322.154935836792]	[318.05106761444904, 318.16773428110906, 319.15073428110907, 319.31743428110906, 320.06743428110906, 320.1841009477691, 320.3007676144291, 320.41743428108913, 320.53410094774915, 320.6507676144092, 320.7674342810692, 320.8841009477292, 321.00076761438925, 321.11743428104927, 321.2341009477093, 321.3507676143693, 321.46743428102934, 321.58410094768936, 321.7007676143494, 321.8174342810094, 321.93410094766944, 322.1674342810028]	2021_Feb_02_1359	59.941234980049614	1	0.375
20	54	FALSE	NN	a	['U', 'E', 'S', 'K', 'N', 'H', 'R', 'V', 'A', 'W', 'M', 'C', 'B', 'Y', 'P', 'G']	[2059, 904, 1731, 1122, 1335, 986, 1587, 2245, 697, 2448, 1224, 829, 760, 2670, 1456, 944]	11	Absent	NA	NA	ABSENT	0.25702786445617676	324.16037702560425	326.1613688468933	327.0947093327307	327.4447112400593	330.271301984787	4.109933137893677	[324.1729369163513, 324.2896659374237, 325.25462102890015, 325.44091987609863, 326.1920590400696, 326.3086178302765, 326.425194978714, 326.5422668457031, 326.65891289711, 326.7756459712982, 326.875776052475, 326.99256682395935, 327.10940194129944, 327.22600984573364, 327.3427758216858, 327.45970487594604, 327.5764138698578, 327.69322395324707, 327.81007289886475, 327.92682790756226, 328.04362392425537, 328.271301984787]	[324.1674342810028, 324.2841009476628, 325.2671009476628, 325.4338009476628, 326.1838009476628, 326.3004676143228, 326.41713428098285, 326.5338009476429, 326.6504676143029, 326.7671342809629, 326.88380094762294, 327.00046761428297, 327.117134280943, 327.233800947603, 327.35046761426304, 327.46713428092306, 327.5838009475831, 327.7004676142431, 327.81713428090313, 327.93380094756316, 328.0504676142232, 328.28380094755653]	2021_Feb_02_1359	59.941234980049614	1	0.375
20	55	FALSE	NA	a	['U', 'Y', 'W', 'E', 'J', 'K', 'P', 'X', 'A', 'V', 'B', 'T', 'G', 'N', 'S', 'C']	[2059, 2670, 2448, 904, 1029, 1122, 1456, 4000, 697, 2245, 760, 1888, 944, 1335, 1731, 829]	8	Present	NA	NA	PRESENT	0.3413059711456299	330.2668080329895	332.27785301208496	332.8611942131981	333.2111963589453	336.3876688480377	4.109815835952759	[330.2793688774109, 330.39635396003723, 331.3709900379181, 331.54751682281494, 332.2981879711151, 332.4151659011841, 332.53192687034607, 332.6486258506775, 332.76539301872253, 332.882346868515, 332.9990608692169, 333.1159608364105, 333.2326500415802, 333.3493649959564, 333.46627593040466, 333.5828449726105, 333.69986486434937, 333.81658482551575, 333.9334309101105, 334.05002903938293, 334.16690397262573, 334.3876688480377]	[330.28380094755653, 330.40046761421655, 331.38346761421656, 331.55016761421655, 332.30016761421655, 332.41683428087657, 332.5335009475366, 332.6501676141966, 332.76683428085664, 332.88350094751667, 333.0001676141767, 333.1168342808367, 333.23350094749674, 333.35016761415676, 333.4668342808168, 333.5835009474768, 333.70016761413683, 333.81683428079685, 333.9335009474569, 334.0501676141169, 334.1668342807769, 334.4001676141103]	2021_Feb_02_1359	59.941234980049614	1	0.375
20	56	FALSE	NN	a	['E', 'V', 'B', 'S', 'U', 'K', 'T', 'W', 'M', 'H', 'G', 'Y', 'J', 'A', 'P', 'R']	[904, 2245, 760, 1731, 2059, 1122, 1888, 2448, 1224, 986, 944, 2670, 1029, 697, 1456, 1587]	13	Absent	NA	NA	ABSENT	0.07406497001647949	336.39046907424927	338.39422607421875	339.56090060863187	339.9109025159605	342.50403594970703	4.109809875488281	[336.40302991867065, 336.51934599876404, 337.4873728752136, 337.67068099975586, 338.4215109348297, 338.5381889343262, 338.6550040245056, 338.7717819213867, 338.88878893852234, 339.00547194480896, 339.1223268508911, 339.239089012146, 339.35586500167847, 339.47265696525574, 339.58938694000244, 339.70614886283875, 339.8228209018707, 339.9398410320282, 340.05658984184265, 340.1732008457184, 340.29015588760376, 340.50403690338135]	[336.4001676141103, 336.5168342807703, 337.4998342807703, 337.6665342807703, 338.4165342807703, 338.5332009474303, 338.64986761409034, 338.76653428075036, 338.8832009474104, 338.9998676140704, 339.11653428073043, 339.23320094739046, 339.3498676140505, 339.4665342807105, 339.5832009473705, 339.69986761403055, 339.8165342806906, 339.9332009473506, 340.0498676140106, 340.16653428067065, 340.28320094733067, 340.516534280664]	2021_Feb_02_1359	59.941234980049614	1	0.375
20	57	FALSE	NN	a	['N', 'U', 'B', 'H', 'Y', 'R', 'G', 'V', 'W', 'J', 'S', 'K', 'M', 'A', 'Z', 'E']	[1335, 2059, 760, 986, 2670, 1587, 944, 2245, 2448, 1029, 1731, 1122, 1224, 697, 2911, 904]	12	Absent	NA	NA	ABSENT	0.47124218940734863	342.5134370326996	344.51055693626404	345.56056599611003	345.9105679034387	348.62040305137634	4.109846115112305	[342.52599692344666, 342.6258418560028, 343.6037230491638, 343.7771530151367, 344.52773094177246, 344.64455699920654, 344.76143193244934, 344.87837195396423, 344.99515199661255, 345.11199402809143, 345.2287118434906, 345.34538984298706, 345.46228289604187, 345.5793650150299, 345.6959660053253, 345.8124749660492, 345.92938590049744, 346.045991897583, 346.16307282447815, 346.2798819541931, 346.39662194252014, 346.62040185928345]	[342.516534280664, 342.63320094732404, 343.61620094732405, 343.78290094732404, 344.53290094732404, 344.64956761398406, 344.7662342806441, 344.8829009473041, 344.99956761396413, 345.11623428062416, 345.2329009472842, 345.3495676139442, 345.4662342806042, 345.58290094726425, 345.6995676139243, 345.8162342805843, 345.9329009472443, 346.04956761390434, 346.16623428056437, 346.2829009472244, 346.3995676138844, 346.63290094721776]	2021_Feb_02_1359	59.941234980049614	1	0.375
20	58	FALSE	AV	a	['S', 'C', 'V', 'W', 'R', 'N', 'B', 'P', 'surprise', 'Z', 'E', 'X', 'M', 'G', 'U', 'T']	[1731, 829, 2245, 2448, 1587, 1335, 760, 1456, 'stimAuditory/all_stimAuditory/118.wav', 2911, 904, 4000, 1224, 944, 2059, 1888]	12	Present	stimAuditory/all_stimAuditory/117.wav	NA	PRESENT	0.33993005752563477	348.6197500228882	350.6267740726471	351.6767819404002	352.02678384772884	354.73676896095276	4.109994888305664	[348.63230991363525, 348.7492389678955, 349.72009086608887, 349.900337934494, 350.65115189552307, 350.7678689956665, 350.88472390174866, 351.0014569759369, 351.1184320449829, 351.2349388599396, 351.35196805000305, 351.46855092048645, 351.5855269432068, 351.70217990875244, 351.8190698623657, 351.9359200000763, 352.05267095565796, 352.1693170070648, 352.2863099575043, 352.40292501449585, 352.5198588371277, 352.73676800727844]	[348.63290094721776, 348.7495676138778, 349.7325676138778, 349.8992676138778, 350.6492676138778, 350.7659342805378, 350.88260094719783, 350.99926761385785, 351.1159342805179, 351.2326009471779, 351.3492676138379, 351.46593428049795, 351.58260094715797, 351.699267613818, 351.815934280478, 351.93260094713804, 352.04926761379807, 352.1659342804581, 352.2826009471181, 352.39926761377814, 352.51593428043816, 352.7492676137715]	2021_Feb_02_1359	59.941234980049614	1	0.375
20	59	FALSE	NN	a	['B', 'J', 'V', 'A', 'Z', 'Y', 'E', 'R', 'H', 'W', 'T', 'N', 'K', 'M', 'S', 'G']	[760, 1029, 2245, 697, 2911, 2670, 904, 1587, 986, 2448, 1888, 1335, 1122, 1224, 1731, 944]	13	Absent	NA	NA	ABSENT	0.5210888385772705	354.7429869174957	356.74333596229553	357.91000954303433	358.26001168878156	360.8531358242035	4.109799861907959	[354.7555470466614, 354.8721070289612, 355.83645701408386, 356.0237920284271, 356.7743909358978, 356.87428998947144, 356.9910788536072, 357.1078748703003, 357.22465801239014, 357.34136605262756, 357.45825695991516, 357.57501888275146, 357.69179582595825, 357.8086259365082, 357.9254539012909, 358.0422320365906, 358.1590988636017, 358.27576899528503, 358.39259696006775, 358.50933384895325, 358.62626600265503, 358.8531348705292]	[354.7492676137715, 354.86593428043153, 355.84893428043154, 356.0156342804315, 356.7656342804315, 356.88230094709155, 356.9989676137516, 357.1156342804116, 357.2323009470716, 357.34896761373165, 357.46563428039167, 357.5823009470517, 357.6989676137117, 357.81563428037174, 357.93230094703176, 358.0489676136918, 358.1656342803518, 358.28230094701183, 358.39896761367186, 358.5156342803319, 358.6323009469919, 358.86563428032525]	2021_Feb_02_1359	59.941234980049614	1	0.375
20	60	FALSE	NN	a	['J', 'M', 'V', 'U', 'C', 'H', 'G', 'A', 'K', 'Y', 'E', 'P', 'N', 'S', 'W', 'Z']	[1029, 1224, 2245, 2059, 829, 986, 944, 697, 1122, 2670, 904, 1456, 1335, 1731, 2448, 2911]	10	Absent	NA	NA	ABSENT	1.021723985671997	360.8492970466614	362.8594708442688	363.67614466344617	364.02614752444913	366.9695019721985	4.1100311279296875	[360.86185693740845, 360.9788489341736, 361.9528229236603, 362.1301429271698, 362.88078904151917, 362.9974949359894, 363.1144199371338, 363.2310469150543, 363.3480658531189, 363.46473598480225, 363.5816969871521, 363.6982729434967, 363.8151488304138, 363.9320659637451, 364.0488259792328, 364.1654689311981, 364.2822639942169, 364.3990869522095, 364.51587891578674, 364.6325349807739, 364.7493939399719, 364.9695019721985]	[360.86563428032525, 360.9823009469853, 361.9653009469853, 362.1320009469853, 362.8820009469853, 362.9986676136453, 363.1153342803053, 363.23200094696534, 363.34866761362537, 363.4653342802854, 363.5820009469454, 363.69866761360544, 363.81533428026546, 363.9320009469255, 364.0486676135855, 364.16533428024553, 364.28200094690555, 364.3986676135656, 364.5153342802256, 364.6320009468856, 364.74866761354565, 364.982000946879]	2021_Feb_02_1359	59.941234980049614	1	0.375
20	61	FALSE	NV	a	['J', 'T', 'W', 'C', 'N', 'V', 'Y', 'S', 'R', 'A', 'B', 'X', 'M', 'E', 'G', 'K']	[1029, 1888, 2448, 829, 1335, 2245, 2670, 1731, 1587, 697, 760, 4000, 1224, 904, 944, 1122]	12	Present	NA	NA	PRESENT	0.2182788848876953	366.97268986701965	368.9757299423218	370.02573685640056	370.3757390021478	373.0858688354492	4.110138893127441	[366.9852499961853, 367.10198497772217, 368.0691878795624, 368.25322103500366, 369.00393891334534, 369.12070393562317, 369.2376780509949, 369.3541798591614, 369.47122383117676, 369.58794593811035, 369.70463490486145, 369.82147789001465, 369.9381730556488, 370.05495285987854, 370.1719238758087, 370.2888128757477, 370.40547704696655, 370.522274017334, 370.63893699645996, 370.7558538913727, 370.8725769519806, 371.0858688354492]	[366.982000946879, 367.098667613539, 368.081667613539, 368.248367613539, 368.998367613539, 369.11503428019904, 369.23170094685906, 369.3483676135191, 369.4650342801791, 369.58170094683913, 369.69836761349916, 369.8150342801592, 369.9317009468192, 370.04836761347923, 370.16503428013925, 370.2817009467993, 370.3983676134593, 370.5150342801193, 370.63170094677935, 370.74836761343937, 370.8650342800994, 371.09836761343274]	2021_Feb_02_1359	59.941234980049614	1	0.375
20	62	FALSE	VV	a	['W', 'G', 'B', 'R', 'U', 'M', 'E', 'S', 'H', 'surprise', 'A', 'Y', 'X', 'T', 'C', 'N']	[2448, 944, 760, 1587, 2059, 1224, 904, 1731, 986, 'stimAuditory/all_stimAuditory/108.wav', 697, 2670, 4000, 1888, 829, 1335]	13	Present	NA	NA	PRESENT	0.2316288948059082	373.07897996902466	375.09237003326416	376.2590445676773	376.6090467134245	379.2022359371186	4.10986590385437	[373.09153985977173, 373.20834493637085, 374.18555903434753, 374.35967898368835, 375.11031699180603, 375.2272980213165, 375.3439769744873, 375.4608829021454, 375.578017950058, 375.6944718360901, 375.81120800971985, 375.9279959201813, 376.0447199344635, 376.16152596473694, 376.2783830165863, 376.3952739238739, 376.51202487945557, 376.6287009716034, 376.745600938797, 376.86231994628906, 376.97899103164673, 377.20223593711853]	[373.09836761343274, 373.21503428009277, 374.19803428009277, 374.36473428009276, 375.11473428009276, 375.2314009467528, 375.3480676134128, 375.46473428007283, 375.58140094673286, 375.6980676133929, 375.8147342800529, 375.9314009467129, 376.04806761337295, 376.164734280033, 376.281400946693, 376.398067613353, 376.51473428001304, 376.63140094667307, 376.7480676133331, 376.8647342799931, 376.98140094665314, 377.2147342799865]	2021_Feb_02_1359	59.941234980049614	1	0.375
20	63	FALSE	NV	a	['N', 'S', 'W', 'M', 'A', 'V', 'U', 'K', 'C', 'J', 'H', 'X', 'B', 'Y', 'R', 'Z']	[1335, 1731, 2448, 1224, 697, 2245, 2059, 1122, 829, 1029, 986, 4000, 760, 2670, 1587, 2911]	12	Present	NA	NA	PRESENT	0.4761481285095215	379.2022099494934	381.2089049816131	382.25892190927226	382.6089240550195	385.31860303878784	4.109698057174683	[379.2147698402405, 379.33169198036194, 380.3019218444824, 380.48284697532654, 381.23357796669006, 381.3502838611603, 381.46729588508606, 381.58386301994324, 381.70080184936523, 381.81762504577637, 381.93444204330444, 382.05122685432434, 382.1680040359497, 382.2846360206604, 382.4016709327698, 382.51836705207825, 382.6352059841156, 382.7519578933716, 382.8685760498047, 382.9854829311371, 383.10208201408386, 383.31860303878784]	[379.2147342799865, 379.3314009466465, 380.3144009466465, 380.4811009466465, 381.2311009466465, 381.34776761330653, 381.46443427996655, 381.5811009466266, 381.6977676132866, 381.8144342799466, 381.93110094660665, 382.04776761326667, 382.1644342799267, 382.2811009465867, 382.39776761324674, 382.51443427990677, 382.6311009465668, 382.7477676132268, 382.86443427988684, 382.98110094654686, 383.0977676132069, 383.33110094654023]	2021_Feb_02_1359	59.941234980049614	1	0.375
20	64	FALSE	NV	a	['G', 'N', 'P', 'C', 'T', 'S', 'B', 'X', 'W', 'M', 'V', 'J', 'Y', 'H', 'R', 'Z']	[944, 1335, 1456, 829, 1888, 1731, 760, 4000, 2448, 1224, 2245, 1029, 2670, 986, 1587, 2911]	8	Present	NA	NA	PRESENT	0.4014551639556885	385.32534193992615	387.3247630596161	387.9081042607292	388.2581064064764	391.43496894836426	4.110205888748169	[385.3379018306732, 385.4547049999237, 386.4182879924774, 386.60645484924316, 387.35682702064514, 387.45671796798706, 387.5735378265381, 387.6903178691864, 387.8071069717407, 387.92392086982727, 388.0407898426056, 388.15749502182007, 388.2743818759918, 388.39116883277893, 388.508113861084, 388.6249330043793, 388.74167799949646, 388.85824394226074, 388.9752140045166, 389.0919668674469, 389.2088210582733, 389.43496894836426]	[385.33110094654023, 385.44776761320026, 386.43076761320026, 386.59746761320025, 387.34746761320025, 387.4641342798603, 387.5808009465203, 387.6974676131803, 387.81413427984035, 387.93080094650037, 388.0474676131604, 388.1641342798204, 388.28080094648044, 388.39746761314046, 388.5141342798005, 388.6308009464605, 388.74746761312053, 388.86413427978056, 388.9808009464406, 389.0974676131006, 389.21413427976063, 389.447467613094]	2021_Feb_02_1359	59.941234980049614	1	0.375
20	65	FALSE	NA	a	['T', 'S', 'W', 'V', 'E', 'R', 'J', 'Z', 'H', 'B', 'N', 'C', 'A', 'X', 'M', 'U']	[1888, 1731, 2448, 2245, 904, 1587, 1029, 2911, 986, 760, 1335, 829, 697, 4000, 1224, 2059]	14	Present	NA	NA	PRESENT	0.3500950336456299	391.4318480491638	393.4412529468536	394.7245943863453	395.0745962936739	397.5513360500336	4.110083103179932	[391.4444088935852, 391.56136083602905, 392.53465604782104, 392.7126178741455, 393.4632408618927, 393.58016991615295, 393.6969578266144, 393.81369495391846, 393.9305000305176, 394.04738688468933, 394.16410303115845, 394.28076791763306, 394.397686958313, 394.51432704925537, 394.6310980319977, 394.7480218410492, 394.86489486694336, 394.98168182373047, 395.0982608795166, 395.2151429653168, 395.3320119380951, 395.55133605003357]	[391.447467613094, 391.564134279754, 392.547134279754, 392.713834279754, 393.463834279754, 393.580500946414, 393.69716761307404, 393.81383427973407, 393.9305009463941, 394.0471676130541, 394.16383427971414, 394.28050094637416, 394.3971676130342, 394.5138342796942, 394.63050094635423, 394.74716761301426, 394.8638342796743, 394.9805009463343, 395.0971676129943, 395.21383427965435, 395.3305009463144, 395.5638342796477]	2021_Feb_02_1359	59.941234980049614	1	0.375
20	66	FALSE	NN	a	['K', 'G', 'T', 'R', 'B', 'N', 'V', 'S', 'Z', 'Y', 'H', 'U', 'P', 'E', 'A', 'M']	[1122, 944, 1888, 1587, 760, 1335, 2245, 1731, 2911, 2670, 986, 2059, 1456, 904, 697, 1224]	12	Absent	NA	NA	ABSENT	0.4025249481201172	397.5555429458618	399.55752205848694	400.60752992624	400.95753207198726	403.66770195961	4.110179901123047	[397.5681028366089, 397.6844439506531, 398.6510200500488, 398.8358578681946, 399.5864448547363, 399.7031829357147, 399.8199670314789, 399.936625957489, 400.05366802215576, 400.17026805877686, 400.28723096847534, 400.40415382385254, 400.5206549167633, 400.6375620365143, 400.7543330192566, 400.87131690979004, 400.9880700111389, 401.10480284690857, 401.2215030193329, 401.33832693099976, 401.455041885376, 401.6677029132843]	[397.5638342796477, 397.68050094630775, 398.66350094630775, 398.83020094630774, 399.58020094630774, 399.69686761296776, 399.8135342796278, 399.9302009462878, 400.04686761294784, 400.16353427960786, 400.2802009462679, 400.3968676129279, 400.51353427958793, 400.63020094624795, 400.746867612908, 400.863534279568, 400.980200946228, 401.09686761288805, 401.21353427954807, 401.3302009462081, 401.4468676128681, 401.68020094620147]	2021_Feb_02_1359	59.941234980049614	1	0.375
20	67	FALSE	NV	a	['J', 'C', 'G', 'S', 'N', 'E', 'A', 'H', 'X', 'B', 'P', 'U', 'W', 'V', 'Y', 'K']	[1029, 829, 944, 1731, 1335, 904, 697, 986, 4000, 760, 1456, 2059, 2448, 2245, 2670, 1122]	9	Present	NA	NA	PRESENT	0.4954071044921875	403.6614439487457	405.67415499687195	406.3741628646451	406.72416501039226	409.7840688228607	4.1099138259887695	[403.6740038394928, 403.79096603393555, 404.7673900127411, 404.9420499801636, 405.6928539276123, 405.8097560405731, 405.9264860153198, 406.04330587387085, 406.16014790534973, 406.2769339084625, 406.39372396469116, 406.510381937027, 406.6273560523987, 406.744117975235, 406.86102294921875, 406.9777579307556, 407.0945529937744, 407.2114009857178, 407.3281478881836, 407.444669008255, 407.56165289878845, 407.7840688228607]	[403.68020094620147, 403.7968676128615, 404.7798676128615, 404.9465676128615, 405.6965676128615, 405.8132342795215, 405.92990094618153, 406.04656761284156, 406.1632342795016, 406.2799009461616, 406.3965676128216, 406.51323427948165, 406.6299009461417, 406.7465676128017, 406.8632342794617, 406.97990094612175, 407.09656761278177, 407.2132342794418, 407.3299009461018, 407.44656761276184, 407.56323427942186, 407.7965676127552]	2021_Feb_02_1359	59.941234980049614	1	0.375
20	68	FALSE	VA	a	['C', 'H', 'J', 'K', 'B', 'surprise', 'W', 'Y', 'X', 'G', 'R', 'T', 'S', 'Z', 'N', 'E']	[829, 986, 1029, 1122, 760, 'stimAuditory/all_stimAuditory/106.wav', 2448, 2670, 4000, 944, 1587, 1888, 1731, 2911, 1335, 904]	9	Present	NA	NA	PRESENT	0.34046506881713867	409.78478598594666	411.790335893631	412.4903439998227	412.8403459071513	415.90043592453	4.110100030899048	[409.7973458766937, 409.91397500038147, 410.8837568759918, 411.0654900074005, 411.8160500526428, 411.93291997909546, 412.0498540401459, 412.16656494140625, 412.28336000442505, 412.40014386177063, 412.51680994033813, 412.6337468624115, 412.7502918243408, 412.8672950267792, 412.9841539859772, 413.1008770465851, 413.2176468372345, 413.33438086509705, 413.4513289928436, 413.56794691085815, 413.68474292755127, 413.90043592453003]	[409.7965676127552, 409.91323427941524, 410.89623427941524, 411.06293427941523, 411.81293427941523, 411.92960094607525, 412.0462676127353, 412.1629342793953, 412.2796009460553, 412.39626761271535, 412.5129342793754, 412.6296009460354, 412.7462676126954, 412.86293427935544, 412.97960094601547, 413.0962676126755, 413.2129342793355, 413.32960094599554, 413.44626761265556, 413.5629342793156, 413.6796009459756, 413.91293427930896]	2021_Feb_02_1359	59.941234980049614	1	0.375
20	69	FALSE	NN	a	['S', 'E', 'W', 'T', 'C', 'M', 'R', 'P', 'J', 'V', 'U', 'H', 'Y', 'K', 'A', 'B']	[1731, 904, 2448, 1888, 829, 1224, 1587, 1456, 1029, 2245, 2059, 986, 2670, 1122, 697, 760]	9	Absent	NA	NA	ABSENT	1.4577009677886963	415.907958984375	417.9069399833679	418.60694785114106	418.9569490432139	422.01680302619934	4.109863042831421	[415.92054200172424, 416.0371458530426, 417.0001218318939, 417.171767950058, 417.93954396247864, 418.03931188583374, 418.1559989452362, 418.2728509902954, 418.3897829055786, 418.50643491744995, 418.623370885849, 418.7400848865509, 418.85701394081116, 418.97363686561584, 419.09062790870667, 419.20739102363586, 419.32415795326233, 419.4408299922943, 419.55772495269775, 419.67456793785095, 419.79127192497253, 420.01680302619934]	[415.91293427930896, 416.029600945969, 417.012600945969, 417.179300945969, 417.929300945969, 418.045967612629, 418.162634279289, 418.27930094594905, 418.39596761260907, 418.5126342792691, 418.6293009459291, 418.74596761258914, 418.86263427924916, 418.9793009459092, 419.0959676125692, 419.21263427922923, 419.32930094588926, 419.4459676125493, 419.5626342792093, 419.67930094586933, 419.79596761252935, 420.0293009458627]	2021_Feb_02_1359	59.941234980049614	1	0.375
20	70	FALSE	NV	a	['K', 'U', 'N', 'M', 'T', 'C', 'P', 'A', 'W', 'B', 'V', 'S', 'E', 'X', 'R', 'H']	[1122, 2059, 1335, 1224, 1888, 829, 1456, 697, 2448, 760, 2245, 1731, 904, 4000, 1587, 986]	14	Present	NA	NA	PRESENT	0.2303471565246582	422.01440596580505	424.0230119228363	425.306353362328	425.6563552696566	428.1331698894501	4.1101579666137695	[422.02696895599365, 422.1436688899994, 423.11648893356323, 423.2950780391693, 424.045804977417, 424.1624948978424, 424.27948784828186, 424.39600682258606, 424.5130410194397, 424.6296889781952, 424.746337890625, 424.86332392692566, 424.9800980091095, 425.0970108509064, 425.2137439250946, 425.3305058479309, 425.44722604751587, 425.5640048980713, 425.68104100227356, 425.7976930141449, 425.914253950119, 426.13316893577576]	[422.0293009458627, 422.1459676125227, 423.12896761252273, 423.2956676125227, 424.0456676125227, 424.16233427918274, 424.27900094584277, 424.3956676125028, 424.5123342791628, 424.62900094582284, 424.74566761248286, 424.8623342791429, 424.9790009458029, 425.09566761246293, 425.21233427912296, 425.329000945783, 425.445667612443, 425.562334279103, 425.67900094576305, 425.7956676124231, 425.9123342790831, 426.14566761241645]	2021_Feb_02_1359	59.941234980049614	1	0.375
20	71	FALSE	NV	a	['P', 'K', 'U', 'A', 'Z', 'M', 'T', 'J', 'C', 'G', 'E', 'X', 'R', 'H', 'B', 'W']	[1456, 1122, 2059, 697, 2911, 1224, 1888, 1029, 829, 944, 904, 4000, 1587, 986, 760, 2448]	12	Present	NA	NA	PRESENT	0.3077259063720703	428.13794803619385	430.1396570205689	431.1896639346476	431.5396658419763	434.24953603744507	4.109879016876221	[428.15050888061523, 428.2668159008026, 429.23285698890686, 429.41812896728516, 430.16893696784973, 430.2857999801636, 430.4024670124054, 430.5194180011749, 430.6359658241272, 430.75281286239624, 430.86955285072327, 430.98650884628296, 431.10335087776184, 431.22003197669983, 431.3369469642639, 431.45364594459534, 431.57031989097595, 431.68733501434326, 431.78712701797485, 431.90396785736084, 432.0207550525665, 432.24953603744507]	[428.14566761241645, 428.26233427907647, 429.2453342790765, 429.41203427907647, 430.16203427907647, 430.2787009457365, 430.3953676123965, 430.51203427905654, 430.62870094571656, 430.7453676123766, 430.8620342790366, 430.97870094569663, 431.09536761235665, 431.2120342790167, 431.3287009456767, 431.4453676123367, 431.56203427899675, 431.6787009456568, 431.7953676123168, 431.9120342789768, 432.02870094563684, 432.2620342789702]	2021_Feb_02_1359	59.941234980049614	1	0.375
20	72	FALSE	AA	a	['P', 'H', 'G', 'N', 'C', 'E', 'surprise', 'R', 'T', 'X', 'V', 'S', 'U', 'B', 'Y', 'Z']	[1456, 986, 944, 1335, 829, 904, 'stimAuditory/all_stimAuditory/123.wav', 1587, 1888, 4000, 2245, 1731, 2059, 760, 2670, 2911]	10	Present	stimAuditory/all_stimAuditory/205.wav	NA	PRESENT	0.28016114234924316	434.2439000606537	436.25598907470703	437.0726626554658	437.4226655164688	440.3659019470215	4.109912872314453	[434.25645995140076, 434.3732578754425, 435.34922194480896, 435.52472496032715, 436.2752778530121, 436.3921580314636, 436.5090708732605, 436.62580394744873, 436.7426998615265, 436.8592879772186, 436.97631001472473, 437.0930869579315, 437.2096059322357, 437.326544046402, 437.4432020187378, 437.5600860118866, 437.6773610115051, 437.79372787475586, 437.9104130268097, 438.02734088897705, 438.144161939621, 438.3659019470215]	[434.2620342789702, 434.3787009456302, 435.3617009456302, 435.5284009456302, 436.2784009456302, 436.39506761229023, 436.51173427895026, 436.6284009456103, 436.7450676122703, 436.8617342789303, 436.97840094559035, 437.0950676122504, 437.2117342789104, 437.3284009455704, 437.44506761223045, 437.56173427889047, 437.6784009455505, 437.7950676122105, 437.91173427887054, 438.02840094553056, 438.1450676121906, 438.37840094552394]	2021_Feb_02_1359	59.941234980049614	1	0.375
20	73	FALSE	NV	a	['B', 'M', 'P', 'E', 'U', 'R', 'J', 'Y', 'W', 'C', 'X', 'N', 'T', 'Z', 'H', 'A']	[760, 1224, 1456, 904, 2059, 1587, 1029, 2670, 2448, 829, 4000, 1335, 1888, 2911, 986, 697]	11	Present	NA	NA	PRESENT	0.5326669216156006	440.3672540187836	442.3722229003906	443.30556433990233	443.6555662472309	446.4822690486908	4.110046148300171	[440.37981390953064, 440.4966869354248, 441.46558904647827, 441.64795088768005, 442.3986539840698, 442.5153980255127, 442.6322419643402, 442.74904203414917, 442.86564588546753, 442.9826090335846, 443.09930205345154, 443.2163128852844, 443.33293104171753, 443.4497458934784, 443.5666198730469, 443.68340492248535, 443.8001549243927, 443.91696095466614, 444.03358697891235, 444.15059089660645, 444.2674069404602, 444.4822678565979]	[440.37840094552394, 440.49506761218396, 441.47806761218396, 441.64476761218395, 442.39476761218395, 442.511434278844, 442.628100945504, 442.744767612164, 442.86143427882405, 442.9781009454841, 443.0947676121441, 443.2114342788041, 443.32810094546414, 443.44476761212417, 443.5614342787842, 443.6781009454442, 443.79476761210424, 443.91143427876426, 444.0281009454243, 444.1447676120843, 444.26143427874433, 444.4947676120777]	2021_Feb_02_1359	59.941234980049614	1	0.375
20	74	FALSE	NV	a	['H', 'N', 'V', 'C', 'W', 'M', 'E', 'X', 'B', 'U', 'Y', 'G', 'P', 'Z', 'J', 'R']	[986, 1335, 2245, 829, 2448, 1224, 904, 4000, 760, 2059, 2670, 944, 1456, 2911, 1029, 1587]	8	Present	NA	NA	PRESENT	0.28194594383239746	446.4903109073639	448.4887239933014	449.0720642407402	449.4220663864874	452.59863686561584	4.109912872314453	[446.5028729438782, 446.61974000930786, 447.581955909729, 447.7545499801636, 448.5216369628906, 448.621976852417, 448.7387809753418, 448.85534501075745, 448.9723598957062, 449.08887791633606, 449.2059268951416, 449.3225438594818, 449.43940901756287, 449.55625891685486, 449.67305183410645, 449.78972482681274, 449.90672397613525, 450.02343702316284, 450.1400909423828, 450.25701689720154, 450.3737988471985, 450.5986359119415]	[446.4947676120777, 446.6114342787377, 447.5944342787377, 447.7611342787377, 448.5111342787377, 448.6278009453977, 448.74446761205775, 448.86113427871777, 448.9778009453778, 449.0944676120378, 449.21113427869784, 449.32780094535786, 449.4444676120179, 449.5611342786779, 449.67780094533794, 449.79446761199796, 449.911134278658, 450.027800945318, 450.14446761197803, 450.26113427863805, 450.3778009452981, 450.6111342786314]	2021_Feb_02_1359	59.941234980049614	1	0.375
20	75	FALSE	NA	a	['S', 'R', 'H', 'P', 'C', 'E', 'A', 'T', 'V', 'J', 'K', 'X', 'W', 'Y', 'N', 'U']	[1731, 1587, 986, 1456, 829, 904, 697, 1888, 2245, 1029, 1122, 4000, 2448, 2670, 1335, 2059]	12	Present	NA	NA	PRESENT	0.4545888900756836	452.5969069004059	454.6050548553467	455.6550629615183	456.0050660609399	458.7150039672851	4.109949111938477	[452.60946798324585, 452.72622084617615, 453.69832396507263, 453.87751388549805, 454.62826704978943, 454.74505591392517, 454.8619029521942, 454.97871494293213, 455.09530687332153, 455.21224784851074, 455.3290710449219, 455.44571590423584, 455.562775850296, 455.67945289611816, 455.79631185531616, 455.9131360054016, 456.0297348499298, 456.1467070579529, 456.26345682144165, 456.38018798828125, 456.4970688819885, 456.71500301361084]	[452.6111342786314, 452.72780094529145, 453.71080094529145, 453.87750094529144, 454.62750094529144, 454.74416761195147, 454.8608342786115, 454.9775009452715, 455.09416761193154, 455.21083427859156, 455.3275009452516, 455.4441676119116, 455.56083427857163, 455.67750094523166, 455.7941676118917, 455.9108342785517, 456.0275009452117, 456.14416761187175, 456.2608342785318, 456.3775009451918, 456.4941676118518, 456.72750094518517]	2021_Feb_02_1359	59.941234980049614	1	0.375
20	76	FALSE	NN	a	['M', 'B', 'C', 'Y', 'T', 'Z', 'E', 'H', 'S', 'N', 'G', 'P', 'K', 'V', 'J', 'U']	[1224, 760, 829, 2670, 1888, 2911, 904, 986, 1731, 1335, 944, 1456, 1122, 2245, 1029, 2059]	11	Absent	NA	NA	ABSENT	0.28398799896240234	458.7204749584198	460.7215008735657	461.6548523266577	462.0048551876606	464.83136892318726	4.109868049621582	[458.7330369949341, 458.84935903549194, 459.81468892097473, 460.00073289871216, 460.7516260147095, 460.86833000183105, 460.9851200580597, 461.10186791419983, 461.2185459136963, 461.335480928421, 461.45226097106934, 461.569100856781, 461.68568301200867, 461.8027448654175, 461.90249395370483, 462.0192940235138, 462.1361699104309, 462.25294303894043, 462.3697438240051, 462.4865348339081, 462.6033499240875, 462.83136892318726]	[458.72750094518517, 458.8441676118452, 459.8271676118452, 459.9938676118452, 460.7438676118452, 460.8605342785052, 460.97720094516524, 461.09386761182526, 461.2105342784853, 461.3272009451453, 461.44386761180533, 461.56053427846535, 461.6772009451254, 461.7938676117854, 461.9105342784454, 462.02720094510545, 462.1438676117655, 462.2605342784255, 462.3772009450855, 462.49386761174554, 462.61053427840557, 462.8438676117389]	2021_Feb_02_1359	59.941234980049614	1	0.375
20	77	FALSE	NA	a	['J', 'G', 'C', 'M', 'N', 'S', 'P', 'X', 'Y', 'V', 'T', 'H', 'A', 'Z', 'B', 'E']	[1029, 944, 829, 1224, 1335, 1731, 1456, 4000, 2670, 2245, 1888, 986, 697, 2911, 760, 904]	8	Present	NA	NA	PRESENT	0.37644100189208984	464.8266370296478	466.83770298957825	467.42104323701705	467.7710453827642	470.94773602485657	4.11003303527832	[464.8391978740692, 464.9559209346771, 465.93105697631836, 466.10718297958374, 466.85796904563904, 466.9746448993683, 467.0915720462799, 467.20825600624084, 467.32512497901917, 467.44193387031555, 467.5588278770447, 467.6754398345947, 467.79232382774353, 467.90908694267273, 468.0260109901428, 468.14262890815735, 468.25934886932373, 468.3763039112091, 468.4929349422455, 468.61013102531433, 468.7266528606415, 468.94773602485657]	[464.8438676117389, 464.96053427839894, 465.94353427839894, 466.11023427839893, 466.86023427839893, 466.97690094505896, 467.093567611719, 467.210234278379, 467.32690094503903, 467.44356761169905, 467.5602342783591, 467.6769009450191, 467.7935676116791, 467.91023427833915, 468.02690094499917, 468.1435676116592, 468.2602342783192, 468.37690094497924, 468.49356761163926, 468.6102342782993, 468.7269009449593, 468.96023427829266]	2021_Feb_02_1359	59.941234980049614	1	0.375
20	78	FALSE	NN	a	['H', 'V', 'T', 'W', 'P', 'Z', 'E', 'B', 'K', 'Y', 'J', 'N', 'M', 'R', 'S', 'C']	[986, 2245, 1888, 2448, 1456, 2911, 904, 760, 1122, 2670, 1029, 1335, 1224, 1587, 1731, 829]	14	Absent	NA	NA	ABSENT	0.14882302284240723	470.9498369693756	472.9541299343109	474.2374713738026	474.5874732811312	477.064101934433	4.10997200012207	[470.9623980522156, 471.07918095588684, 472.0474228858948, 472.2304308414459, 472.9811818599701, 473.09804105758667, 473.2146968841553, 473.3316168785095, 473.44819593429565, 473.5650939941406, 473.68193793296814, 473.7987358570099, 473.9154510498047, 474.03225803375244, 474.14914083480835, 474.26591086387634, 474.38259291648865, 474.4994218349457, 474.61620593070984, 474.73301100730896, 474.8498239517212, 475.064101934433]	[470.96023427829266, 471.0769009449527, 472.0599009449527, 472.2266009449527, 472.9766009449527, 473.0932676116127, 473.2099342782727, 473.32660094493275, 473.4432676115928, 473.5599342782528, 473.6766009449128, 473.79326761157284, 473.90993427823287, 474.0266009448929, 474.1432676115529, 474.25993427821294, 474.37660094487296, 474.493267611533, 474.609934278193, 474.72660094485303, 474.84326761151306, 475.0766009448464]	2021_Feb_02_1359	59.941234980049614	1	0.375
20	79	FALSE	NN	a	['C', 'K', 'J', 'U', 'Z', 'S', 'V', 'P', 'H', 'W', 'B', 'R', 'E', 'N', 'A', 'G']	[829, 1122, 1029, 2059, 2911, 1731, 2245, 1456, 986, 2448, 760, 1587, 904, 1335, 697, 944]	12	Absent	NA	NA	ABSENT	1.177944898605347	477.0730278491974	479.0704958438874	480.120503950059	480.4705058573877	483.1804690361023	4.109973192214966	[477.08559703826904, 477.1854908466339, 478.1637899875641, 478.3366370201111, 479.0877878665924, 479.2045979499817, 479.3210530281067, 479.4378390312195, 479.55473589897156, 479.671560049057, 479.7884089946747, 479.9049849510193, 480.02195596694946, 480.1386909484863, 480.2553949356079, 480.37232303619385, 480.48915791511536, 480.6059219837189, 480.7227909564972, 480.83948588371277, 480.95641803741455, 481.1804690361023]	[477.0766009448464, 477.1932676115064, 478.17626761150643, 478.3429676115064, 479.0929676115064, 479.20963427816645, 479.32630094482647, 479.4429676114865, 479.5596342781465, 479.67630094480654, 479.79296761146657, 479.9096342781266, 480.0263009447866, 480.14296761144664, 480.25963427810666, 480.3763009447667, 480.4929676114267, 480.60963427808673, 480.72630094474675, 480.8429676114068, 480.9596342780668, 481.19296761140015]	2021_Feb_02_1359	59.941234980049614	1	0.375
