participant	trial_num	practice	task	condition	RSVP	RAP	probePos	probe_presence	surprise_sound	surprise_img	probe_response	probe_resp_time	first_fixation_time	trial_start_time	surprise_start_time	probe_start_time	trial_end_time	trial_duration	actualEventTimes	plannedEventTimes	date	framerate	marker_vol	RAP_vol
17	1	FALSE	NA	a	['Y', 'U', 'J', 'W', 'C', 'A', 'B', 'S', 'G', 'X', 'P', 'H', 'Z', 'K', 'E', 'R']	[2670, 2059, 1029, 2448, 829, 697, 760, 1731, 944, 4000, 1456, 986, 2911, 1122, 904, 1587]	10	Present	NA	NA	PRESENT	0.42517590522766113	2.1457672119140625e-6	1.9951090812683103	2.811784807794316	3.161787668797266	6.103870868682861	4.108761787414551	[0.01428985595703125, 0.11409687995910645, 1.0871899127960205, 1.265185832977295, 2.01595401763916, 2.1330149173736572, 2.2496438026428223, 2.3664729595184326, 2.483186960220337, 2.6000938415527344, 2.716728925704956, 2.833530902862549, 2.950467824935913, 3.0671749114990234, 3.1839518547058105, 3.3009610176086426, 3.417712926864624, 3.5345168113708496, 3.6512038707733154, 3.7679758071899414, 3.8849539756774902, 4.1038689613342285]	[9.5367431640625e-07, 0.11666762033431641, 1.0996676203343163, 1.2663676203343164, 2.016367620334316, 2.133034286994316, 2.249700953654316, 2.3663676203143162, 2.4830342869743163, 2.5997009536343163, 2.7163676202943163, 2.8330342869543164, 2.9497009536143164, 3.0663676202743164, 3.1830342869343164, 3.2997009535943165, 3.4163676202543165, 3.5330342869143165, 3.6497009535743166, 3.7663676202343166, 3.8830342868943166, 4.11636762022765]	2021_Feb_01_1133	59.96780216920732	1	0.375
17	2	FALSE	NA	a	['Z', 'H', 'N', 'P', 'G', 'R', 'S', 'X', 'W', 'U', 'B', 'E', 'K', 'Y', 'V', 'M']	[2911, 986, 1335, 1456, 944, 1587, 1731, 4000, 2448, 2059, 760, 904, 1122, 2670, 2245, 1224]	8	Present	NA	NA	PRESENT	0.37401700019836426	6.106174945831299	8.10862398147583	8.69196542100752	9.041967328336153	12.22023582458496	4.111611843109131	[6.120462894439697, 6.237283945083618, 7.203557014465332, 7.388530969619751, 8.139241933822632, 8.256155014038086, 8.37276291847229, 8.489512920379639, 8.606542825698853, 8.723305940628052, 8.840115785598755, 8.956907987594604, 9.073683977127075, 9.190321922302246, 9.307330846786499, 9.423945903778076, 9.540905952453613, 9.657518863677979, 9.774312019348145, 9.891420841217041, 10.008116006851196, 10.220235824584961]	[6.11636762022765, 6.23303428688765, 7.216034286887649, 7.382734286887649, 8.132734286887649, 8.24940095354765, 8.36606762020765, 8.48273428686765, 8.59940095352765, 8.716067620187651, 8.832734286847652, 8.949400953507652, 9.066067620167653, 9.182734286827653, 9.299400953487654, 9.416067620147654, 9.532734286807655, 9.649400953467655, 9.766067620127656, 9.882734286787656, 9.999400953447656, 10.232734286780989]	2021_Feb_01_1133	59.96780216920732	1	0.375
17	3	FALSE	NV	a	['G', 'P', 'E', 'V', 'B', 'N', 'W', 'X', 'C', 'T', 'H', 'Z', 'U', 'A', 'J', 'Y']	[944, 1456, 904, 2245, 760, 1335, 2448, 4000, 829, 1888, 986, 2911, 2059, 697, 1029, 2670]	8	Present	NA	NA	PRESENT	0.4992358684539795	12.212527990341188	14.224766969680786	14.808108409212476	15.158110316541109	18.336601972579956	4.11183500289917	[12.226813793182373, 12.343597888946533, 13.319929838180542, 13.495154857635498, 14.245642900466919, 14.362527847290039, 14.47941780090332, 14.596195936203003, 14.71290397644043, 14.829778909683228, 14.946494817733765, 15.06344985961914, 15.180233001708984, 15.296917915344238, 15.413866996765137, 15.53056287765503, 15.6472749710083, 15.764041900634766, 15.880903005599976, 15.997763872146606, 16.11451292037964, 16.336602926254272]	[12.232734286780989, 12.34940095344099, 13.33240095344099, 13.49910095344099, 14.24910095344099, 14.365767620100991, 14.482434286760991, 14.599100953420992, 14.715767620080992, 14.832434286740993, 14.949100953400993, 15.065767620060994, 15.182434286720994, 15.299100953380995, 15.415767620040995, 15.532434286700996, 15.649100953360996, 15.765767620020997, 15.882434286680997, 15.999100953340998, 16.115767620000998, 16.349100953334332]	2021_Feb_01_1133	59.96780216920732	1	0.375
17	4	FALSE	NN	a	['S', 'H', 'A', 'B', 'R', 'U', 'M', 'V', 'J', 'Y', 'E', 'G', 'N', 'P', 'Z', 'K']	[1731, 986, 697, 760, 1587, 2059, 1224, 2245, 1029, 2670, 904, 944, 1335, 1456, 2911, 1122]	12	Absent	NA	NA	ABSENT	0.4878079891204834	18.33576011657715	20.341222047805783	21.391230153977475	21.741232061306107	24.452969789505005	4.111747741699219	[18.350047826766968, 18.466965913772583, 19.436291933059692, 19.61826992034912, 20.36931085586548, 20.485912799835205, 20.602563858032227, 20.71940279006958, 20.836078882217407, 20.95292091369629, 21.069804906845093, 21.186522006988525, 21.303269863128662, 21.42013192176819, 21.536978006362915, 21.653604984283447, 21.770489931106567, 21.887195825576782, 22.00421690940857, 22.120980978012085, 22.237801790237427, 22.45296883583069]	[18.349100953334332, 18.46576761999433, 19.44876761999433, 19.61546761999433, 20.36546761999433, 20.48213428665433, 20.598800953314328, 20.715467619974326, 20.832134286634325, 20.948800953294324, 21.065467619954322, 21.18213428661432, 21.29880095327432, 21.41546761993432, 21.532134286594317, 21.648800953254316, 21.765467619914315, 21.882134286574313, 21.998800953234312, 22.11546761989431, 22.23213428655431, 22.465467619887644]	2021_Feb_01_1133	59.96780216920732	1	0.375
17	5	FALSE	NA	a	['J', 'N', 'A', 'U', 'B', 'M', 'S', 'V', 'T', 'Y', 'W', 'C', 'X', 'G', 'K', 'R']	[1029, 1335, 697, 2059, 760, 1224, 1731, 2245, 1888, 2670, 2448, 829, 4000, 944, 1122, 1587]	13	Present	NA	NA	PRESENT	0.4528710842132568	24.45907616615295	26.45768713951111	27.62436167392422	27.97436381967143	30.569336891174316	4.111649751663208	[24.473362922668457, 24.59006094932556, 25.55265998840332, 25.724565982818604, 26.492477893829346, 26.59224581718445, 26.708927869796753, 26.82588481903076, 26.942539930343628, 27.05951189994812, 27.17616581916809, 27.293113946914673, 27.409671783447266, 27.526691913604736, 27.643454790115356, 27.760193824768066, 27.876896858215332, 27.993788957595825, 28.110628843307495, 28.227434873580933, 28.34409785270691, 28.569336891174316]	[24.465467619887644, 24.582134286547642, 25.565134286547643, 25.73183428654764, 26.48183428654764, 26.59850095320764, 26.71516761986764, 26.831834286527638, 26.948500953187636, 27.065167619847635, 27.181834286507634, 27.298500953167633, 27.41516761982763, 27.53183428648763, 27.64850095314763, 27.765167619807627, 27.881834286467626, 27.998500953127625, 28.115167619787623, 28.231834286447622, 28.34850095310762, 28.581834286440955]	2021_Feb_01_1133	59.96780216920732	1	0.375
17	6	FALSE	NV	a	['M', 'P', 'Y', 'S', 'A', 'G', 'U', 'H', 'X', 'E', 'J', 'K', 'V', 'B', 'R', 'N']	[1224, 1456, 2670, 1731, 697, 944, 2059, 986, 4000, 904, 1029, 1122, 2245, 760, 1587, 1335]	9	Present	NA	NA	PRESENT	0.665377140045166	30.56581401824951	32.57406306266785	33.27406997676664	33.62407212251385	36.68570399284363	4.111640930175781	[30.58010196685791, 30.696635007858276, 31.66902995109558, 31.847906827926636, 32.59863495826721, 32.71533393859863, 32.83215284347534, 32.94885778427124, 33.06586480140686, 33.182602882385254, 33.29938793182373, 33.4161479473114, 33.533092975616455, 33.64991784095764, 33.766496896743774, 33.88348698616028, 34.00014281272888, 34.1169228553772, 34.23383593559265, 34.35054898262024, 34.46743083000183, 34.68570280075073]	[30.581834286440955, 30.698500953100954, 31.681500953100954, 31.848200953100953, 32.59820095310096, 32.71486761976096, 32.83153428642096, 32.94820095308096, 33.064867619740966, 33.18153428640097, 33.29820095306097, 33.41486761972097, 33.531534286380975, 33.64820095304098, 33.76486761970098, 33.88153428636098, 33.998200953020984, 34.114867619680986, 34.23153428634099, 34.34820095300099, 34.46486761966099, 34.69820095299433]	2021_Feb_01_1133	59.96780216920732	1	0.375
17	7	FALSE	NA	a	['S', 'W', 'C', 'V', 'Y', 'T', 'K', 'N', 'P', 'R', 'A', 'X', 'H', 'Z', 'B', 'G']	[1731, 2448, 829, 2245, 2670, 1888, 1122, 1335, 1456, 1587, 697, 4000, 986, 2911, 760, 944]	12	Present	NA	NA	PRESENT	0.5030069351196289	36.688913106918335	38.69035816192627	39.74036602967938	40.09036793700801	42.802079916000366	4.111721754074097	[36.70319890975952, 36.81999182701111, 37.78539180755615, 37.971019983291626, 38.721923828125, 38.83857178688049, 38.95555400848389, 39.07229399681091, 39.189082860946655, 39.305938959121704, 39.422688007354736, 39.539344787597656, 39.65620279312134, 39.7730598449707, 39.88988995552063, 40.00644779205322, 40.123313903808594, 40.22337985038757, 40.3401038646698, 40.45690178871155, 40.573718786239624, 40.80206894874573]	[36.69820095299433, 36.81486761965433, 37.797867619654326, 37.964567619654325, 38.714567619654325, 38.83123428631433, 38.94790095297433, 39.06456761963433, 39.181234286294334, 39.297900952954336, 39.41456761961434, 39.53123428627434, 39.64790095293434, 39.764567619594345, 39.88123428625435, 39.99790095291435, 40.11456761957435, 40.231234286234354, 40.347900952894356, 40.46456761955436, 40.58123428621436, 40.814567619547695]	2021_Feb_01_1133	59.96780216920732	1	0.375
17	8	FALSE	VA	a	['A', 'Y', 'G', 'S', 'N', 'V', 'M', 'P', 'H', 'surprise', 'T', 'U', 'X', 'B', 'W', 'C']	[697, 2670, 944, 1731, 1335, 2245, 1224, 1456, 986, 'stimAuditory/all_stimAuditory/120.wav', 1888, 2059, 4000, 760, 2448, 829]	13	Present	NA	NA	PRESENT	0.9870820045471193	42.795177936553955	44.806544065475464	45.973218599888575	46.32322074563579	48.918437004089355	4.111892938613892	[42.80946588516235, 42.92637085914612, 43.90176200866699, 44.07746195793152, 44.828258991241455, 44.94537281990051, 45.06186294555664, 45.178812980651855, 45.2954888343811, 45.4124059677124, 45.52924084663391, 45.645938873291016, 45.76265788078308, 45.87953495979309, 45.99639892578125, 46.11317491531372, 46.23000192642212, 46.34669780731201, 46.463305950164795, 46.58027386665344, 46.697105884552, 46.918437004089355]	[42.814567619547695, 42.9312342862077, 43.914234286207694, 44.08093428620769, 44.83093428620769, 44.947600952867695, 45.0642676195277, 45.1809342861877, 45.2976009528477, 45.414267619507704, 45.53093428616771, 45.64760095282771, 45.76426761948771, 45.88093428614771, 45.997600952807716, 46.11426761946772, 46.23093428612772, 46.34760095278772, 46.464267619447725, 46.58093428610773, 46.69760095276773, 46.93093428610106]	2021_Feb_01_1133	59.96780216920732	1	0.375
17	9	FALSE	NN	a	['C', 'H', 'J', 'A', 'E', 'P', 'G', 'B', 'R', 'K', 'Y', 'W', 'U', 'N', 'M', 'V']	[829, 986, 1029, 697, 904, 1456, 944, 760, 1587, 1122, 2670, 2448, 2059, 1335, 1224, 2245]	12	Absent	NA	NA	ABSENT	0.4641578197479248	48.918377161026	50.92297101020813	51.97297911637982	52.32298102370845	55.03480291366577	4.111831903457642	[48.932663917541504, 49.04957699775696, 50.018126010894775, 50.20115900039673, 50.9515860080719, 51.06843280792236, 51.18536186218262, 51.30193090438843, 51.41888999938965, 51.53560400009155, 51.652153968811035, 51.768975019454956, 51.88592290878296, 52.002776861190796, 52.119489908218384, 52.236347913742065, 52.352898836135864, 52.469878911972046, 52.58659887313843, 52.70341491699219, 52.82032084465027, 53.034801959991455]	[48.93093428610106, 49.047600952761066, 50.03060095276106, 50.19730095276106, 50.94730095276106, 51.063967619421064, 51.180634286081066, 51.29730095274107, 51.41396761940107, 51.53063428606107, 51.647300952721075, 51.76396761938108, 51.88063428604108, 51.99730095270108, 52.113967619361084, 52.230634286021086, 52.34730095268109, 52.46396761934109, 52.58063428600109, 52.697300952661095, 52.8139676193211, 53.04730095265443]	2021_Feb_01_1133	59.96780216920732	1	0.375
17	10	FALSE	NA	a	['Y', 'W', 'M', 'U', 'T', 'P', 'V', 'J', 'S', 'R', 'K', 'X', 'A', 'H', 'Z', 'G']	[2670, 2448, 1224, 2059, 1888, 1456, 2245, 1029, 1731, 1587, 1122, 4000, 697, 986, 2911, 944]	12	Present	NA	NA	PRESENT	0.14125800132751465	55.04175806045532	57.03952097892761	58.0895290850993	58.43953099242793	61.15117001533508	4.111649036407471	[55.056044816970825, 55.155911922454834, 56.13449287414551, 56.307164907455444, 57.07478594779968, 57.17490601539612, 57.291788816452026, 57.408456802368164, 57.52529788017273, 57.641971826553345, 57.758673906326294, 57.87562894821167, 57.992435932159424, 58.109241008758545, 58.225775957107544, 58.34257793426514, 58.459606885910034, 58.57618594169617, 58.69322085380554, 58.8099730014801, 58.926843881607056, 59.15117001533508]	[55.04730095265443, 55.163967619314434, 56.14696761931443, 56.31366761931443, 57.06366761931443, 57.18033428597443, 57.297000952634434, 57.413667619294436, 57.53033428595444, 57.64700095261444, 57.76366761927444, 57.880334285934445, 57.99700095259445, 58.11366761925445, 58.23033428591445, 58.347000952574454, 58.46366761923446, 58.58033428589446, 58.69700095255446, 58.81366761921446, 58.930334285874466, 59.1636676192078]	2021_Feb_01_1133	59.96780216920732	1	0.375
17	11	FALSE	NV	a	['S', 'A', 'P', 'J', 'B', 'Y', 'E', 'N', 'R', 'X', 'K', 'M', 'Z', 'U', 'H', 'W']	[1731, 697, 1456, 1029, 760, 2670, 904, 1335, 1587, 4000, 1122, 1224, 2911, 2059, 986, 2448]	10	Present	NA	NA	PRESENT	0.22574496269226071	61.14856195449829	63.15574097633362	63.97241574918531	64.32241765651393	67.26753687858582	4.111795902252197	[61.16284990310669, 61.279358863830566, 62.250858783721924, 62.43056797981262, 63.18119978904724, 63.298110008239746, 63.41484999656677, 63.53170394897461, 63.648260831832886, 63.76536798477173, 63.88193678855896, 63.99860882759094, 64.11566686630249, 64.23233985900879, 64.34926986694336, 64.46582078933716, 64.58276295661926, 64.69961881637573, 64.8163468837738, 64.93320083618164, 65.04981994628906, 65.2675359249115]	[61.1636676192078, 61.2803342858678, 62.2633342858678, 62.4300342858678, 63.1800342858678, 63.2967009525278, 63.4133676191878, 63.530034285847805, 63.64670095250781, 63.76336761916781, 63.88003428582781, 63.996700952487814, 64.11336761914781, 64.2300342858078, 64.3467009524678, 64.4633676191278, 64.58003428578779, 64.69670095244778, 64.81336761910778, 64.93003428576777, 65.04670095242777, 65.2800342857611]	2021_Feb_01_1133	59.96780216920732	1	0.375
17	12	FALSE	NA	a	['V', 'A', 'M', 'N', 'H', 'G', 'S', 'Z', 'J', 'K', 'T', 'X', 'R', 'E', 'B', 'W']	[2245, 697, 1224, 1335, 986, 944, 1731, 2911, 1029, 1122, 1888, 4000, 1587, 904, 760, 2448]	12	Present	NA	NA	PRESENT	0.30309009552001953	67.27137613296509	69.27227807044983	70.32228593820294	70.67228808395015	73.38390398025513	4.111625909805298	[67.28568482398987, 67.40237188339233, 68.36722993850708, 68.55374479293823, 69.30463480949402, 69.42109298706055, 69.53819990158081, 69.65475392341614, 69.77158093452454, 69.88843297958374, 69.98831582069397, 70.10518288612366, 70.22198295593262, 70.33867192268372, 70.45556282997131, 70.57225680351257, 70.6891098022461, 70.80589199066162, 70.9229199886322, 71.0394868850708, 71.15645289421082, 71.38390398025513]	[67.2800342857611, 67.3967009524211, 68.3797009524211, 68.54640095242111, 69.29640095242111, 69.4130676190811, 69.5297342857411, 69.6464009524011, 69.76306761906109, 69.87973428572109, 69.99640095238108, 70.11306761904108, 70.22973428570107, 70.34640095236107, 70.46306761902106, 70.57973428568106, 70.69640095234105, 70.81306761900105, 70.92973428566104, 71.04640095232104, 71.16306761898103, 71.39640095231437]	2021_Feb_01_1133	59.96780216920732	1	0.375
17	13	FALSE	NV	a	['G', 'C', 'B', 'Z', 'K', 'U', 'P', 'E', 'Y', 'J', 'M', 'X', 'S', 'T', 'A', 'V']	[944, 829, 760, 2911, 1122, 2059, 1456, 904, 2670, 1029, 1224, 4000, 1731, 1888, 697, 2245]	12	Present	NA	NA	PRESENT	0.49937009811401367	73.37787008285522	75.38860011100769	76.4386079787608	76.78861012450801	79.50026893615723	4.111668825149536	[73.39215683937073, 73.50900387763977, 74.48359298706055, 74.66013693809509, 75.4108498096466, 75.52787184715271, 75.64437699317932, 75.76138091087341, 75.87811088562012, 75.99494290351868, 76.1115608215332, 76.22846484184265, 76.34521484375, 76.46199178695679, 76.57889199256897, 76.69548082351685, 76.8125410079956, 76.92931580543518, 77.04603791236877, 77.16292190551758, 77.27964401245117, 77.50026988983154]	[73.39640095231437, 73.51306761897436, 74.49606761897437, 74.66276761897437, 75.41276761897437, 75.52943428563437, 75.64610095229436, 75.76276761895436, 75.87943428561435, 75.99610095227435, 76.11276761893434, 76.22943428559434, 76.34610095225433, 76.46276761891433, 76.57943428557432, 76.69610095223432, 76.81276761889431, 76.92943428555431, 77.0461009522143, 77.1627676188743, 77.2794342855343, 77.51276761886763]	2021_Feb_01_1133	59.96780216920732	1	0.375
17	14	FALSE	NV	a	['W', 'T', 'S', 'J', 'M', 'R', 'A', 'U', 'P', 'G', 'C', 'E', 'H', 'X', 'N', 'Y']	[2448, 1888, 1731, 1029, 1224, 1587, 697, 2059, 1456, 944, 829, 904, 986, 4000, 1335, 2670]	14	Present	NA	NA	PRESENT	0.38431787490844727	79.50110197067261	81.50496101379395	82.78830245328564	83.13830436061427	85.61663699150085	4.111675977706909	[79.51538896560669, 79.63224482536316, 80.5999608039856, 80.78330993652344, 81.53444790840149, 81.65102195739746, 81.76767778396606, 81.88439083099365, 82.00113701820374, 82.11811685562134, 82.23496580123901, 82.35151791572571, 82.46854591369629, 82.58519101142883, 82.70208096504211, 82.81883001327515, 82.93566083908081, 83.05245900154114, 83.16906094551086, 83.28597092628479, 83.40265583992004, 83.61663579940796]	[79.51276761886763, 79.62943428552762, 80.61243428552763, 80.77913428552763, 81.52913428552763, 81.64580095218763, 81.76246761884762, 81.87913428550762, 81.99580095216761, 82.11246761882761, 82.2291342854876, 82.3458009521476, 82.4624676188076, 82.57913428546759, 82.69580095212758, 82.81246761878758, 82.92913428544757, 83.04580095210757, 83.16246761876756, 83.27913428542756, 83.39580095208755, 83.62913428542089]	2021_Feb_01_1133	59.96780216920732	1	0.375
17	15	FALSE	VV	a	['M', 'Z', 'G', 'N', 'P', 'E', 'K', 'surprise', 'R', 'J', 'X', 'A', 'U', 'T', 'W', 'V']	[1224, 2911, 944, 1335, 1456, 904, 1122, 'stimAuditory/all_stimAuditory/112.wav', 1587, 1029, 4000, 697, 2059, 1888, 2448, 2245]	11	Present	NA	NA	PRESENT	0.33354687690734863	85.62435793876648	87.62127494812012	88.55461638763181	88.90461829496044	91.73300290107728	4.111727952957153	[85.63864493370056, 85.73847389221191, 86.71632885932922, 86.88975787162781, 87.640469789505, 87.75746989250183, 87.87432885169983, 87.99109482765198, 88.10776281356812, 88.22467088699341, 88.34127378463745, 88.45814394950867, 88.57506680488586, 88.69173979759216, 88.8083930015564, 88.9252438545227, 89.04219198226929, 89.15903186798096, 89.27564883232117, 89.39258480072021, 89.50930786132812, 89.73300290107727]	[85.62913428542089, 85.74580095208088, 86.72880095208089, 86.8955009520809, 87.6455009520809, 87.76216761874089, 87.87883428540088, 87.99550095206088, 88.11216761872087, 88.22883428538087, 88.34550095204087, 88.46216761870086, 88.57883428536086, 88.69550095202085, 88.81216761868085, 88.92883428534084, 89.04550095200084, 89.16216761866083, 89.27883428532083, 89.39550095198082, 89.51216761864082, 89.74550095197415]	2021_Feb_01_1133	59.96780216920732	1	0.375
17	16	FALSE	NV	a	['M', 'N', 'C', 'Y', 'Z', 'T', 'J', 'W', 'A', 'K', 'S', 'R', 'X', 'B', 'H', 'E']	[1224, 1335, 829, 2670, 2911, 1888, 1029, 2448, 697, 1122, 1731, 1587, 4000, 760, 986, 904]	13	Present	NA	NA	PRESENT	0.977890968322754	91.73115611076356	93.73745703697205	94.90413180980372	95.25413371713236	97.84937000274658	4.111912965774536	[91.74544286727905, 91.8616988658905, 92.83269596099854, 93.01298093795776, 93.76381397247314, 93.88075399398804, 93.99752688407898, 94.11413598060608, 94.23109292984009, 94.34764695167542, 94.46460700035095, 94.58123087882996, 94.69807291030884, 94.81489896774292, 94.93170380592346, 95.04857182502747, 95.16518092155457, 95.28197598457336, 95.39872479438782, 95.51560688018799, 95.63248682022095, 95.8493709564209]	[91.74550095197415, 91.86216761863415, 92.84516761863415, 93.01186761863416, 93.76186761863416, 93.87853428529415, 93.99520095195415, 94.11186761861414, 94.22853428527414, 94.34520095193413, 94.46186761859413, 94.57853428525412, 94.69520095191412, 94.81186761857411, 94.92853428523411, 95.0452009518941, 95.1618676185541, 95.27853428521409, 95.39520095187409, 95.51186761853408, 95.62853428519408, 95.86186761852741]	2021_Feb_01_1133	59.96780216920732	1	0.375
17	17	FALSE	NN	a	['S', 'B', 'W', 'M', 'Y', 'R', 'E', 'C', 'P', 'A', 'Z', 'N', 'K', 'U', 'G', 'J']	[1731, 760, 2448, 1224, 2670, 1587, 904, 829, 1456, 697, 2911, 1335, 1122, 2059, 944, 1029]	13	Absent	NA	NA	ABSENT	0.7671160697937012	97.85390305519104	99.85396599769592	101.02064172420192	101.37064267785624	103.96573686599731	4.111770868301392	[97.86818981170654, 97.98505592346191, 98.94906091690063, 99.13626384735107, 99.88711380958557, 99.98694801330566, 100.10375785827637, 100.22054481506348, 100.33741593360901, 100.45417094230652, 100.57088494300842, 100.68769598007202, 100.80448889732361, 100.92148089408875, 101.0379958152771, 101.1548638343811, 101.27178478240967, 101.38841891288757, 101.50539493560791, 101.6221079826355, 101.73897981643677, 101.965735912323]	[97.86186761852741, 97.97853428518741, 98.96153428518741, 99.12823428518742, 99.87823428518742, 99.99490095184741, 100.11156761850741, 100.2282342851674, 100.3449009518274, 100.4615676184874, 100.57823428514739, 100.69490095180738, 100.81156761846738, 100.92823428512737, 101.04490095178737, 101.16156761844736, 101.27823428510736, 101.39490095176735, 101.51156761842735, 101.62823428508734, 101.74490095174734, 101.97823428508067]	2021_Feb_01_1133	59.96780216920732	1	0.375
17	18	FALSE	NA	a	['R', 'M', 'B', 'Z', 'P', 'A', 'V', 'Y', 'G', 'H', 'C', 'N', 'J', 'X', 'K', 'W']	[1587, 1224, 760, 2911, 1456, 697, 2245, 2670, 944, 986, 829, 1335, 1029, 4000, 1122, 2448]	14	Present	NA	NA	PRESENT	0.4359228610992432	103.96031594276428	105.9702160358429	107.25355628324168	107.60355938266322	110.08210396766664	4.1118879318237305	[103.97460293769836, 104.09154081344604, 105.06542897224426, 105.24260187149048, 105.99344301223755, 106.11036992073059, 106.2271249294281, 106.34382796287537, 106.46066999435425, 106.5775089263916, 106.69418287277222, 106.81102681159973, 106.92787599563599, 107.04453992843628, 107.1614580154419, 107.27810502052307, 107.39513683319092, 107.51174283027649, 107.62865281105042, 107.74538087844849, 107.86217594146729, 108.08210301399231]	[103.97823428508067, 104.09490095174067, 105.07790095174067, 105.24460095174068, 105.99460095174068, 106.11126761840067, 106.22793428506067, 106.34460095172066, 106.46126761838066, 106.57793428504066, 106.69460095170065, 106.81126761836065, 106.92793428502064, 107.04460095168064, 107.16126761834063, 107.27793428500063, 107.39460095166062, 107.51126761832062, 107.62793428498061, 107.7446009516406, 107.8612676183006, 108.09460095163394]	2021_Feb_01_1133	59.96780216920732	1	0.375
17	19	FALSE	NV	a	['C', 'S', 'Z', 'G', 'V', 'W', 'T', 'H', 'U', 'R', 'J', 'N', 'K', 'X', 'P', 'A']	[829, 1731, 2911, 944, 2245, 2448, 1888, 986, 2059, 1587, 1029, 1335, 1122, 4000, 1456, 697]	14	Present	NA	NA	PRESENT	0.3765528202056885	110.0836329460144	112.08678913116456	113.37013033223766	113.72013128589198	116.19846987724304	4.111680746078491	[110.09791994094849, 110.21461296081543, 111.18179297447205, 111.36613893508911, 112.11675190925598, 112.23343992233276, 112.35029196739197, 112.4672257900238, 112.58397483825684, 112.70074391365051, 112.81774282455444, 112.93427681922913, 113.05106401443481, 113.1677029132843, 113.28466987609863, 113.40137100219727, 113.51808190345764, 113.63514590263367, 113.75181078910828, 113.86870098114014, 113.98539686203003, 114.19846892356873]	[110.09460095163394, 110.21126761829393, 111.19426761829394, 111.36096761829394, 112.11096761829394, 112.22763428495394, 112.34430095161393, 112.46096761827393, 112.57763428493392, 112.69430095159392, 112.81096761825391, 112.9276342849139, 113.0443009515739, 113.1609676182339, 113.27763428489389, 113.39430095155389, 113.51096761821388, 113.62763428487388, 113.74430095153387, 113.86096761819387, 113.97763428485386, 114.2109676181872]	2021_Feb_01_1133	59.96780216920732	1	0.375
17	20	FALSE	NA	a	['K', 'R', 'J', 'P', 'A', 'G', 'T', 'Y', 'V', 'B', 'U', 'S', 'X', 'E', 'C', 'M']	[1122, 1587, 1029, 1456, 697, 944, 1888, 2670, 2245, 760, 2059, 1731, 4000, 904, 829, 1224]	13	Present	NA	NA	PRESENT	0.2938201427459717	116.18993306159972	118.20294713974	119.3696216741531	119.7196238199003	122.31483697891235	4.111889839172363	[116.20421886444092, 116.32129788398743, 117.29815983772278, 117.47225880622864, 118.22305798530579, 118.33993983268738, 118.45678997039795, 118.57338190078735, 118.690349817276, 118.80759501457214, 118.92383193969727, 119.04081082344055, 119.1575219631195, 119.2741928100586, 119.39108681678772, 119.50776696205139, 119.62470698356628, 119.74154591560364, 119.85843181610107, 119.97518992424011, 120.09185791015625, 120.31483793258667]	[116.2109676181872, 116.32763428484719, 117.3106342848472, 117.4773342848472, 118.2273342848472, 118.3440009515072, 118.4606676181672, 118.57733428482719, 118.69400095148718, 118.81066761814718, 118.92733428480717, 119.04400095146717, 119.16066761812716, 119.27733428478716, 119.39400095144715, 119.51066761810715, 119.62733428476714, 119.74400095142714, 119.86066761808713, 119.97733428474713, 120.09400095140712, 120.32733428474046]	2021_Feb_01_1133	59.96780216920732	1	0.375
17	21	FALSE	NV	a	['Z', 'T', 'J', 'W', 'H', 'V', 'N', 'K', 'X', 'C', 'E', 'P', 'M', 'U', 'G', 'A']	[2911, 1888, 1029, 2448, 986, 2245, 1335, 1122, 4000, 829, 904, 1456, 1224, 2059, 944, 697]	9	Present	NA	NA	PRESENT	0.40206408500671387	122.3136351108551	124.3194489479065	125.01945705409818	125.36945896142682	128.43120288848877	4.111753940582275	[122.3279218673706, 122.44430589675903, 123.4145278930664, 123.59542083740234, 124.34637188911438, 124.46311593055725, 124.57995986938477, 124.69663882255554, 124.81360793113708, 124.93023300170898, 125.04726481437683, 125.16380596160889, 125.28074598312378, 125.39740490913391, 125.5141088962555, 125.63103985786438, 125.74767184257507, 125.86467599868774, 125.9815399646759, 126.09816098213196, 126.21513485908508, 126.43120384216309]	[122.32733428474046, 122.44400095140045, 123.42700095140046, 123.59370095140046, 124.34370095140046, 124.46036761806046, 124.57703428472045, 124.69370095138045, 124.81036761804044, 124.92703428470044, 125.04370095136044, 125.16036761802043, 125.27703428468043, 125.39370095134042, 125.51036761800042, 125.62703428466041, 125.7437009513204, 125.8603676179804, 125.9770342846404, 126.09370095130039, 126.21036761796039, 126.44370095129372]	2021_Feb_01_1133	59.96780216920732	1	0.375
17	22	FALSE	NA	a	['G', 'V', 'K', 'H', 'Z', 'U', 'S', 'P', 'W', 'R', 'T', 'M', 'X', 'B', 'N', 'A']	[944, 2245, 1122, 986, 2911, 2059, 1731, 1456, 2448, 1587, 1888, 1224, 4000, 760, 1335, 697]	13	Present	NA	NA	PRESENT	0.6235740184783936	128.43645906448364	130.43569993972778	131.60237375888516	131.95237566621378	134.54756999015808	4.111870050430298	[128.45074582099915, 128.5675709247589, 129.5308918952942, 129.71866989135742, 130.46965289115906, 130.56953597068787, 130.68633389472961, 130.80313396453857, 130.91995286941528, 131.03667783737183, 131.15350484848022, 131.27030086517334, 131.38697481155396, 131.5037989616394, 131.62078595161438, 131.73748087882996, 131.85442399978638, 131.9712598323822, 132.0880630016327, 132.20480394363403, 132.32147789001465, 132.54756879806519]	[128.44370095129372, 128.56036761795372, 129.54336761795372, 129.7100676179537, 130.4600676179537, 130.5767342846137, 130.6934009512737, 130.8100676179337, 130.9267342845937, 131.0434009512537, 131.16006761791368, 131.27673428457368, 131.39340095123367, 131.51006761789367, 131.62673428455366, 131.74340095121366, 131.86006761787365, 131.97673428453365, 132.09340095119364, 132.21006761785364, 132.32673428451363, 132.56006761784695]	2021_Feb_01_1133	59.96780216920732	1	0.375
17	23	FALSE	NN	a	['T', 'E', 'P', 'Y', 'C', 'K', 'H', 'S', 'J', 'V', 'G', 'U', 'Z', 'M', 'N', 'A']	[1888, 904, 1456, 2670, 829, 1122, 986, 1731, 1029, 2245, 944, 2059, 2911, 1224, 1335, 697]	8	Absent	NA	NA	ABSENT	0.5080969333648682	134.5428409576416	136.5522780418396	137.1356194813713	137.4856213886999	140.6639358997345	4.1116578578948975	[134.55712795257568, 134.67413592338562, 135.6472589969635, 135.82522988319397, 136.5760679244995, 136.69297885894775, 136.80966687202454, 136.92652893066406, 137.04328083992004, 137.1601128578186, 137.27699279785156, 137.3934919834137, 137.51051878929138, 137.62710785865784, 137.7438588142395, 137.86089301109314, 137.97752285003662, 138.09422993659973, 138.21109199523926, 138.32782888412476, 138.44459891319275, 138.6639358997345]	[134.56006761784695, 134.67673428450695, 135.65973428450695, 135.82643428450695, 136.57643428450695, 136.69310095116694, 136.80976761782694, 136.92643428448693, 137.04310095114693, 137.15976761780692, 137.27643428446692, 137.3931009511269, 137.5097676177869, 137.6264342844469, 137.7431009511069, 137.8597676177669, 137.9764342844269, 138.09310095108688, 138.20976761774688, 138.32643428440687, 138.44310095106687, 138.6764342844002]	2021_Feb_01_1133	59.96780216920732	1	0.375
17	24	FALSE	AV	a	['Y', 'H', 'C', 'Z', 'U', 'G', 'S', 'surprise', 'K', 'E', 'X', 'M', 'V', 'W', 'J', 'P']	[2670, 986, 829, 2911, 2059, 944, 1731, 'stimAuditory/all_stimAuditory/122.wav', 1122, 904, 4000, 1224, 2245, 2448, 1029, 1456]	11	Present	stimAuditory/all_stimAuditory/120.wav	NA	PRESENT	0.7047469615936279	140.6661810874939	142.66844701766968	143.60178750350704	143.9517894108357	146.7803030014038	4.111855983734131	[140.6804678440094, 140.79733180999756, 141.76362800598145, 141.94875979423523, 142.69932889938354, 142.81619501113892, 142.9329469203949, 143.04953980445862, 143.16642093658447, 143.28320789337158, 143.39990782737732, 143.51663398742676, 143.63350200653076, 143.75025987625122, 143.86726689338684, 143.98380184173584, 144.10076689720154, 144.21757578849792, 144.33423495292664, 144.45113801956177, 144.56796979904175, 144.7803030014038]	[140.6764342844002, 140.79310095106018, 141.7761009510602, 141.94280095106018, 142.69280095106018, 142.80946761772017, 142.92613428438017, 143.04280095104016, 143.15946761770016, 143.27613428436015, 143.39280095102015, 143.50946761768014, 143.62613428434014, 143.74280095100013, 143.85946761766013, 143.97613428432012, 144.09280095098012, 144.20946761764012, 144.3261342843001, 144.4428009509601, 144.5594676176201, 144.79280095095342]	2021_Feb_01_1133	59.96780216920732	1	0.375
17	25	FALSE	NA	a	['A', 'N', 'P', 'R', 'W', 'H', 'U', 'C', 'G', 'M', 'J', 'K', 'S', 'X', 'Y', 'B']	[697, 1335, 1456, 1587, 2448, 986, 2059, 829, 944, 1224, 1029, 1122, 1731, 4000, 2670, 760]	14	Present	NA	NA	PRESENT	0.4299039840698242	146.7725851535797	148.78501105308533	150.06835249257702	150.41835439990564	152.89666986465454	4.111658811569214	[146.78687191009521, 146.90378999710083, 147.8800048828125, 148.05491280555725, 148.80575680732727, 148.9224398136139, 149.03939986228943, 149.15621995925903, 149.2730679512024, 149.3896188735962, 149.5065679550171, 149.62318992614746, 149.740140914917, 149.8568878173828, 149.9736168384552, 150.09027481079102, 150.20723581314087, 150.3240828514099, 150.44086980819702, 150.55749082565308, 150.67428398132324, 150.89666986465454]	[146.79280095095342, 146.90946761761342, 147.89246761761342, 148.0591676176134, 148.8091676176134, 148.9258342842734, 149.0425009509334, 149.1591676175934, 149.2758342842534, 149.3925009509134, 149.50916761757338, 149.62583428423338, 149.74250095089337, 149.85916761755337, 149.97583428421336, 150.09250095087336, 150.20916761753335, 150.32583428419335, 150.44250095085334, 150.55916761751334, 150.67583428417333, 150.90916761750665]	2021_Feb_01_1133	59.96780216920732	1	0.375
17	26	FALSE	NV	a	['W', 'N', 'Y', 'B', 'T', 'R', 'H', 'X', 'V', 'C', 'J', 'S', 'P', 'Z', 'G', 'E']	[2448, 1335, 2670, 760, 1888, 1587, 986, 4000, 2245, 829, 1029, 1731, 1456, 2911, 944, 904]	8	Present	NA	NA	PRESENT	0.5626599788665771	152.89612698554993	154.90161108970642	155.48495348291243	155.83495539024105	159.01303696632385	4.111425876617432	[152.910413980484, 153.02700686454773, 153.9963619709015, 154.17821192741394, 154.92889094352722, 155.04562997817993, 155.1623499393463, 155.27932381629944, 155.39620399475098, 155.51295399665833, 155.62979292869568, 155.74647879600525, 155.86321878433228, 155.9800407886505, 156.09668898582458, 156.2134509086609, 156.33024978637695, 156.44725680351257, 156.56411290168762, 156.68084001541138, 156.79746079444885, 157.01303696632385]	[152.90916761750665, 153.02583428416665, 154.00883428416665, 154.17553428416664, 154.92553428416664, 155.04220095082664, 155.15886761748664, 155.27553428414663, 155.39220095080663, 155.50886761746662, 155.62553428412662, 155.7422009507866, 155.8588676174466, 155.9755342841066, 156.0922009507666, 156.2088676174266, 156.3255342840866, 156.44220095074658, 156.55886761740658, 156.67553428406657, 156.79220095072657, 157.0255342840599]	2021_Feb_01_1133	59.96780216920732	1	0.375
17	27	FALSE	NN	a	['V', 'E', 'P', 'C', 'H', 'K', 'G', 'J', 'S', 'R', 'A', 'M', 'N', 'Y', 'U', 'W']	[2245, 904, 1456, 829, 986, 1122, 944, 1029, 1731, 1587, 697, 1224, 1335, 2670, 2059, 2448]	10	Absent	NA	NA	ABSENT	0.767848014831543	159.01912808418274	161.01766896247864	161.83434468900464	162.18434564265897	165.12940287590027	4.111733913421631	[159.03341579437256, 159.15006399154663, 160.1127278804779, 160.28452491760254, 161.051992893219, 161.152086019516, 161.26909494400024, 161.38569378852844, 161.50260281562805, 161.61925601959229, 161.73601388931274, 161.8530559539795, 161.9698178768158, 162.08646392822266, 162.20337295532227, 162.31996393203735, 162.4369399547577, 162.55358290672302, 162.67051887512207, 162.7872178554535, 162.90446090698242, 163.12940192222595]	[159.0255342840599, 159.14220095071988, 160.1252009507199, 160.29190095071988, 161.04190095071988, 161.15856761737987, 161.27523428403987, 161.39190095069986, 161.50856761735986, 161.62523428401985, 161.74190095067985, 161.85856761733984, 161.97523428399984, 162.09190095065983, 162.20856761731983, 162.32523428397982, 162.44190095063982, 162.55856761729981, 162.6752342839598, 162.7919009506198, 162.9085676172798, 163.14190095061312]	2021_Feb_01_1133	59.96780216920732	1	0.375
17	28	FALSE	NV	a	['N', 'K', 'E', 'W', 'J', 'G', 'Z', 'R', 'X', 'T', 'H', 'P', 'B', 'S', 'U', 'M']	[1335, 1122, 904, 2448, 1029, 944, 2911, 1587, 4000, 1888, 986, 1456, 760, 1731, 2059, 1224]	9	Present	NA	NA	PRESENT	0.5004568099975586	165.1257131099701	167.13392901420593	167.83393712039762	168.18393902772627	171.24576878547668	4.111839771270752	[165.1399998664856, 165.2567229270935, 166.22909283638, 166.40793585777283, 167.1586558818817, 167.27532196044922, 167.39238286018372, 167.50888180732727, 167.62585282325745, 167.74253392219543, 167.85955095291138, 167.97614288330078, 168.09307479858398, 168.20962190628052, 168.3267858028412, 168.44315600395203, 168.560222864151, 168.6768479347229, 168.7936828136444, 168.9105408191681, 169.027352809906, 169.24576878547668]	[165.14190095061312, 165.25856761727312, 166.24156761727312, 166.4082676172731, 167.1582676172731, 167.2749342839331, 167.3916009505931, 167.5082676172531, 167.6249342839131, 167.7416009505731, 167.85826761723308, 167.97493428389308, 168.09160095055307, 168.20826761721307, 168.32493428387306, 168.44160095053306, 168.55826761719305, 168.67493428385305, 168.79160095051304, 168.90826761717304, 169.02493428383303, 169.25826761716635]	2021_Feb_01_1133	59.96780216920732	1	0.375
17	29	FALSE	NN	a	['W', 'R', 'T', 'H', 'P', 'Z', 'J', 'M', 'E', 'C', 'A', 'G', 'S', 'U', 'K', 'V']	[2448, 1587, 1888, 986, 1456, 2911, 1029, 1224, 904, 829, 697, 944, 1731, 2059, 1122, 2245]	10	Absent	NA	NA	ABSENT	0.657811164855957	171.24887800216675	173.2504460811615	174.0671196619203	174.4171218076675	177.3621368408203	4.1116907596588135	[171.26316499710083, 171.3796157836914, 172.34546089172363, 172.53104782104492, 173.28206300735474, 173.39889097213745, 173.5153570175171, 173.6323368549347, 173.74885892868042, 173.86569595336914, 173.9824240207672, 174.09954190254211, 174.21614480018616, 174.33316779136658, 174.4498360157013, 174.56635284423828, 174.6831669807434, 174.80014991760254, 174.89997601509094, 175.0168809890747, 175.13369798660278, 175.3621368408203]	[171.25826761716635, 171.37493428382635, 172.35793428382635, 172.52463428382634, 173.27463428382634, 173.39130095048634, 173.50796761714633, 173.62463428380633, 173.74130095046633, 173.85796761712632, 173.97463428378632, 174.0913009504463, 174.2079676171063, 174.3246342837663, 174.4413009504263, 174.5579676170863, 174.6746342837463, 174.79130095040628, 174.90796761706628, 175.02463428372627, 175.14130095038627, 175.3746342837196]	2021_Feb_01_1133	59.96780216920732	1	0.375
17	30	FALSE	NV	a	['U', 'A', 'P', 'Z', 'E', 'W', 'Y', 'V', 'K', 'X', 'G', 'M', 'B', 'R', 'C', 'H']	[2059, 697, 1456, 2911, 904, 2448, 2670, 2245, 1122, 4000, 944, 1224, 760, 1587, 829, 986]	10	Present	NA	NA	PRESENT	0.5423867702484131	177.35509514808655	179.36685514450073	180.18352967893384	180.53353182468103	183.4785039424896	4.111648797988892	[177.36938285827637, 177.48627591133118, 178.46182489395142, 178.63735699653625, 179.38824582099915, 179.50497698783875, 179.62194800376892, 179.73872995376587, 179.85559797286987, 179.97229981422424, 180.08908796310425, 180.20579481124878, 180.322735786438, 180.439523935318, 180.5563998222351, 180.67308282852173, 180.7899088859558, 180.90660500526428, 181.02341198921204, 181.14016890525818, 181.25705790519714, 181.47850489616394]	[177.3746342837196, 177.49130095037958, 178.4743009503796, 178.64100095037958, 179.39100095037958, 179.50766761703957, 179.62433428369957, 179.74100095035956, 179.85766761701956, 179.97433428367955, 180.09100095033955, 180.20766761699954, 180.32433428365954, 180.44100095031953, 180.55766761697953, 180.67433428363952, 180.79100095029952, 180.90766761695951, 181.0243342836195, 181.1410009502795, 181.2576676169395, 181.49100095027282]	2021_Feb_01_1133	59.96780216920732	1	0.375
17	31	FALSE	NN	a	['G', 'H', 'J', 'C', 'V', 'U', 'K', 'N', 'A', 'Z', 'M', 'B', 'P', 'W', 'Y', 'R']	[944, 986, 1029, 829, 2245, 2059, 1122, 1335, 697, 2911, 1224, 760, 1456, 2448, 2670, 1587]	10	Absent	NA	NA	ABSENT	0.6910529136657715	183.47882199287417	185.48314595222473	186.2998197714021	186.64982263240503	189.59486985206604	4.111723899841309	[183.49310898780823, 183.60941195487976, 184.57819390296936, 184.76088094711304, 185.51145792007446, 185.62817287445068, 185.74515891075134, 185.86174392700195, 185.97886085510254, 186.095458984375, 186.21237993240356, 186.32903480529785, 186.4457139968872, 186.56276297569275, 186.679358959198, 186.79625988006592, 186.91291999816895, 187.02984189987183, 187.14662981033325, 187.26350283622742, 187.380028963089, 187.59486889839172]	[183.49100095027282, 183.60766761693282, 184.59066761693282, 184.7573676169328, 185.5073676169328, 185.6240342835928, 185.7407009502528, 185.8573676169128, 185.9740342835728, 186.0907009502328, 186.20736761689278, 186.32403428355278, 186.44070095021277, 186.55736761687277, 186.67403428353276, 186.79070095019276, 186.90736761685275, 187.02403428351275, 187.14070095017274, 187.25736761683274, 187.37403428349273, 187.60736761682605]	2021_Feb_01_1133	59.96780216920732	1	0.375
17	32	FALSE	NN	a	['R', 'H', 'V', 'U', 'E', 'S', 'M', 'K', 'T', 'W', 'B', 'C', 'Z', 'J', 'G', 'A']	[1587, 986, 2245, 2059, 904, 1731, 1224, 1122, 1888, 2448, 760, 829, 2911, 1029, 944, 697]	10	Absent	NA	NA	ABSENT	0.904062032699585	189.60171794891355	191.59947514533997	192.4161506334474	192.7661527791946	195.71123600006104	4.111760854721069	[189.61602687835693, 189.73267483711243, 190.69455790519714, 190.86713981628418, 191.63457798957825, 191.7346339225769, 191.85157084465027, 191.96844601631165, 192.08511590957642, 192.20204186439514, 192.31883597373962, 192.43568992614746, 192.55245995521545, 192.66897678375244, 192.78600096702576, 192.90295100212097, 193.0194230079651, 193.13613080978394, 193.25304293632507, 193.36993885040283, 193.48665380477905, 193.71123600006104]	[189.60736761682605, 189.72403428348605, 190.70703428348605, 190.87373428348604, 191.62373428348604, 191.74040095014604, 191.85706761680603, 191.97373428346603, 192.09040095012602, 192.20706761678602, 192.32373428344602, 192.440400950106, 192.557067616766, 192.673734283426, 192.790400950086, 192.907067616746, 193.023734283406, 193.14040095006598, 193.25706761672598, 193.37373428338597, 193.49040095004597, 193.7237342833793]	2021_Feb_01_1133	59.96780216920732	1	0.375
17	33	FALSE	NN	a	['Z', 'J', 'T', 'R', 'Y', 'M', 'C', 'H', 'E', 'N', 'V', 'B', 'W', 'U', 'A', 'S']	[2911, 1029, 1888, 1587, 2670, 1224, 829, 986, 904, 1335, 2245, 760, 2448, 2059, 697, 1731]	9	Absent	NA	NA	ABSENT	0.9726688861846924	195.70803809165955	197.7159049510956	198.41591210361295	198.7659140109416	201.82760190963745	4.11169695854187	[195.72232484817505, 195.83921194076538, 196.81093192100525, 196.9904339313507, 197.74120092391968, 197.85791683197021, 197.97491884231567, 198.0915379524231, 198.2083878517151, 198.32509398460388, 198.44206500053406, 198.55876898765564, 198.67536997795105, 198.7923939228058, 198.90909481048584, 199.02578997612, 199.14263701438904, 199.25945591926575, 199.3763267993927, 199.49307894706726, 199.6099410057068, 199.82760381698608]	[195.7237342833793, 195.84040095003928, 196.8234009500393, 196.99010095003928, 197.74010095003928, 197.85676761669927, 197.97343428335927, 198.09010095001926, 198.20676761667926, 198.32343428333925, 198.44010094999925, 198.55676761665924, 198.67343428331924, 198.79010094997923, 198.90676761663923, 199.02343428329922, 199.14010094995922, 199.25676761661921, 199.3734342832792, 199.4901009499392, 199.6067676165992, 199.84010094993252]	2021_Feb_01_1133	59.96780216920732	1	0.375
17	34	FALSE	NV	a	['K', 'S', 'T', 'Y', 'B', 'A', 'J', 'Z', 'X', 'N', 'E', 'M', 'V', 'C', 'H', 'W']	[1122, 1731, 1888, 2670, 760, 697, 1029, 2911, 4000, 1335, 904, 1224, 2245, 829, 986, 2448]	9	Present	NA	NA	ABSENT	1.1140060424804688	201.8312909603119	203.83213996887207	204.53214807506376	204.8821499823924	207.94396901130676	4.111829042434692	[201.84557795524597, 201.96227097511292, 202.9272918701172, 203.11398887634277, 203.86429691314697, 203.98127698898315, 204.09796595573425, 204.21481895446777, 204.33147597312927, 204.44847893714905, 204.5652208328247, 204.68201780319214, 204.7818729877472, 204.89873099327087, 205.01548886299133, 205.13228487968445, 205.2491159439087, 205.365797996521, 205.48259687423706, 205.59938788414001, 205.71622395515442, 205.9439709186554]	[201.84010094993252, 201.95676761659251, 202.93976761659252, 203.1064676165925, 203.8564676165925, 203.9731342832525, 204.0898009499125, 204.2064676165725, 204.3231342832325, 204.4398009498925, 204.55646761655248, 204.67313428321248, 204.78980094987247, 204.90646761653247, 205.02313428319246, 205.13980094985246, 205.25646761651245, 205.37313428317245, 205.48980094983244, 205.60646761649244, 205.72313428315243, 205.95646761648575]	2021_Feb_01_1133	59.96780216920732	1	0.375
17	35	FALSE	NV	a	['S', 'T', 'R', 'P', 'G', 'W', 'H', 'J', 'M', 'X', 'U', 'E', 'B', 'V', 'K', 'N']	[1731, 1888, 1587, 1456, 944, 2448, 986, 1029, 1224, 4000, 2059, 904, 760, 2245, 1122, 1335]	10	Present	NA	NA	PRESENT	0.5583980083465576	207.9378261566162	209.9486529827118	210.76532775556348	211.11532966289212	214.0603358745575	4.111682891845703	[207.9521129131317, 208.0689239501953, 209.04366087913513, 209.22022986412048, 209.9708387851715, 210.08766293525696, 210.20452690124512, 210.32111191749573, 210.43818378448486, 210.5547969341278, 210.67156791687012, 210.7885138988495, 210.9052939414978, 211.02186584472656, 211.13863396644592, 211.25552201271057, 211.3725209236145, 211.48922181129456, 211.6057939529419, 211.72268986701965, 211.83955693244934, 212.0603358745575]	[207.95646761648575, 208.07313428314575, 209.05613428314575, 209.22283428314574, 209.97283428314574, 210.08950094980574, 210.20616761646573, 210.32283428312573, 210.43950094978572, 210.55616761644572, 210.67283428310571, 210.7895009497657, 210.9061676164257, 211.0228342830857, 211.1395009497457, 211.2561676164057, 211.37283428306569, 211.48950094972568, 211.60616761638568, 211.72283428304567, 211.83950094970567, 212.072834283039]	2021_Feb_01_1133	59.96780216920732	1	0.375
17	36	FALSE	AA	a	['H', 'B', 'T', 'W', 'V', 'J', 'Z', 'surprise', 'U', 'A', 'X', 'C', 'R', 'S', 'P', 'Y']	[986, 760, 1888, 2448, 2245, 1029, 2911, 'stimAuditory/all_stimAuditory/114.wav', 2059, 697, 4000, 829, 1587, 1731, 1456, 2670]	11	Present	stimAuditory/all_stimAuditory/112.wav	NA	PRESENT	0.5309710502624512	214.06129217147827	216.06519293785095	216.99853437736263	217.34853747678417	220.17670392990112	4.111510992050171	[214.07557892799377, 214.1921157836914, 215.1600239276886, 215.34316086769104, 216.09410190582275, 216.21086502075195, 216.32767486572266, 216.44451880455017, 216.56131386756897, 216.67793679237366, 216.79483699798584, 216.9117980003357, 217.02841186523438, 217.14527583122253, 217.2618749141693, 217.37882494926453, 217.49561500549316, 217.61245679855347, 217.72903990745544, 217.8460578918457, 217.9626259803772, 218.1767029762268]	[214.072834283039, 214.18950094969898, 215.17250094969899, 215.33920094969898, 216.08920094969898, 216.20586761635897, 216.32253428301897, 216.43920094967896, 216.55586761633896, 216.67253428299895, 216.78920094965895, 216.90586761631894, 217.02253428297894, 217.13920094963893, 217.25586761629893, 217.37253428295892, 217.48920094961892, 217.6058676162789, 217.7225342829389, 217.8392009495989, 217.9558676162589, 218.18920094959222]	2021_Feb_01_1133	59.96780216920732	1	0.375
17	37	FALSE	NA	a	['Y', 'R', 'H', 'V', 'B', 'J', 'T', 'K', 'X', 'U', 'C', 'A', 'E', 'M', 'Z', 'P']	[2670, 1587, 986, 2245, 760, 1029, 1888, 1122, 4000, 2059, 829, 697, 904, 1224, 2911, 1456]	9	Present	NA	NA	PRESENT	0.4002339839935303	220.18414306640625	222.18145203590393	222.8814601420956	223.23146204942427	226.2930698394775	4.111617803573608	[220.19842886924744, 220.2983798980713, 221.27639484405518, 221.44988989830017, 222.20035886764526, 222.31723880767822, 222.43427801132202, 222.55080699920654, 222.66780400276184, 222.7844099998474, 222.901428937912, 223.0180628299713, 223.13486099243164, 223.25155997276306, 223.36849689483643, 223.4853479862213, 223.60218596458435, 223.71878600120544, 223.8357059955597, 223.9527509212494, 224.06911897659302, 224.29306888580322]	[220.18920094959222, 220.30586761625221, 221.28886761625222, 221.4555676162522, 222.2055676162522, 222.3222342829122, 222.4389009495722, 222.5555676162322, 222.6722342828922, 222.7889009495522, 222.90556761621218, 223.02223428287218, 223.13890094953217, 223.25556761619217, 223.37223428285216, 223.48890094951216, 223.60556761617215, 223.72223428283215, 223.83890094949214, 223.95556761615214, 224.07223428281213, 224.30556761614545]	2021_Feb_01_1133	59.96780216920732	1	0.375
17	38	FALSE	NV	a	['R', 'U', 'H', 'Y', 'A', 'M', 'B', 'C', 'P', 'K', 'S', 'X', 'G', 'T', 'N', 'J']	[1587, 2059, 986, 2670, 697, 1224, 760, 829, 1456, 1122, 1731, 4000, 944, 1888, 1335, 1029]	12	Present	NA	NA	PRESENT	0.33303189277648926	226.2907440662384	228.29778599739075	229.34779410356245	229.69779696456536	232.40943598747253	4.111649990081787	[226.30503296852112, 226.42171382904053, 227.39275979995728, 227.57303094863892, 228.3236598968506, 228.44041180610657, 228.55733180046082, 228.67410588264465, 228.79094195365906, 228.90767693519592, 229.02458000183105, 229.14127898216248, 229.25803685188293, 229.37489199638367, 229.49178194999695, 229.60856699943542, 229.7252058982849, 229.84216785430908, 229.95878791809082, 230.07550978660583, 230.192302942276, 230.40943694114685]	[226.30556761614545, 226.42223428280545, 227.40523428280545, 227.57193428280544, 228.32193428280544, 228.43860094946544, 228.55526761612543, 228.67193428278543, 228.78860094944542, 228.90526761610542, 229.02193428276541, 229.1386009494254, 229.2552676160854, 229.3719342827454, 229.4886009494054, 229.6052676160654, 229.72193428272539, 229.83860094938538, 229.95526761604538, 230.07193428270537, 230.18860094936537, 230.4219342826987]	2021_Feb_01_1133	59.96780216920732	1	0.375
17	39	FALSE	NA	a	['C', 'B', 'G', 'A', 'S', 'Y', 'N', 'V', 'W', 'R', 'H', 'E', 'X', 'P', 'Z', 'T']	[829, 760, 944, 697, 1731, 2670, 1335, 2245, 2448, 1587, 986, 904, 4000, 1456, 2911, 1888]	13	Present	NA	NA	PRESENT	0.50615692138671875	232.4137351512909	234.4138979911804	235.58057276401212	235.9305746713407	238.5258038043976	4.111905813217163	[232.4280219078064, 232.5450279712677, 233.50912880897522, 233.69623398780823, 234.44727778434753, 234.5638828277588, 234.66359686851501, 234.7804458141327, 234.897225856781, 235.01409888267517, 235.13091492652893, 235.2477159500122, 235.36451196670532, 235.48131394386292, 235.59805297851562, 235.71489596366882, 235.8316400051117, 235.9485149383545, 236.06521081924438, 236.18224596977234, 236.29891681671143, 236.52580380439758]	[232.4219342826987, 232.53860094935868, 233.52160094935869, 233.68830094935868, 234.43830094935868, 234.55496761601867, 234.67163428267867, 234.78830094933866, 234.90496761599866, 235.02163428265865, 235.13830094931865, 235.25496761597864, 235.37163428263864, 235.48830094929863, 235.60496761595863, 235.72163428261862, 235.83830094927862, 235.9549676159386, 236.0716342825986, 236.1883009492586, 236.3049676159186, 236.53830094925192]	2021_Feb_01_1133	59.96780216920732	1	0.375
17	40	FALSE	NA	a	['J', 'C', 'N', 'A', 'T', 'Z', 'B', 'G', 'X', 'H', 'P', 'R', 'K', 'U', 'E', 'Y']	[1029, 829, 1335, 697, 1888, 2911, 760, 944, 4000, 986, 1456, 1587, 1122, 2059, 904, 2670]	9	Present	NA	NA	PRESENT	0.3106060028076172	238.5203161239624	240.5303831100464	241.2303900241452	241.5803921698924	244.64216995239255	4.111786842346191	[238.5346028804779, 238.65127897262573, 239.62548899650574, 239.80263996124268, 240.55347681045532, 240.67016696929932, 240.78701996803284, 240.9037640094757, 241.02063989639282, 241.13732385635376, 241.254292011261, 241.37087893486023, 241.48792695999146, 241.60454082489014, 241.72137093544006, 241.83812880516052, 241.95482897758484, 242.07182598114014, 242.1886749267578, 242.30536484718323, 242.42194199562073, 242.64216899871826]	[238.53830094925192, 238.65496761591191, 239.63796761591192, 239.8046676159119, 240.5546676159119, 240.6713342825719, 240.7880009492319, 240.9046676158919, 241.0213342825519, 241.1380009492119, 241.25466761587188, 241.37133428253188, 241.48800094919187, 241.60466761585187, 241.72133428251186, 241.83800094917186, 241.95466761583185, 242.07133428249185, 242.18800094915184, 242.30466761581184, 242.42133428247183, 242.65466761580515]	2021_Feb_01_1133	59.96780216920732	1	0.375
17	41	FALSE	NN	a	['M', 'B', 'V', 'S', 'N', 'W', 'P', 'A', 'C', 'T', 'Z', 'R', 'J', 'E', 'H', 'K']	[1224, 760, 2245, 1731, 1335, 2448, 1456, 697, 829, 1888, 2911, 1587, 1029, 904, 986, 1122]	14	Absent	NA	NA	ABSENT	0.8113930225372314	244.64370799064636	246.64697098731995	247.93031147313732	248.2803133804659	250.7585368156433	4.111565828323364	[244.65799498558044, 244.77455401420593, 245.74186086654663, 245.9259397983551, 246.6764919757843, 246.7934079170227, 246.9100239276886, 247.02710580825806, 247.14381790161133, 247.26072192192078, 247.37725186347961, 247.49409198760986, 247.61110591888428, 247.72779297828674, 247.84466099739075, 247.9614508152008, 248.07812190055847, 248.19486284255981, 248.31191396713257, 248.42857098579407, 248.5451409816742, 248.758535861969]	[244.65466761580515, 244.77133428246515, 245.75433428246515, 245.92103428246514, 246.67103428246514, 246.78770094912514, 246.90436761578513, 247.02103428244513, 247.13770094910512, 247.25436761576512, 247.37103428242511, 247.4877009490851, 247.6043676157451, 247.7210342824051, 247.8377009490651, 247.9543676157251, 248.07103428238509, 248.18770094904508, 248.30436761570508, 248.42103428236507, 248.53770094902507, 248.77103428235839]	2021_Feb_01_1133	59.96780216920732	1	0.375
17	42	FALSE	NA	a	['T', 'J', 'K', 'Y', 'P', 'E', 'R', 'U', 'C', 'N', 'X', 'Z', 'G', 'V', 'A', 'S']	[1888, 1029, 1122, 2670, 1456, 904, 1587, 2059, 829, 1335, 4000, 2911, 944, 2245, 697, 1731]	11	Present	NA	NA	PRESENT	0.3607709407806397	250.7498791217804	252.76311612129211	253.69645732238521	254.04645946813244	256.8749029636383	4.111786842346191	[250.7641658782959, 250.88101887702942, 251.85822892189026, 252.03236079216003, 252.7830150127411, 252.8997437953949, 253.0166687965393, 253.1333827972412, 253.2502679824829, 253.3671658039093, 253.48376893997192, 253.600594997406, 253.7173089981079, 253.8342227935791, 253.9512689113617, 254.0677809715271, 254.18463587760925, 254.3013780117035, 254.4183578491211, 254.53499794006348, 254.65177178382874, 254.87490391731262]	[250.77103428235839, 250.88770094901838, 251.87070094901839, 252.03740094901838, 252.78740094901838, 252.90406761567837, 253.02073428233837, 253.13740094899836, 253.25406761565836, 253.37073428231835, 253.48740094897835, 253.60406761563834, 253.72073428229834, 253.83740094895833, 253.95406761561833, 254.07073428227832, 254.18740094893832, 254.3040676155983, 254.4207342822583, 254.5374009489183, 254.6540676155783, 254.88740094891162]	2021_Feb_01_1133	59.96780216920732	1	0.375
17	43	FALSE	NN	a	['H', 'S', 'W', 'K', 'P', 'E', 'U', 'Y', 'J', 'M', 'A', 'T', 'R', 'C', 'N', 'Z']	[986, 1731, 2448, 1122, 1456, 904, 2059, 2670, 1029, 1224, 697, 1888, 1587, 829, 1335, 2911]	12	Absent	NA	NA	ABSENT	0.973142147064209	256.8732211589813	258.879390001297	259.92939810746867	260.279399061123	262.99126982688904	4.111879825592041	[256.8875069618225, 257.0043737888336, 257.97459292411804, 258.15567779541016, 258.90610790252686, 259.02309584617615, 259.1399869918823, 259.25670289993286, 259.37330079078674, 259.49028301239014, 259.60697984695435, 259.7239429950714, 259.84061193466187, 259.9575819969177, 260.07418179512024, 260.19109201431274, 260.30793499946594, 260.42454981803894, 260.541485786438, 260.6580898761749, 260.7751169204712, 260.99127101898193]	[256.8874009489116, 257.0040676155716, 257.9870676155716, 258.1537676155716, 258.9037676155716, 259.02043428223163, 259.13710094889166, 259.2537676155517, 259.3704342822117, 259.4871009488717, 259.60376761553175, 259.7204342821918, 259.8371009488518, 259.9537676155118, 260.07043428217185, 260.18710094883187, 260.3037676154919, 260.4204342821519, 260.53710094881194, 260.65376761547196, 260.770434282132, 261.00376761546534]	2021_Feb_01_1133	59.96780216920732	1	0.375
17	44	FALSE	NV	a	['U', 'C', 'B', 'V', 'N', 'S', 'T', 'X', 'M', 'Z', 'H', 'J', 'Y', 'K', 'G', 'P']	[2059, 829, 760, 2245, 1335, 1731, 1888, 4000, 1224, 2911, 986, 1029, 2670, 1122, 944, 1456]	8	Present	NA	NA	PRESENT	0.3783571720123291	262.996297121048	264.99601006507874	265.57935031251753	265.9293534119391	269.10763692855835	4.111626863479614	[263.0105848312378, 263.12751293182373, 264.09095883369446, 264.2791199684143, 265.0295147895813, 265.12949299812317, 265.24622201919556, 265.3630928993225, 265.4798159599304, 265.5965859889984, 265.7137060165405, 265.8302137851715, 265.9470098018646, 266.06397795677185, 266.18080282211304, 266.29741287231445, 266.41419792175293, 266.53104186058044, 266.6479299068451, 266.7646629810333, 266.88155484199524, 267.10763597488403]	[263.00376761546534, 263.12043428212536, 264.10343428212536, 264.27013428212535, 265.02013428212535, 265.1368009487854, 265.2534676154454, 265.3701342821054, 265.48680094876545, 265.6034676154255, 265.7201342820855, 265.8368009487455, 265.95346761540554, 266.07013428206557, 266.1868009487256, 266.3034676153856, 266.42013428204564, 266.53680094870566, 266.6534676153657, 266.7701342820257, 266.88680094868573, 267.1201342820191]	2021_Feb_01_1133	59.96780216920732	1	0.375
17	45	FALSE	NV	a	['T', 'C', 'Z', 'U', 'S', 'J', 'A', 'Y', 'R', 'P', 'E', 'G', 'X', 'H', 'M', 'V']	[1888, 829, 2911, 2059, 1731, 1029, 697, 2670, 1587, 1456, 904, 944, 4000, 986, 1224, 2245]	13	Present	NA	NA	PRESENT	0.4551968574523926	269.1029670238495	271.1121881008148	272.27886263522794	272.62886478097516	275.2240037918091	4.111815690994263	[269.11725401878357, 269.2338938713074, 270.20732593536377, 270.38529992103577, 271.13588285446167, 271.2527039051056, 271.3697237968445, 271.48638796806335, 271.60310101509094, 271.7198917865753, 271.83652901649475, 271.95354294776917, 272.07026982307434, 272.187148809433, 272.3039758205414, 272.42078590393066, 272.5373878479004, 272.6542868614197, 272.7711808681488, 272.88793087005615, 273.00462079048157, 273.22400283813477]	[269.1201342820191, 269.2368009486791, 270.2198009486791, 270.3865009486791, 271.1365009486791, 271.2531676153391, 271.36983428199915, 271.48650094865917, 271.6031676153192, 271.7198342819792, 271.83650094863924, 271.95316761529926, 272.0698342819593, 272.1865009486193, 272.30316761527934, 272.41983428193936, 272.5365009485994, 272.6531676152594, 272.76983428191943, 272.88650094857945, 273.0031676152395, 273.2365009485728]	2021_Feb_01_1133	59.96780216920732	1	0.375
17	46	FALSE	NN	a	['G', 'K', 'J', 'A', 'Z', 'P', 'U', 'C', 'V', 'B', 'W', 'H', 'R', 'Y', 'T', 'N']	[944, 1122, 1029, 697, 2911, 1456, 2059, 829, 2245, 760, 2448, 986, 1587, 2670, 1888, 1335]	8	Absent	NA	NA	ABSENT	0.4755070209503174	275.2263150215149	277.2286150455475	277.8119574387535	278.16195934608214	281.3403699398041	4.111754894256592	[275.2406029701233, 275.3570158481598, 276.32369589805603, 276.5084710121155, 277.25924587249756, 277.3758239746094, 277.4928488731384, 277.6095759868622, 277.7263538837433, 277.8432719707489, 277.959823846817, 278.0767660140991, 278.19360280036926, 278.31036591529846, 278.4270658493042, 278.5440139770508, 278.66065788269043, 278.7773678302765, 278.8943088054657, 279.0109899044037, 279.1280269622803, 279.3403708934784]	[275.2365009485728, 275.35316761523285, 276.33616761523285, 276.50286761523284, 277.25286761523284, 277.36953428189287, 277.4862009485529, 277.6028676152129, 277.71953428187294, 277.83620094853296, 277.952867615193, 278.069534281853, 278.18620094851303, 278.30286761517306, 278.4195342818331, 278.5362009484931, 278.6528676151531, 278.76953428181315, 278.8862009484732, 279.0028676151332, 279.1195342817932, 279.35286761512657]	2021_Feb_01_1133	59.96780216920732	1	0.375
17	47	FALSE	NV	a	['U', 'R', 'V', 'Y', 'K', 'Z', 'G', 'B', 'A', 'E', 'J', 'S', 'W', 'X', 'C', 'T']	[2059, 1587, 2245, 2670, 1122, 2911, 944, 760, 697, 904, 1029, 1731, 2448, 4000, 829, 1888]	14	Present	NA	NA	PRESENT	0.3768408298492432	281.3324761390686	283.34491515159607	284.62825635266915	284.9782584984164	287.4567368030548	4.11182165145874	[281.3467628955841, 281.4637928009033, 282.44006180763245, 282.6149888038635, 283.3655309677124, 283.48237586021423, 283.59934091567993, 283.71607184410095, 283.83285999298096, 283.9496338367462, 284.0664939880371, 284.1831829547882, 284.3000829219818, 284.4168128967285, 284.53354001045227, 284.6504809856415, 284.7670269012451, 284.884073972702, 285.00064182281494, 285.1176338195801, 285.2342619895935, 285.4567358493805]	[281.35286761512657, 281.4695342817866, 282.4525342817866, 282.6192342817866, 283.3692342817866, 283.4859009484466, 283.60256761510664, 283.71923428176666, 283.8359009484267, 283.9525676150867, 284.06923428174673, 284.18590094840675, 284.3025676150668, 284.4192342817268, 284.5359009483868, 284.65256761504685, 284.7692342817069, 284.8859009483669, 285.0025676150269, 285.11923428168694, 285.23590094834697, 285.4692342816803]	2021_Feb_01_1133	59.96780216920732	1	0.375
17	48	FALSE	AA	a	['C', 'U', 'S', 'K', 'Y', 'M', 'W', 'P', 'T', 'R', 'surprise', 'B', 'G', 'X', 'Z', 'V']	[829, 2059, 1731, 1122, 2670, 1224, 2448, 1456, 1888, 1587, 'stimAuditory/all_stimAuditory/214.wav', 760, 944, 4000, 2911, 2245]	14	Present	stimAuditory/all_stimAuditory/122.wav	NA	PRESENT	0.4053528308868408	287.45573902130127	289.46136593818665	290.7447073776783	291.09470833133264	293.5731029510498	4.111737012863159	[287.470027923584, 287.586788892746, 288.55642580986023, 288.7380828857422, 289.4887578487396, 289.6058118343353, 289.7225158214569, 289.8392779827118, 289.9559328556061, 290.0726819038391, 290.18962693214417, 290.30659890174866, 290.4230840206146, 290.54003286361694, 290.6569459438324, 290.77362990379333, 290.89037585258484, 291.0073149204254, 291.1240589618683, 291.2408199310303, 291.357439994812, 291.5731029510498]	[287.4692342816803, 287.58590094834034, 288.56890094834034, 288.73560094834033, 289.48560094834033, 289.60226761500036, 289.7189342816604, 289.8356009483204, 289.9522676149804, 290.06893428164045, 290.1856009483005, 290.3022676149605, 290.4189342816205, 290.53560094828055, 290.65226761494057, 290.7689342816006, 290.8856009482606, 291.00226761492064, 291.11893428158066, 291.2356009482407, 291.3522676149007, 291.58560094823406]	2021_Feb_01_1133	59.96780216920732	1	0.375
17	49	FALSE	NA	a	['N', 'Z', 'S', 'P', 'Y', 'H', 'U', 'J', 'A', 'V', 'X', 'W', 'T', 'E', 'R', 'B']	[1335, 2911, 1731, 1456, 2670, 986, 2059, 1029, 697, 2245, 4000, 2448, 1888, 904, 1587, 760]	11	Present	NA	NA	PRESENT	0.2906651496887207	293.57906913757324	295.57762002944946	296.51096146896117	296.86096337628976	299.6894688606262	4.111848831176758	[293.59335589408875, 293.710168838501, 294.67279291152954, 294.8444368839264, 295.61240887641907, 295.71206498146057, 295.8289988040924, 295.9456539154053, 296.0623788833618, 296.17921590805054, 296.2961378097534, 296.41279101371765, 296.529709815979, 296.6463849544525, 296.7633378505707, 296.8800539970398, 296.9966928958893, 297.1136648654938, 297.2304937839508, 297.34729981422424, 297.4639449119568, 297.68946981430054]	[293.58560094823406, 293.7022676148941, 294.6852676148941, 294.8519676148941, 295.6019676148941, 295.7186342815541, 295.8353009482141, 295.95196761487415, 296.0686342815342, 296.1853009481942, 296.3019676148542, 296.41863428151424, 296.53530094817427, 296.6519676148343, 296.7686342814943, 296.88530094815434, 297.00196761481436, 297.1186342814744, 297.2353009481344, 297.35196761479443, 297.46863428145446, 297.7019676147878]	2021_Feb_01_1133	59.96780216920732	1	0.375
17	50	FALSE	NA	a	['W', 'T', 'C', 'E', 'S', 'K', 'G', 'Y', 'V', 'A', 'N', 'X', 'H', 'Z', 'M', 'U']	[2448, 1888, 829, 904, 1731, 1122, 944, 2670, 2245, 697, 1335, 4000, 986, 2911, 1224, 2059]	12	Present	NA	NA	PRESENT	0.6713199615478516	299.68547797203064	301.69425201416016	302.74426012033183	303.0942620276605	305.80583596229553	4.111583948135376	[299.6997649669647, 299.81664991378784, 300.78916001319885, 300.96782088279724, 301.7185368537903, 301.8353478908539, 301.95194602012634, 302.0688388347626, 302.18577885627747, 302.30268478393555, 302.41918992996216, 302.5359389781952, 302.65295791625977, 302.7696988582611, 302.8864209651947, 303.0033938884735, 303.12003684043884, 303.2367618083954, 303.3537747859955, 303.4704849720001, 303.5872309207916, 303.80583786964417]	[299.7019676147878, 299.8186342814478, 300.80163428144783, 300.9683342814478, 301.7183342814478, 301.83500094810785, 301.95166761476787, 302.0683342814279, 302.1850009480879, 302.30166761474794, 302.41833428140797, 302.535000948068, 302.651667614728, 302.76833428138804, 302.88500094804806, 303.0016676147081, 303.1183342813681, 303.23500094802813, 303.35166761468815, 303.4683342813482, 303.5850009480082, 303.81833428134155]	2021_Feb_01_1133	59.96780216920732	1	0.375
17	51	FALSE	NV	a	['M', 'K', 'J', 'G', 'N', 'T', 'U', 'H', 'X', 'E', 'C', 'S', 'P', 'W', 'Y', 'V']	[1224, 1122, 1029, 944, 1335, 1888, 2059, 986, 4000, 904, 829, 1731, 1456, 2448, 2670, 2245]	9	Present	NA	NA	PRESENT	0.4365999698638916	305.8091199398041	307.81043100357056	308.5104391097623	308.86044101709086	311.92220401763916	4.1117730140686035	[305.8234078884125, 305.93970799446106, 306.9055278301239, 307.0910658836365, 307.8417708873749, 307.9587299823761, 308.07522988319397, 308.19198298454285, 308.3089008331299, 308.42579984664917, 308.5425419807434, 308.65938997268677, 308.77617383003235, 308.8929719924927, 309.0095808506012, 309.12637996673584, 309.2430889606476, 309.3599328994751, 309.4599838256836, 309.5767660140991, 309.69367599487305, 309.92220401763916]	[305.81833428134155, 305.9350009480016, 306.9180009480016, 307.08470094800157, 307.83470094800157, 307.9513676146616, 308.0680342813216, 308.18470094798164, 308.30136761464166, 308.4180342813017, 308.5347009479617, 308.65136761462173, 308.76803428128176, 308.8847009479418, 309.0013676146018, 309.1180342812618, 309.23470094792185, 309.3513676145819, 309.4680342812419, 309.5847009479019, 309.70136761456195, 309.9347009478953]	2021_Feb_01_1133	59.96780216920732	1	0.375
17	52	FALSE	NV	a	['Z', 'R', 'J', 'K', 'S', 'N', 'E', 'A', 'U', 'M', 'C', 'B', 'X', 'H', 'Y', 'T']	[2911, 1587, 1029, 1122, 1731, 1335, 904, 697, 2059, 1224, 829, 760, 4000, 986, 2670, 1888]	13	Present	NA	NA	PRESENT	0.37712597846984863	311.91522002220154	313.9268810749054	315.0935556093185	315.44355775506574	318.0385699272156	4.111688852310181	[311.9295070171356, 312.0461149215698, 313.02189087867737, 313.1973729133606, 313.94812393188477, 314.06520986557007, 314.18172693252563, 314.29854583740234, 314.41553497314453, 314.53211188316345, 314.6488227844238, 314.76582884788513, 314.8829288482666, 314.9994947910309, 315.1160089969635, 315.2330198287964, 315.34964179992676, 315.4665358066559, 315.5834159851074, 315.7000780105591, 315.81681299209595, 316.0385699272156]	[311.9347009478953, 312.0513676145553, 313.0343676145553, 313.2010676145553, 313.9510676145553, 314.06773428121534, 314.18440094787536, 314.3010676145354, 314.4177342811954, 314.53440094785543, 314.65106761451545, 314.7677342811755, 314.8844009478355, 315.0010676144955, 315.11773428115555, 315.2344009478156, 315.3510676144756, 315.4677342811356, 315.58440094779564, 315.70106761445567, 315.8177342811157, 316.05106761444904]	2021_Feb_01_1133	59.96780216920732	1	0.375
17	53	FALSE	NA	a	['T', 'N', 'S', 'E', 'C', 'Y', 'V', 'G', 'X', 'J', 'H', 'W', 'P', 'R', 'M', 'Z']	[1888, 1335, 1731, 904, 829, 2670, 2245, 944, 4000, 1029, 986, 2448, 1456, 1587, 1224, 2911]	9	Present	NA	NA	PRESENT	0.4615709781646729	318.0385720729828	320.04310512542725	320.7431129932004	321.09311513894755	324.154935836792	4.111830711364746	[318.0528588294983, 318.1694338321686, 319.1382567882538, 319.3205258846283, 320.0713999271393, 320.18808698654175, 320.30510783195496, 320.42193484306335, 320.53850984573364, 320.65541100502014, 320.77216386795044, 320.8890619277954, 321.0056347846985, 321.12254881858826, 321.2391879558563, 321.3560469150543, 321.4729609489441, 321.589852809906, 321.7064859867096, 321.8233850002289, 321.9402029514313, 322.154935836792]	[318.05106761444904, 318.16773428110906, 319.15073428110907, 319.31743428110906, 320.06743428110906, 320.1841009477691, 320.3007676144291, 320.41743428108913, 320.53410094774915, 320.6507676144092, 320.7674342810692, 320.8841009477292, 321.00076761438925, 321.11743428104927, 321.2341009477093, 321.3507676143693, 321.46743428102934, 321.58410094768936, 321.7007676143494, 321.8174342810094, 321.93410094766944, 322.1674342810028]	2021_Feb_01_1133	59.96780216920732	1	0.375
17	54	FALSE	AV	a	['P', 'S', 'T', 'B', 'J', 'C', 'Y', 'G', 'surprise', 'V', 'U', 'X', 'K', 'E', 'N', 'W']	[1456, 1731, 1888, 760, 1029, 829, 2670, 944, 'stimAuditory/all_stimAuditory/209.wav', 2245, 2059, 4000, 1122, 904, 1335, 2448]	12	Present	stimAuditory/all_stimAuditory/114.wav	NA	PRESENT	0.4588980674743652	324.16164994239807	326.15958404541016	327.20959215158183	327.5595940589105	330.2713029384613	4.1117188930511475	[324.17593693733215, 324.29275584220886, 325.25462579727173, 325.42722392082214, 326.1947169303894, 326.29466581344604, 326.4114079475403, 326.5283238887787, 326.64512395858765, 326.76175689697266, 326.8785870075226, 326.99543380737305, 327.1123309135437, 327.2290458679199, 327.3458478450775, 327.46272683143616, 327.5792999267578, 327.69625091552734, 327.81315898895264, 327.92988681793213, 328.0464999675751, 328.2713029384613]	[324.1674342810028, 324.2841009476628, 325.2671009476628, 325.4338009476628, 326.1838009476628, 326.3004676143228, 326.41713428098285, 326.5338009476429, 326.6504676143029, 326.7671342809629, 326.88380094762294, 327.00046761428297, 327.117134280943, 327.233800947603, 327.35046761426304, 327.46713428092306, 327.5838009475831, 327.7004676142431, 327.81713428090313, 327.93380094756316, 328.0504676142232, 328.28380094755653]	2021_Feb_01_1133	59.96780216920732	1	0.375
17	55	FALSE	NA	a	['B', 'R', 'Z', 'P', 'S', 'E', 'U', 'T', 'H', 'N', 'X', 'W', 'Y', 'C', 'A', 'J']	[760, 1587, 2911, 1456, 1731, 904, 2059, 1888, 986, 1335, 4000, 2448, 2670, 829, 697, 1029]	11	Present	NA	NA	PRESENT	0.3754439353942871	330.2681550979614	332.27585196495056	333.20919245078795	333.55919531179086	336.3876688480377	4.111816883087158	[330.28244185447693, 330.3991439342499, 331.37099385261536, 331.5503718852997, 332.30157995224, 332.4179849624634, 332.5347249507904, 332.6515808105469, 332.7683629989624, 332.8849229812622, 333.0017759799957, 333.118656873703, 333.23539090156555, 333.3521418571472, 333.46915102005005, 333.5859467983246, 333.70252299308777, 333.81924295425415, 333.9360508918762, 334.0528349876404, 334.16980481147766, 334.3876688480377]	[330.28380094755653, 330.40046761421655, 331.38346761421656, 331.55016761421655, 332.30016761421655, 332.41683428087657, 332.5335009475366, 332.6501676141966, 332.76683428085664, 332.88350094751667, 333.0001676141767, 333.1168342808367, 333.23350094749674, 333.35016761415676, 333.4668342808168, 333.5835009474768, 333.70016761413683, 333.81683428079685, 333.9335009474569, 334.0501676141169, 334.1668342807769, 334.4001676141103]	2021_Feb_01_1133	59.96780216920732	1	0.375
17	56	FALSE	NN	a	['A', 'V', 'S', 'H', 'R', 'Z', 'G', 'E', 'N', 'K', 'J', 'P', 'C', 'U', 'W', 'T']	[697, 2245, 1731, 986, 1587, 2911, 944, 904, 1335, 1122, 1029, 1456, 829, 2059, 2448, 1888]	11	Absent	NA	NA	ABSENT	0.5890800952911377	336.39143204689026	338.3925230503082	339.32586329772704	339.6758654434742	342.50403594970703	4.111512899398804	[336.40571999549866, 336.5224997997284, 337.487361907959, 337.6735978126526, 338.42438197135925, 338.54123282432556, 338.6580259799957, 338.77453684806824, 338.89144682884216, 339.0081398487091, 339.12487292289734, 339.2417628765106, 339.35882782936096, 339.4586179256439, 339.57551980018616, 339.69217681884766, 339.8089578151703, 339.9257848262787, 340.04257583618164, 340.1593279838562, 340.2761709690094, 340.50403594970703]	[336.4001676141103, 336.5168342807703, 337.4998342807703, 337.6665342807703, 338.4165342807703, 338.5332009474303, 338.64986761409034, 338.76653428075036, 338.8832009474104, 338.9998676140704, 339.11653428073043, 339.23320094739046, 339.3498676140505, 339.4665342807105, 339.5832009473705, 339.69986761403055, 339.8165342806906, 339.9332009473506, 340.0498676140106, 340.16653428067065, 340.28320094733067, 340.516534280664]	2021_Feb_01_1133	59.96780216920732	1	0.375
17	57	FALSE	NV	a	['S', 'P', 'R', 'B', 'A', 'H', 'G', 'U', 'J', 'K', 'V', 'M', 'X', 'Z', 'T', 'Y']	[1731, 1456, 1587, 760, 697, 986, 944, 2059, 1029, 1122, 2245, 1224, 4000, 2911, 1888, 2670]	13	Present	NA	NA	PRESENT	0.4333097934722901	342.49781703948975	344.5087959766388	345.6754717031448	346.02547361047345	348.62040281295776	4.11160683631897	[342.51210284233093, 342.628741979599, 343.60372495651245, 343.78009700775146, 344.53070187568665, 344.6477189064026, 344.76430583000183, 344.8813660144806, 344.99810099601746, 345.11479592323303, 345.2315800189972, 345.3482849597931, 345.46497893333435, 345.5818498134613, 345.69876289367676, 345.8153829574585, 345.9325988292694, 346.04896998405457, 346.16595792770386, 346.28259801864624, 346.3994188308716, 346.62040281295776]	[342.516534280664, 342.63320094732404, 343.61620094732405, 343.78290094732404, 344.53290094732404, 344.64956761398406, 344.7662342806441, 344.8829009473041, 344.99956761396413, 345.11623428062416, 345.2329009472842, 345.3495676139442, 345.4662342806042, 345.58290094726425, 345.6995676139243, 345.8162342805843, 345.9329009472443, 346.04956761390434, 346.16623428056437, 346.2829009472244, 346.3995676138844, 346.63290094721776]	2021_Feb_01_1133	59.96780216920732	1	0.375
17	58	FALSE	NA	a	['U', 'M', 'K', 'Y', 'R', 'T', 'C', 'Z', 'V', 'G', 'E', 'X', 'W', 'B', 'J', 'P']	[2059, 1224, 1122, 2670, 1587, 1888, 829, 2911, 2245, 944, 904, 4000, 2448, 760, 1029, 1456]	12	Present	NA	NA	PRESENT	0.478024959564209	348.6209330558777	350.6248869895935	351.67489414209086	352.0248960494195	354.73676896095276	4.111881971359253	[348.6352188587189, 348.7520749568939, 349.7200930118561, 349.9030888080597, 350.65384888648987, 350.7709448337555, 350.8875539302826, 351.0042688846588, 351.1210558414459, 351.2380039691925, 351.354660987854, 351.47142481803894, 351.58827900886536, 351.70524501800537, 351.82192397117615, 351.9385359287262, 352.0555980205536, 352.1723129749298, 352.2892379760742, 352.4058449268341, 352.52269291877747, 352.73676800727844]	[348.63290094721776, 348.7495676138778, 349.7325676138778, 349.8992676138778, 350.6492676138778, 350.7659342805378, 350.88260094719783, 350.99926761385785, 351.1159342805179, 351.2326009471779, 351.3492676138379, 351.46593428049795, 351.58260094715797, 351.699267613818, 351.815934280478, 351.93260094713804, 352.04926761379807, 352.1659342804581, 352.2826009471181, 352.39926761377814, 352.51593428043816, 352.7492676137715]	2021_Feb_01_1133	59.96780216920732	1	0.375
17	59	FALSE	NV	a	['E', 'T', 'N', 'J', 'M', 'R', 'V', 'U', 'K', 'S', 'G', 'Y', 'X', 'A', 'C', 'W']	[904, 1888, 1335, 1029, 1224, 1587, 2245, 2059, 1122, 1731, 944, 2670, 4000, 697, 829, 2448]	13	Present	NA	NA	ABSENT	0.6672489643096924	354.74397706985474	356.74133706092834	357.90801183376004	358.2580137410887	360.8531370162964	4.111799955368042	[354.75826501846313, 354.8583219051361, 355.83646178245544, 356.00998997688293, 356.76043486595154, 356.87716579437256, 356.9942409992218, 357.1109948158264, 357.2277488708496, 357.3446159362793, 357.4612259864807, 357.5780589580536, 357.69462990760803, 357.81160283088684, 357.928475856781, 358.04520297050476, 358.1620810031891, 358.2788670063019, 358.3954439163208, 358.51246881484985, 358.62926197052, 358.8531358242035]	[354.7492676137715, 354.86593428043153, 355.84893428043154, 356.0156342804315, 356.7656342804315, 356.88230094709155, 356.9989676137516, 357.1156342804116, 357.2323009470716, 357.34896761373165, 357.46563428039167, 357.5823009470517, 357.6989676137117, 357.81563428037174, 357.93230094703176, 358.0489676136918, 358.1656342803518, 358.28230094701183, 358.39896761367186, 358.5156342803319, 358.6323009469919, 358.86563428032525]	2021_Feb_01_1133	59.96780216920732	1	0.375
17	60	FALSE	NA	a	['E', 'C', 'Y', 'S', 'R', 'B', 'T', 'Z', 'V', 'H', 'M', 'A', 'N', 'X', 'J', 'P']	[904, 829, 2670, 1731, 1587, 760, 1888, 2911, 2245, 986, 1224, 697, 1335, 4000, 1029, 1456]	14	Present	NA	NA	PRESENT	0.5039410591125488	360.8505439758301	362.8576049804687	364.1409464199604	364.49094832728906	366.9695029258728	4.111897945404053	[360.86483097076416, 360.98172879219055, 361.9528248310089, 362.1328139305115, 362.8837559223175, 363.00045895576477, 363.11721682548523, 363.23414397239685, 363.3510158061981, 363.46776485443115, 363.58440685272217, 363.7012288570404, 363.818158864975, 363.9349009990692, 364.05149579048157, 364.16820096969604, 364.28523302078247, 364.40195178985596, 364.5187900066376, 364.63543486595154, 364.75241589546204, 364.9695038795471]	[360.86563428032525, 360.9823009469853, 361.9653009469853, 362.1320009469853, 362.8820009469853, 362.9986676136453, 363.1153342803053, 363.23200094696534, 363.34866761362537, 363.4653342802854, 363.5820009469454, 363.69866761360544, 363.81533428026546, 363.9320009469255, 364.0486676135855, 364.16533428024553, 364.28200094690555, 364.3986676135656, 364.5153342802256, 364.6320009468856, 364.74866761354565, 364.982000946879]	2021_Feb_01_1133	59.96780216920732	1	0.375
17	61	FALSE	NV	a	['R', 'B', 'A', 'Z', 'H', 'Y', 'G', 'E', 'S', 'V', 'X', 'P', 'K', 'J', 'U', 'W']	[1587, 760, 697, 2911, 986, 2670, 944, 904, 1731, 2245, 4000, 1456, 1122, 1029, 2059, 2448]	11	Present	NA	NA	PRESENT	0.525109052658081	366.9740071296692	368.97406101226807	369.90740149810546	370.2574034054341	373.08586978912354	4.111808776855469	[366.9882938861847, 367.1048209667206, 368.06919384002686, 368.2561550140381, 369.006942987442, 369.1237359046936, 369.2236878871918, 369.3404848575592, 369.4572739601135, 369.5740988254547, 369.69082593917847, 369.8076238632202, 369.92434191703796, 370.0411579608917, 370.1579809188843, 370.2746858596802, 370.3915579319, 370.5082859992981, 370.6252830028534, 370.7420790195465, 370.8587839603424, 371.0858688354492]	[366.982000946879, 367.098667613539, 368.081667613539, 368.248367613539, 368.998367613539, 369.11503428019904, 369.23170094685906, 369.3483676135191, 369.4650342801791, 369.58170094683913, 369.69836761349916, 369.8150342801592, 369.9317009468192, 370.04836761347923, 370.16503428013925, 370.2817009467993, 370.3983676134593, 370.5150342801193, 370.63170094677935, 370.74836761343937, 370.8650342800994, 371.09836761343274]	2021_Feb_01_1133	59.96780216920732	1	0.375
17	62	FALSE	NA	a	['P', 'A', 'C', 'K', 'T', 'E', 'M', 'R', 'X', 'B', 'Z', 'W', 'H', 'S', 'G', 'Y']	[1456, 697, 829, 1122, 1888, 904, 1224, 1587, 4000, 760, 2911, 2448, 986, 1731, 944, 2670]	9	Present	NA	NA	PRESENT	0.3616480827331543	373.0803380012512	375.0907230377197	375.79073114391144	376.1407320975657	379.2022359371186	4.111512899398804	[373.0946259498596, 373.21135997772217, 374.18555998802185, 374.3623559474945, 375.1133179664612, 375.23014187812805, 375.34686493873596, 375.46375584602356, 375.5804328918457, 375.6974198818207, 375.8140618801117, 375.930832862854, 376.04768800735474, 376.16448879241943, 376.28126788139343, 376.3979859352112, 376.5147178173065, 376.63170289993286, 376.7484848499298, 376.8652639389038, 376.98243379592896, 377.20223593711853]	[373.09836761343274, 373.21503428009277, 374.19803428009277, 374.36473428009276, 375.11473428009276, 375.2314009467528, 375.3480676134128, 375.46473428007283, 375.58140094673286, 375.6980676133929, 375.8147342800529, 375.9314009467129, 376.04806761337295, 376.164734280033, 376.281400946693, 376.398067613353, 376.51473428001304, 376.63140094667307, 376.7480676133331, 376.8647342799931, 376.98140094665314, 377.2147342799865]	2021_Feb_01_1133	59.96780216920732	1	0.375
17	63	FALSE	NV	a	['E', 'S', 'K', 'P', 'Z', 'B', 'Y', 'V', 'A', 'X', 'W', 'C', 'T', 'M', 'N', 'U']	[904, 1731, 1122, 1456, 2911, 760, 2670, 2245, 697, 4000, 2448, 829, 1888, 1224, 1335, 2059]	10	Present	NA	NA	PRESENT	0.574009895324707	379.2033951282501	381.20694303512573	382.0236178079774	382.37361971530606	385.31860399246216	4.111660957336426	[379.2176809310913, 379.3346128463745, 380.3019289970398, 380.4856798648834, 381.23650789260864, 381.3534619808197, 381.4701359272003, 381.58700489997864, 381.703724861145, 381.8206558227539, 381.93736696243286, 382.05424284935, 382.17099690437317, 382.28759479522705, 382.4044198989868, 382.5212998390198, 382.6382358074188, 382.75483679771423, 382.8715159893036, 382.9883029460907, 383.1051228046417, 383.3186049461365]	[379.2147342799865, 379.3314009466465, 380.3144009466465, 380.4811009466465, 381.2311009466465, 381.34776761330653, 381.46443427996655, 381.5811009466266, 381.6977676132866, 381.8144342799466, 381.93110094660665, 382.04776761326667, 382.1644342799267, 382.2811009465867, 382.39776761324674, 382.51443427990677, 382.6311009465668, 382.7477676132268, 382.86443427988684, 382.98110094654686, 383.0977676132069, 383.33110094654023]	2021_Feb_01_1133	59.96780216920732	1	0.375
17	64	FALSE	VN	a	['B', 'C', 'U', 'G', 'V', 'Z', 'surprise', 'M', 'E', 'W', 'K', 'T', 'Y', 'S', 'P', 'A']	[760, 829, 2059, 944, 2245, 2911, 'stimAuditory/all_stimAuditory/117.wav', 1224, 904, 2448, 1122, 1888, 2670, 1731, 1456, 697]	10	Absent	NA	NA	ABSENT	0.6834580898284912	385.30980110168457	387.3231420516968	388.1398156324556	388.4898177782028	391.43496894836426	4.1118268966674805	[385.3240878582001, 385.44097685813904, 386.4182949066162, 386.59239387512207, 387.3432250022888, 387.4598858356476, 387.57655096054077, 387.69345688819885, 387.8101849555969, 387.9271388053894, 388.0438828468323, 388.16076278686523, 388.2774348258972, 388.394339799881, 388.5109407901764, 388.62782192230225, 388.74441385269165, 388.8613078594208, 388.97807693481445, 389.09484481811523, 389.2117409706116, 389.4349708557129]	[385.33110094654023, 385.44776761320026, 386.43076761320026, 386.59746761320025, 387.34746761320025, 387.4641342798603, 387.5808009465203, 387.6974676131803, 387.81413427984035, 387.93080094650037, 388.0474676131604, 388.1641342798204, 388.28080094648044, 388.39746761314046, 388.5141342798005, 388.6308009464605, 388.74746761312053, 388.86413427978056, 388.9808009464406, 389.0974676131006, 389.21413427976063, 389.447467613094]	2021_Feb_01_1133	59.96780216920732	1	0.375
17	65	FALSE	NN	a	['M', 'G', 'E', 'Z', 'J', 'C', 'P', 'K', 'H', 'R', 'W', 'B', 'T', 'V', 'Y', 'N']	[1224, 944, 904, 2911, 1029, 829, 1456, 1122, 986, 1587, 2448, 760, 1888, 2245, 2670, 1335]	8	Absent	NA	NA	ABSENT	0.5920488834381104	391.43309116363525	393.43956208229065	394.02290232972945	394.3729044754767	397.5513370037079	4.111774921417236	[391.44737792015076, 391.5643198490143, 392.5346598625183, 392.71530389785767, 393.46620202064514, 393.5829699039459, 393.699875831604, 393.81670093536377, 393.93349981307983, 394.05012583732605, 394.16710901260376, 394.2837619781494, 394.4006519317627, 394.5174169540405, 394.6341679096222, 394.75079894065857, 394.8677577972412, 394.98455786705017, 395.1013629436493, 395.2181990146637, 395.3350348472595, 395.551335811615]	[391.447467613094, 391.564134279754, 392.547134279754, 392.713834279754, 393.463834279754, 393.580500946414, 393.69716761307404, 393.81383427973407, 393.9305009463941, 394.0471676130541, 394.16383427971414, 394.28050094637416, 394.3971676130342, 394.5138342796942, 394.63050094635423, 394.74716761301426, 394.8638342796743, 394.9805009463343, 395.0971676129943, 395.21383427965435, 395.3305009463144, 395.5638342796477]	2021_Feb_01_1133	59.96780216920732	1	0.375
17	66	FALSE	NA	a	['T', 'V', 'A', 'C', 'G', 'J', 'W', 'P', 'S', 'R', 'U', 'M', 'Z', 'X', 'H', 'K']	[1888, 2245, 697, 829, 944, 1029, 2448, 1456, 1731, 1587, 2059, 1224, 2911, 4000, 986, 1122]	14	Present	NA	NA	ABSENT	0.6534519195556641	397.5567231178284	399.55616998672485	400.8395114262165	401.1895133335451	403.66770195961	4.111531972885132	[397.5710108280182, 397.6873228549957, 398.6510260105133, 398.8387818336487, 399.5896329879761, 399.6894009113312, 399.8062129020691, 399.9230008125305, 400.03981590270996, 400.1566197872162, 400.27336382865906, 400.390193939209, 400.50717401504517, 400.6237199306488, 400.7405138015747, 400.8572838306427, 400.97413992881775, 401.0910758972168, 401.20772790908813, 401.324590921402, 401.44130992889404, 401.66770195961]	[397.5638342796477, 397.68050094630775, 398.66350094630775, 398.83020094630774, 399.58020094630774, 399.69686761296776, 399.8135342796278, 399.9302009462878, 400.04686761294784, 400.16353427960786, 400.2802009462679, 400.3968676129279, 400.51353427958793, 400.63020094624795, 400.746867612908, 400.863534279568, 400.980200946228, 401.09686761288805, 401.21353427954807, 401.3302009462081, 401.4468676128681, 401.68020094620147]	2021_Feb_01_1133	59.96780216920732	1	0.375
17	67	FALSE	NN	a	['V', 'W', 'A', 'H', 'U', 'J', 'B', 'S', 'K', 'E', 'Z', 'Y', 'R', 'N', 'P', 'C']	[2245, 2448, 697, 986, 2059, 1029, 760, 1731, 1122, 904, 2911, 2670, 1587, 1335, 1456, 829]	11	Absent	NA	NA	ABSENT	0.6416749954223633	403.66288900375366	405.67235016822815	406.6056913693213	406.95569327664987	409.7840688228607	4.111718654632568	[403.67717599868774, 403.7939338684082, 404.7673919200897, 404.9450469017029, 405.6958680152893, 405.8128008842468, 405.9296028614044, 406.0462188720703, 406.1630139350891, 406.28000497817993, 406.39672899246216, 406.5135669708252, 406.63039088249207, 406.74703097343445, 406.8637549877167, 406.9809470176697, 407.09747195243835, 407.2141909599304, 407.3309428691864, 407.4478919506073, 407.56461095809937, 407.7840688228607]	[403.68020094620147, 403.7968676128615, 404.7798676128615, 404.9465676128615, 405.6965676128615, 405.8132342795215, 405.92990094618153, 406.04656761284156, 406.1632342795016, 406.2799009461616, 406.3965676128216, 406.51323427948165, 406.6299009461417, 406.7465676128017, 406.8632342794617, 406.97990094612175, 407.09656761278177, 407.2132342794418, 407.3299009461018, 407.44656761276184, 407.56323427942186, 407.7965676127552]	2021_Feb_01_1133	59.96780216920732	1	0.375
17	68	FALSE	NV	a	['K', 'S', 'H', 'J', 'N', 'U', 'C', 'A', 'X', 'R', 'T', 'E', 'G', 'M', 'Z', 'W']	[1122, 1731, 986, 1029, 1335, 2059, 829, 697, 4000, 1587, 1888, 904, 944, 1224, 2911, 2448]	9	Present	NA	NA	PRESENT	0.48653101921081543	409.78654503822327	411.7886691093445	412.4886769771176	412.8386791228648	415.90043592453	4.111766815185547	[409.80083179473877, 409.9170389175415, 410.8837568759918, 411.0684759616852, 411.8190770149231, 411.9360258579254, 412.0525758266449, 412.1696138381958, 412.28633093833923, 412.4032440185547, 412.52009987831116, 412.6367859840393, 412.75334882736206, 412.87032890319824, 412.9870698451996, 413.1038119792938, 413.22062492370605, 413.33729696273804, 413.45425486564636, 413.5709488391876, 413.6876540184021, 413.90043783187866]	[409.7965676127552, 409.91323427941524, 410.89623427941524, 411.06293427941523, 411.81293427941523, 411.92960094607525, 412.0462676127353, 412.1629342793953, 412.2796009460553, 412.39626761271535, 412.5129342793754, 412.6296009460354, 412.7462676126954, 412.86293427935544, 412.97960094601547, 413.0962676126755, 413.2129342793355, 413.32960094599554, 413.44626761265556, 413.5629342793156, 413.6796009459756, 413.91293427930896]	2021_Feb_01_1133	59.96780216920732	1	0.375
17	69	FALSE	VA	a	['V', 'C', 'G', 'N', 'P', 'Z', 'R', 'J', 'surprise', 'U', 'S', 'X', 'H', 'M', 'E', 'K']	[2245, 829, 944, 1335, 1456, 2911, 1587, 1029, 'stimAuditory/all_stimAuditory/116.wav', 2059, 1731, 4000, 986, 1224, 904, 1122]	12	Present	NA	NA	PRESENT	0.4516379833221435	415.8924150466919	417.905219078064	418.95522694581706	419.3052290915643	422.01680397987366	4.111584901809692	[415.9067130088806, 416.02365899086, 417.00012588500977, 417.17512488365173, 417.9255290031433, 418.04256987571716, 418.15911889076233, 418.27610993385315, 418.3927438259125, 418.5096929073334, 418.6263527870178, 418.7432019710541, 418.8599238395691, 418.97683095932007, 419.0934109687805, 419.21013879776, 419.3269658088684, 419.4440219402313, 419.56076192855835, 419.6775379180908, 419.7943069934845, 420.01680278778076]	[415.91293427930896, 416.029600945969, 417.012600945969, 417.179300945969, 417.929300945969, 418.045967612629, 418.162634279289, 418.27930094594905, 418.39596761260907, 418.5126342792691, 418.6293009459291, 418.74596761258914, 418.86263427924916, 418.9793009459092, 419.0959676125692, 419.21263427922923, 419.32930094588926, 419.4459676125493, 419.5626342792093, 419.67930094586933, 419.79596761252935, 420.0293009458627]	2021_Feb_01_1133	59.96780216920732	1	0.375
17	70	FALSE	NA	a	['Y', 'G', 'W', 'N', 'T', 'V', 'Z', 'P', 'C', 'X', 'A', 'B', 'S', 'H', 'R', 'K']	[2670, 944, 2448, 1335, 1888, 2245, 2911, 1456, 829, 4000, 697, 760, 1731, 986, 1587, 1122]	10	Present	NA	NA	PRESENT	0.2882239818572998	422.01559805870056	424.0213761329651	424.8380506673982	425.1880528131454	428.13316893577576	4.111792802810669	[422.02988600730896, 422.1468369960785, 423.11649084091187, 423.29795384407043, 424.04877400398254, 424.16547083854675, 424.2824249267578, 424.3992018699646, 424.51588582992554, 424.63289284706116, 424.74960589408875, 424.86631083488464, 424.9832618236542, 425.09995198249817, 425.2168869972229, 425.3333249092102, 425.4504199028015, 425.567165851593, 425.68375301361084, 425.80062794685364, 425.9173889160156, 426.13316893577576]	[422.0293009458627, 422.1459676125227, 423.12896761252273, 423.2956676125227, 424.0456676125227, 424.16233427918274, 424.27900094584277, 424.3956676125028, 424.5123342791628, 424.62900094582284, 424.74566761248286, 424.8623342791429, 424.9790009458029, 425.09566761246293, 425.21233427912296, 425.329000945783, 425.445667612443, 425.562334279103, 425.67900094576305, 425.7956676124231, 425.9123342790831, 426.14566761241645]	2021_Feb_01_1133	59.96780216920732	1	0.375
17	71	FALSE	NN	a	['T', 'Y', 'U', 'P', 'V', 'K', 'Z', 'H', 'N', 'W', 'G', 'E', 'B', 'A', 'R', 'M']	[1888, 2670, 2059, 1456, 2245, 1122, 2911, 986, 1335, 2448, 944, 904, 760, 697, 1587, 1224]	8	Absent	NA	NA	ABSENT	0.589587926864624	428.13920307159424	430.13780903816223	430.72114928560103	431.07115143134826	434.2495369911194	4.111727952957153	[428.15349102020264, 428.2700619697571, 429.2328598499298, 429.40439200401306, 430.1720108985901, 430.27217197418213, 430.3887310028076, 430.5056719779968, 430.6223258972168, 430.73922991752625, 430.8559799194336, 430.97291684150696, 431.08978295326233, 431.20655393600464, 431.3231348991394, 431.44002890586853, 431.55677795410156, 431.6736648082733, 431.79038286209106, 431.90721678733826, 432.0239329338074, 432.2495369911194]	[428.14566761241645, 428.26233427907647, 429.2453342790765, 429.41203427907647, 430.16203427907647, 430.2787009457365, 430.3953676123965, 430.51203427905654, 430.62870094571656, 430.7453676123766, 430.8620342790366, 430.97870094569663, 431.09536761235665, 431.2120342790167, 431.3287009456767, 431.4453676123367, 431.56203427899675, 431.6787009456568, 431.7953676123168, 431.9120342789768, 432.02870094563684, 432.2620342789702]	2021_Feb_01_1133	59.96780216920732	1	0.375
17	72	FALSE	NV	a	['W', 'E', 'P', 'S', 'H', 'M', 'V', 'A', 'X', 'J', 'K', 'U', 'G', 'N', 'Y', 'R']	[2448, 904, 1456, 1731, 986, 1224, 2245, 697, 4000, 1029, 1122, 2059, 944, 1335, 2670, 1587]	9	Present	NA	NA	PRESENT	0.8024039268493652	434.2455430030823	436.25408005714417	436.9540881633359	437.3040900706645	440.3659029006958	4.111822843551636	[434.25984287261963, 434.37655997276306, 435.3492259979248, 435.5276348590851, 436.278431892395, 436.39535999298096, 436.5121388435364, 436.62892293930054, 436.74566102027893, 436.86264085769653, 436.97930097579956, 437.09616589546204, 437.2129349708557, 437.3297109603882, 437.44648480415344, 437.5630497932434, 437.6799569129944, 437.7966938018799, 437.91391587257385, 438.0302360057831, 438.14714884757996, 438.3659038543701]	[434.2620342789702, 434.3787009456302, 435.3617009456302, 435.5284009456302, 436.2784009456302, 436.39506761229023, 436.51173427895026, 436.6284009456103, 436.7450676122703, 436.8617342789303, 436.97840094559035, 437.0950676122504, 437.2117342789104, 437.3284009455704, 437.44506761223045, 437.56173427889047, 437.6784009455505, 437.7950676122105, 437.91173427887054, 438.02840094553056, 438.1450676121906, 438.37840094552394]	2021_Feb_01_1133	59.96780216920732	1	0.375
17	73	FALSE	VA	a	['B', 'N', 'P', 'A', 'H', 'W', 'surprise', 'T', 'V', 'X', 'Z', 'U', 'J', 'G', 'K', 'S']	[760, 1335, 1456, 697, 986, 2448, 'stimAuditory/all_stimAuditory/104.wav', 1888, 2245, 4000, 2911, 2059, 1029, 944, 1122, 1731]	10	Present	NA	NA	PRESENT	0.4476470947265625	440.3684711456299	442.3705739974976	443.1872487703493	443.5372506776779	446.4822700023651	4.111696004867554	[440.3827579021454, 440.4997069835663, 441.4655919075012, 441.65098881721497, 442.4016959667206, 442.5187609195709, 442.6353368759155, 442.75194692611694, 442.86886501312256, 442.98552799224854, 443.10259985923767, 443.2191469669342, 443.33612990379333, 443.45270681381226, 443.56968784332275, 443.6863739490509, 443.80314898490906, 443.92002987861633, 444.0368459224701, 444.1535999774933, 444.2535479068756, 444.4822688102722]	[440.37840094552394, 440.49506761218396, 441.47806761218396, 441.64476761218395, 442.39476761218395, 442.511434278844, 442.628100945504, 442.744767612164, 442.86143427882405, 442.9781009454841, 443.0947676121441, 443.2114342788041, 443.32810094546414, 443.44476761212417, 443.5614342787842, 443.6781009454442, 443.79476761210424, 443.91143427876426, 444.0281009454243, 444.1447676120843, 444.26143427874433, 444.4947676120777]	2021_Feb_01_1133	59.96780216920732	1	0.375
17	74	FALSE	NN	a	['B', 'T', 'A', 'K', 'W', 'H', 'J', 'V', 'S', 'M', 'N', 'G', 'R', 'C', 'U', 'Z']	[760, 1888, 697, 1122, 2448, 986, 1029, 2245, 1731, 1224, 1335, 944, 1587, 829, 2059, 2911]	11	Absent	NA	NA	ABSENT	0.5238521099090576	446.4751801490784	448.48678612709045	449.42012637450927	449.77012828183786	452.59863686561584	4.111850738525391	[446.4894669055939, 446.6061339378357, 447.58195900917053, 447.75731086730957, 448.50847482681274, 448.6250789165497, 448.7416138648987, 448.85863995552063, 448.97523283958435, 449.09231996536255, 449.2090058326721, 449.3258128166199, 449.44254779815674, 449.5592408180237, 449.67623496055603, 449.7928478717804, 449.90963196754456, 450.02632093429565, 450.143189907074, 450.25995779037476, 450.37690591812134, 450.5986359119415]	[446.4947676120777, 446.6114342787377, 447.5944342787377, 447.7611342787377, 448.5111342787377, 448.6278009453977, 448.74446761205775, 448.86113427871777, 448.9778009453778, 449.0944676120378, 449.21113427869784, 449.32780094535786, 449.4444676120179, 449.5611342786779, 449.67780094533794, 449.79446761199796, 449.911134278658, 450.027800945318, 450.14446761197803, 450.26113427863805, 450.3778009452981, 450.6111342786314]	2021_Feb_01_1133	59.96780216920732	1	0.375
17	75	FALSE	NN	a	['S', 'Z', 'R', 'K', 'A', 'C', 'N', 'E', 'B', 'G', 'J', 'H', 'Y', 'M', 'W', 'V']	[1731, 2911, 1587, 1122, 697, 829, 1335, 904, 760, 944, 1029, 986, 2670, 1224, 2448, 2245]	11	Absent	NA	NA	ABSENT	0.5766391754150391	452.5981140136719	454.6033890247345	455.5367304642462	455.8867323715748	458.7150039672851	4.111614942550659	[452.61240100860596, 452.72916984558105, 453.6983268260956, 453.88058590888977, 454.63132786750793, 454.7482478618622, 454.86496901512146, 454.9817998409271, 455.09866285324097, 455.215411901474, 455.33221793174744, 455.4488170146942, 455.5658268928528, 455.68239188194275, 455.79934883117676, 455.91602396965027, 456.0327489376068, 456.149484872818, 456.2664849758148, 456.38312792778015, 456.499853849411, 456.71500182151794]	[452.6111342786314, 452.72780094529145, 453.71080094529145, 453.87750094529144, 454.62750094529144, 454.74416761195147, 454.8608342786115, 454.9775009452715, 455.09416761193154, 455.21083427859156, 455.3275009452516, 455.4441676119116, 455.56083427857163, 455.67750094523166, 455.7941676118917, 455.9108342785517, 456.0275009452117, 456.14416761187175, 456.2608342785318, 456.3775009451918, 456.4941676118518, 456.72750094518517]	2021_Feb_01_1133	59.96780216920732	1	0.375
17	76	FALSE	NV	a	['K', 'G', 'Y', 'Z', 'M', 'P', 'C', 'V', 'X', 'T', 'W', 'A', 'J', 'E', 'N', 'R']	[1122, 944, 2670, 2911, 1224, 1456, 829, 2245, 4000, 1888, 2448, 697, 1029, 904, 1335, 1587]	9	Present	NA	NA	PRESENT	0.42179203033447266	458.7218680381775	460.7198750972748	461.4198829650479	461.7698851107951	464.8313698768616	4.111494779586792	[458.736154794693, 458.85245084762573, 459.8146939277649, 459.9869840145111, 460.75440192222595, 460.854642868042, 460.971293926239, 461.0883309841156, 461.2049717903137, 461.3218939304352, 461.43861293792725, 461.5554919242859, 461.6722888946533, 461.78901290893555, 461.9057478904724, 462.0224509239197, 462.1393609046936, 462.25600695610046, 462.3728349208832, 462.4895279407501, 462.60659289360046, 462.83136892318726]	[458.72750094518517, 458.8441676118452, 459.8271676118452, 459.9938676118452, 460.7438676118452, 460.8605342785052, 460.97720094516524, 461.09386761182526, 461.2105342784853, 461.3272009451453, 461.44386761180533, 461.56053427846535, 461.6772009451254, 461.7938676117854, 461.9105342784454, 462.02720094510545, 462.1438676117655, 462.2605342784255, 462.3772009450855, 462.49386761174554, 462.61053427840557, 462.8438676117389]	2021_Feb_01_1133	59.96780216920732	1	0.375
17	77	FALSE	VA	a	['V', 'U', 'J', 'N', 'K', 'H', 'P', 'Z', 'A', 'R', 'surprise', 'W', 'B', 'X', 'E', 'Y']	[2245, 2059, 1029, 1335, 1122, 986, 1456, 2911, 697, 1587, 'stimAuditory/all_stimAuditory/208.wav', 2448, 760, 4000, 904, 2670]	14	Present	NA	NA	PRESENT	0.49045801162719727	464.8278510570526	466.8360641002655	468.1194053013386	468.4694074470858	470.9477369785309	4.111672878265381	[464.8421378135681, 464.9591999053955, 465.9310607910156, 466.110328912735, 466.8610939979553, 466.977952003479, 467.09473299980164, 467.21135687828064, 467.3282768726349, 467.44486379623413, 467.5616638660431, 467.6786229610443, 467.7959418296814, 467.91234397888184, 468.0289947986603, 468.1457328796387, 468.2626368999481, 468.3791608810425, 468.49622797966003, 468.6128888130188, 468.7298069000244, 468.9477369785309]	[464.8438676117389, 464.96053427839894, 465.94353427839894, 466.11023427839893, 466.86023427839893, 466.97690094505896, 467.093567611719, 467.210234278379, 467.32690094503903, 467.44356761169905, 467.5602342783591, 467.6769009450191, 467.7935676116791, 467.91023427833915, 468.02690094499917, 468.1435676116592, 468.2602342783192, 468.37690094497924, 468.49356761163926, 468.6102342782993, 468.7269009449593, 468.96023427829266]	2021_Feb_01_1133	59.96780216920732	1	0.375
17	78	FALSE	NA	a	['M', 'V', 'G', 'Y', 'Z', 'T', 'S', 'R', 'H', 'U', 'E', 'A', 'K', 'X', 'J', 'P']	[1224, 2245, 944, 2670, 2911, 1888, 1731, 1587, 986, 2059, 904, 697, 1122, 4000, 1029, 1456]	14	Present	NA	NA	PRESENT	0.5358588695526123	470.9512300491333	472.95228600502014	474.2356274445118	474.58562935184045	477.064101934433	4.111815929412842	[470.9655168056488, 471.082172870636, 472.0474269390106, 472.2334098815918, 472.984258890152, 473.1011378765106, 473.21782183647156, 473.3345558643341, 473.4513409137726, 473.5683569908142, 473.6850929260254, 473.80180191993713, 473.91843485832214, 474.01848101615906, 474.13540291786194, 474.25211095809937, 474.368901014328, 474.4857439994812, 474.60246181488037, 474.7192499637604, 474.83606791496277, 475.06410098075867]	[470.96023427829266, 471.0769009449527, 472.0599009449527, 472.2266009449527, 472.9766009449527, 473.0932676116127, 473.2099342782727, 473.32660094493275, 473.4432676115928, 473.5599342782528, 473.6766009449128, 473.79326761157284, 473.90993427823287, 474.0266009448929, 474.1432676115529, 474.25993427821294, 474.37660094487296, 474.493267611533, 474.609934278193, 474.72660094485303, 474.84326761151306, 475.0766009448464]	2021_Feb_01_1133	59.96780216920732	1	0.375
17	79	FALSE	NA	a	['K', 'G', 'S', 'V', 'A', 'Y', 'H', 'Z', 'P', 'M', 'C', 'X', 'J', 'N', 'R', 'B']	[1122, 944, 1731, 2245, 697, 2670, 986, 2911, 1456, 1224, 829, 4000, 1029, 1335, 1587, 760]	12	Present	NA	NA	PRESENT	0.3642520904541016	477.0576741695404	479.0688531398773	480.1188600539561	480.46886196128474	483.1804699897766	4.111616849899292	[477.0719609260559, 477.18879079818726, 478.16379284858704, 478.3402678966522, 479.0905568599701, 479.20754289627075, 479.32435393333435, 479.4409918785095, 479.5579228401184, 479.6747479438782, 479.79153990745544, 479.90841579437256, 480.02500796318054, 480.14177680015564, 480.25878381729126, 480.3753077983856, 480.49239683151245, 480.6089608669281, 480.7257878780365, 480.8425748348236, 480.95945382118225, 481.1804678440094]	[477.0766009448464, 477.1932676115064, 478.17626761150643, 478.3429676115064, 479.0929676115064, 479.20963427816645, 479.32630094482647, 479.4429676114865, 479.5596342781465, 479.67630094480654, 479.79296761146657, 479.9096342781266, 480.0263009447866, 480.14296761144664, 480.25963427810666, 480.3763009447667, 480.4929676114267, 480.60963427808673, 480.72630094474675, 480.8429676114068, 480.9596342780668, 481.19296761140015]	2021_Feb_01_1133	59.96780216920732	1	0.375
