participant	trial_num	practice	task	condition	RSVP	RAP	probePos	probe_presence	surprise_sound	surprise_img	probe_response	probe_resp_time	first_fixation_time	trial_start_time	surprise_start_time	probe_start_time	trial_end_time	trial_duration	actualEventTimes	plannedEventTimes	date	framerate	marker_vol	RAP_vol
11	1	FALSE	NV	a	['J', 'Y', 'Z', 'P', 'K', 'U', 'H', 'M', 'C', 'T', 'W', 'X', 'N', 'B', 'S', 'E']	[1029, 2670, 2911, 1456, 1122, 2059, 986, 1224, 829, 1888, 2448, 4000, 1335, 760, 1731, 904]	12	Present	NA	NA	PRESENT	0.230118989944458	2.86102294921875e-6	1.9931399822235107	3.0431488036509373	3.3931509493981493	6.103870153427124	4.110730171203613	[0.016146183013916016, 0.11626720428466797, 1.0871930122375488, 1.267707109451294, 2.018141984939575, 2.1351871490478516, 2.2519500255584717, 2.3687520027160645, 2.4854581356048584, 2.6020731925964355, 2.719043016433716, 2.835909128189087, 2.9525461196899414, 3.069385051727295, 3.186192035675049, 3.3029911518096924, 3.4198570251464844, 3.5364880561828613, 3.653386116027832, 3.770043134689331, 3.8869950771331787, 4.10387110710144]	[2.1457672119140625e-06, 0.11666881242721192, 1.0996688124272118, 1.2663688124272119, 2.0163688124272117, 2.1330354790872117, 2.2497021457472117, 2.3663688124072118, 2.483035479067212, 2.599702145727212, 2.716368812387212, 2.833035479047212, 2.949702145707212, 3.066368812367212, 3.183035479027212, 3.299702145687212, 3.416368812347212, 3.533035479007212, 3.649702145667212, 3.766368812327212, 3.883035478987212, 4.1163688123205455]	2021_Jan_27_1117	59.93438275203767	1	0.375
11	2	FALSE	NV	a	['U', 'R', 'G', 'E', 'S', 'H', 'M', 'T', 'X', 'B', 'W', 'P', 'Y', 'V', 'C', 'Z']	[2059, 1587, 944, 904, 1731, 986, 1224, 1888, 4000, 760, 2448, 1456, 2670, 2245, 829, 2911]	9	Present	NA	NA	PRESENT	0.15555906295776367	6.106480836868286	8.106663942337036	8.80667085643583	9.156673002183044	12.220237016677856	4.11357307434082	[6.12264609336853, 6.239331007003784, 7.2035582065582275, 7.390685081481934, 8.141525983810425, 8.24141812324524, 8.358222007751465, 8.474980115890503, 8.591745138168335, 8.708567142486572, 8.825348138809204, 8.942162990570068, 9.058947086334229, 9.175786018371582, 9.292548179626465, 9.40934419631958, 9.526167154312134, 9.642934083938599, 9.75986099243164, 9.876662015914917, 9.993401050567627, 10.220237016677856]	[6.1163688123205455, 6.233035478980545, 7.216035478980545, 7.382735478980544, 8.132735478980544, 8.249402145640545, 8.366068812300545, 8.482735478960546, 8.599402145620546, 8.716068812280547, 8.832735478940547, 8.949402145600548, 9.066068812260548, 9.182735478920549, 9.29940214558055, 9.41606881224055, 9.53273547890055, 9.64940214556055, 9.766068812220551, 9.882735478880551, 9.999402145540552, 10.232735478873884]	2021_Jan_27_1117	59.93438275203767	1	0.375
11	3	FALSE	NN	a	['Z', 'A', 'B', 'C', 'P', 'W', 'E', 'K', 'V', 'J', 'Y', 'T', 'M', 'S', 'H', 'G']	[2911, 697, 760, 829, 1456, 2448, 904, 1122, 2245, 1029, 2670, 1888, 1224, 1731, 986, 944]	13	Absent	NA	NA	ABSENT	0.33597612380981445	12.2131929397583	14.223305940628052	15.389980475041162	15.739982620788377	18.33660316467285	4.1132972240448	[12.229336023330688, 12.346055030822754, 13.319924116134644, 13.497004985809326, 14.247866153717041, 14.364865064620972, 14.481572151184082, 14.59836220741272, 14.715013980865479, 14.831854104995728, 14.94868016242981, 15.065483093261719, 15.18218207359314, 15.299100160598755, 15.415871143341064, 15.532571077346802, 15.64948320388794, 15.766126155853271, 15.883167028427124, 15.999817132949829, 16.116700172424316, 16.33660316467285]	[12.232735478873884, 12.349402145533885, 13.332402145533885, 13.499102145533886, 14.249102145533886, 14.365768812193886, 14.482435478853887, 14.599102145513887, 14.715768812173888, 14.832435478833888, 14.949102145493889, 15.06576881215389, 15.18243547881389, 15.29910214547389, 15.41576881213389, 15.532435478793891, 15.649102145453892, 15.765768812113892, 15.882435478773893, 15.999102145433893, 16.115768812093894, 16.349102145427228]	2021_Jan_27_1117	59.93438275203767	1	0.375
11	4	FALSE	VA	a	['K', 'V', 'E', 'G', 'B', 'J', 'surprise', 'P', 'S', 'X', 'U', 'H', 'C', 'M', 'R', 'Z']	[1122, 2245, 904, 944, 760, 1029, 'stimAuditory/all_stimAuditory/118.wav', 1456, 1731, 4000, 2059, 986, 829, 1224, 1587, 2911]	10	Present	NA	NA	PRESENT	0.2847108840942383	18.33607792854309	20.33938980102539	21.156063620202765	21.5060655275314	24.452970027923584	4.113580226898193	[18.352222204208374, 18.469025135040283, 19.436293125152588, 19.620403051376343, 20.371127128601074, 20.48804998397827, 20.604709148406982, 20.721352100372314, 20.838224172592163, 20.95497703552246, 21.071710109710693, 21.18857717514038, 21.305561065673828, 21.422307014465332, 21.53908610343933, 21.655933141708374, 21.772639989852905, 21.889520168304443, 22.006139039993286, 22.123361110687256, 22.23986005783081, 22.452970027923584]	[18.349102145427228, 18.465768812087227, 19.448768812087227, 19.615468812087226, 20.365468812087226, 20.482135478747225, 20.598802145407223, 20.715468812067222, 20.83213547872722, 20.94880214538722, 21.065468812047218, 21.182135478707217, 21.298802145367215, 21.415468812027214, 21.532135478687213, 21.64880214534721, 21.76546881200721, 21.88213547866721, 21.998802145327208, 22.115468811987206, 22.232135478647205, 22.46546881198054]	2021_Jan_27_1117	59.93438275203767	1	0.375
11	5	FALSE	NA	a	['M', 'N', 'U', 'H', 'R', 'V', 'J', 'X', 'T', 'K', 'W', 'B', 'C', 'P', 'E', 'A']	[1224, 1335, 2059, 986, 1587, 2245, 1029, 4000, 1888, 1122, 2448, 760, 829, 1456, 904, 697]	8	Present	NA	NA	PRESENT	0.09787511825561523	24.459496021270752	26.455575942993164	27.038917144106275	27.38891833617917	30.569337129592896	4.1137611865997314	[24.475651025772095, 24.575464010238647, 25.552662134170532, 25.72674298286438, 26.47751498222351, 26.59450912475586, 26.71103310585022, 26.82794499397278, 26.944655179977417, 27.06161403656006, 27.17832112312317, 27.295159101486206, 27.41189408302307, 27.528616189956665, 27.645512104034424, 27.76224112510681, 27.87911105155945, 27.995949029922485, 28.11268901824951, 28.229423999786377, 28.346264123916626, 28.569338083267212]	[24.46546881198054, 24.582135478640538, 25.56513547864054, 25.731835478640537, 26.481835478640537, 26.598502145300536, 26.715168811960535, 26.831835478620533, 26.948502145280532, 27.06516881194053, 27.18183547860053, 27.298502145260528, 27.415168811920527, 27.531835478580525, 27.648502145240524, 27.765168811900523, 27.88183547856052, 27.99850214522052, 28.11516881188052, 28.231835478540518, 28.348502145200516, 28.58183547853385]	2021_Jan_27_1117	59.93438275203767	1	0.375
11	6	FALSE	NA	a	['J', 'W', 'C', 'P', 'E', 'G', 'M', 'H', 'N', 'U', 'X', 'A', 'T', 'S', 'R', 'V']	[1029, 2448, 829, 1456, 904, 944, 1224, 986, 1335, 2059, 4000, 697, 1888, 1731, 1587, 2245]	11	Present	NA	NA	PRESENT	0.21431612968444824	30.56572389602661	32.5720489025116	33.50539034202328	33.85539224935192	36.68570518493652	4.113656282424927	[30.581868171691895, 30.698808193206787, 31.669028997421265, 31.849858045578003, 32.601142168045044, 32.717626094818115, 32.83434700965881, 32.95123314857483, 33.067912101745605, 33.18457102775574, 33.3015661239624, 33.41820001602173, 33.53501605987549, 33.65186619758606, 33.768742084503174, 33.885398149490356, 34.00227212905884, 34.11899018287659, 34.23593616485596, 34.352620124816895, 34.46953105926514, 34.68570613861084]	[30.58183547853385, 30.69850214519385, 31.68150214519385, 31.84820214519385, 32.59820214519385, 32.714868811853854, 32.83153547851386, 32.94820214517386, 33.06486881183386, 33.18153547849386, 33.298202145153866, 33.41486881181387, 33.53153547847387, 33.64820214513387, 33.764868811793875, 33.88153547845388, 33.99820214511388, 34.11486881177388, 34.231535478433884, 34.348202145093886, 34.46486881175389, 34.69820214508722]	2021_Jan_27_1117	59.93438275203767	1	0.375
11	7	FALSE	NA	a	['G', 'V', 'J', 'R', 'S', 'C', 'P', 'W', 'H', 'E', 'M', 'A', 'B', 'X', 'N', 'Y']	[944, 2245, 1029, 1587, 1731, 829, 1456, 2448, 986, 904, 1224, 697, 760, 4000, 1335, 2670]	14	Present	NA	NA	PRESENT	0.1718430519104004	36.68907594680786	38.688294887542725	39.97163513494152	40.321637280688734	42.80207109451294	4.113776206970215	[36.705219984054565, 36.82184314727783, 37.78539419174194, 37.973206996917725, 38.72414708137512, 38.82387399673462, 38.940736055374146, 39.05748915672302, 39.1742730140686, 39.29108810424805, 39.40790414810181, 39.52465510368347, 39.64143705368042, 39.7584171295166, 39.87511110305786, 39.99181509017944, 40.10878300666809, 40.22543215751648, 40.34242010116577, 40.459145069122314, 40.57597017288208, 40.80207014083862]	[36.69820214508722, 36.814868811747225, 37.79786881174722, 37.96456881174722, 38.71456881174722, 38.83123547840722, 38.947902145067225, 39.06456881172723, 39.18123547838723, 39.29790214504723, 39.414568811707234, 39.531235478367236, 39.64790214502724, 39.76456881168724, 39.88123547834724, 39.997902145007245, 40.11456881166725, 40.23123547832725, 40.34790214498725, 40.464568811647254, 40.581235478307256, 40.81456881164059]	2021_Jan_27_1117	59.93438275203767	1	0.375
11	8	FALSE	AV	a	['S', 'Z', 'H', 'N', 'R', 'Y', 'surprise', 'A', 'E', 'X', 'T', 'U', 'V', 'J', 'W', 'M']	[1731, 2911, 986, 1335, 1587, 2670, 'stimAuditory/all_stimAuditory/201.wav', 697, 904, 4000, 1888, 2059, 2245, 1029, 2448, 1224]	10	Present	stimAuditory/all_stimAuditory/118.wav	NA	PRESENT	0.08043098449707031	42.79574489593506	44.80485486984253	45.62152964269422	45.97153155002285	48.91843819618225	4.113583326339722	[42.81189012527466, 42.92844104766846, 43.90176010131836, 44.07952809333801, 44.83039402961731, 44.947057008743286, 45.06388306617737, 45.180652141571045, 45.297600984573364, 45.414451122283936, 45.53119516372681, 45.64792799949646, 45.76487612724304, 45.88145399093628, 45.99845314025879, 46.115286111831665, 46.23200798034668, 46.348666191101074, 46.465386152267456, 46.58235216140747, 46.699209213256836, 46.91844320297241]	[42.81456881164059, 42.93123547830059, 43.91423547830059, 44.08093547830059, 44.83093547830059, 44.94760214496059, 45.06426881162059, 45.180935478280595, 45.2976021449406, 45.4142688116006, 45.5309354782606, 45.647602144920604, 45.76426881158061, 45.88093547824061, 45.99760214490061, 46.11426881156061, 46.230935478220616, 46.34760214488062, 46.46426881154062, 46.58093547820062, 46.697602144860625, 46.93093547819396]	2021_Jan_27_1117	59.93438275203767	1	0.375
11	9	FALSE	NV	a	['B', 'T', 'S', 'C', 'E', 'W', 'G', 'V', 'H', 'M', 'R', 'P', 'K', 'X', 'Z', 'J']	[760, 1888, 1731, 829, 904, 2448, 944, 2245, 986, 1224, 1587, 1456, 1122, 4000, 2911, 1029]	14	Present	NA	NA	PRESENT	0.5809087753295898	48.918663024902344	50.92115592956543	52.20449617696423	52.55449832271144	55.03480410575867	4.113648176193237	[48.93480706214905, 49.051637172698975, 50.018139123916626, 50.20294713973999, 50.953644037246704, 51.07028102874756, 51.187106132507324, 51.30399012565613, 51.42078900337219, 51.53740119934082, 51.65438914299011, 51.77130103111267, 51.88774800300598, 52.00458216667175, 52.12187218666077, 52.23820209503174, 52.355085134506226, 52.47175312042236, 52.58883500099182, 52.70556306838989, 52.82234716415405, 53.03480410575867]	[48.93093547819396, 49.04760214485396, 50.03060214485396, 50.19730214485396, 50.94730214485396, 51.06396881151396, 51.18063547817396, 51.297302144833964, 51.413968811493966, 51.53063547815397, 51.64730214481397, 51.76396881147397, 51.880635478133975, 51.99730214479398, 52.11396881145398, 52.23063547811398, 52.347302144773984, 52.463968811433986, 52.58063547809399, 52.69730214475399, 52.81396881141399, 53.04730214474733]	2021_Jan_27_1117	59.93438275203767	1	0.375
11	10	FALSE	NV	a	['P', 'V', 'N', 'M', 'Z', 'J', 'R', 'H', 'A', 'K', 'E', 'G', 'W', 'X', 'T', 'Y']	[1456, 2245, 1335, 1224, 2911, 1029, 1587, 986, 697, 1122, 904, 944, 2448, 4000, 1888, 2670]	14	Present	NA	NA	PRESENT	0.3462691307067871	55.02495288848877	57.0375759601593	58.32091835332531	58.67092026065394	61.15117120742798	4.113595247268677	[55.041096210479736, 55.15812420845032, 56.13449311256409, 56.3091721534729, 57.0599570274353, 57.176897048950195, 57.29364514350891, 57.410542011260986, 57.527292013168335, 57.644132137298584, 57.76099610328674, 57.877684116363525, 57.99438405036926, 58.11121201515198, 58.22795820236206, 58.344675064086914, 58.46161103248596, 58.57846808433533, 58.695197105407715, 58.81189513206482, 58.92889904975891, 59.15117120742798]	[55.04730214474733, 55.16396881140733, 56.146968811407326, 56.313668811407325, 57.063668811407325, 57.18033547806733, 57.29700214472733, 57.41366881138733, 57.530335478047334, 57.647002144707336, 57.76366881136734, 57.88033547802734, 57.99700214468734, 58.113668811347345, 58.23033547800735, 58.34700214466735, 58.46366881132735, 58.580335477987354, 58.69700214464736, 58.81366881130736, 58.93033547796736, 59.163668811300695]	2021_Jan_27_1117	59.93438275203767	1	0.375
11	11	FALSE	NV	a	['G', 'P', 'K', 'S', 'R', 'B', 'V', 'Y', 'H', 'T', 'W', 'X', 'U', 'A', 'M', 'E']	[944, 1456, 1122, 1731, 1587, 760, 2245, 2670, 986, 1888, 2448, 4000, 2059, 697, 1224, 904]	12	Present	NA	NA	PRESENT	0.4548251628875733	61.14822793006897	63.153777837753296	64.20378499025067	64.5537868975793	67.2675371170044	4.113759279251099	[61.16437315940857, 61.28127408027649, 62.2508602142334, 62.43287420272827, 63.183178186416626, 63.30006504058838, 63.41702198982239, 63.53351712226868, 63.65045619010925, 63.76708006858826, 63.88399910926819, 64.00069403648376, 64.11764407157898, 64.23446607589722, 64.35129618644714, 64.46794009208679, 64.58491611480713, 64.70157313346863, 64.81828713417053, 64.93521904945374, 65.05196619033813, 65.2675371170044]	[61.163668811300695, 61.2803354779607, 62.263335477960695, 62.43003547796069, 63.18003547796069, 63.296702144620696, 63.4133688112807, 63.5300354779407, 63.6467021446007, 63.763368811260705, 63.88003547792071, 63.99670214458071, 64.1133688112407, 64.2300354779007, 64.3467021445607, 64.46336881122069, 64.58003547788068, 64.69670214454068, 64.81336881120068, 64.93003547786067, 65.04670214452067, 65.280035477854]	2021_Jan_27_1117	59.93438275203767	1	0.375
11	12	FALSE	NV	a	['T', 'V', 'N', 'G', 'P', 'H', 'U', 'Z', 'J', 'Y', 'R', 'C', 'B', 'X', 'S', 'W']	[1888, 2245, 1335, 944, 1456, 986, 2059, 2911, 1029, 2670, 1587, 829, 760, 4000, 1731, 2448]	14	Present	NA	NA	PRESENT	0.2118558883666992	67.2715048789978	69.27025198936462	70.55359319043774	70.90359533618495	73.38390398025513	4.113651990890503	[67.28764820098877, 67.40436506271362, 68.36722898483276, 68.53881502151489, 69.30645799636841, 69.40637397766113, 69.52326202392578, 69.63989019393921, 69.75679802894592, 69.87353801727295, 69.99047017097473, 70.10712718963623, 70.22402501106262, 70.3409161567688, 70.45768904685974, 70.57435607910156, 70.69124412536621, 70.8079571723938, 70.92481708526611, 71.04151916503906, 71.15845799446106, 71.38390398025513]	[67.280035477854, 67.396702144514, 68.379702144514, 68.546402144514, 69.296402144514, 69.413068811174, 69.529735477834, 69.64640214449399, 69.76306881115399, 69.87973547781398, 69.99640214447398, 70.11306881113397, 70.22973547779397, 70.34640214445396, 70.46306881111396, 70.57973547777395, 70.69640214443395, 70.81306881109394, 70.92973547775394, 71.04640214441393, 71.16306881107393, 71.39640214440726]	2021_Jan_27_1117	59.93438275203767	1	0.375
11	13	FALSE	NA	a	['U', 'T', 'J', 'C', 'V', 'Z', 'H', 'B', 'A', 'R', 'K', 'X', 'W', 'Y', 'M', 'P']	[2059, 1888, 1029, 829, 2245, 2911, 986, 760, 697, 1587, 1122, 4000, 2448, 2670, 1224, 1456]	12	Present	NA	NA	PRESENT	0.28067994117736816	73.3782548904419	75.38652682304382	76.43653492921551	76.78653683654414	79.50027012825012	4.113743305206299	[73.39439916610718, 73.51081204414368, 74.48359107971191, 74.66210603713989, 75.41279411315918, 75.52968120574951, 75.6466121673584, 75.76321411132812, 75.88014006614685, 75.99697613716125, 76.11379814147949, 76.23031806945801, 76.34735012054443, 76.46399307250977, 76.58087611198425, 76.69760608673096, 76.81451106071472, 76.93115520477295, 77.04811716079712, 77.16485714912415, 77.28139209747314, 77.50027012825012]	[73.39640214440726, 73.51306881106726, 74.49606881106726, 74.66276881106727, 75.41276881106727, 75.52943547772726, 75.64610214438726, 75.76276881104725, 75.87943547770725, 75.99610214436724, 76.11276881102724, 76.22943547768723, 76.34610214434723, 76.46276881100722, 76.57943547766722, 76.69610214432721, 76.81276881098721, 76.9294354776472, 77.0461021443072, 77.1627688109672, 77.27943547762719, 77.51276881096052]	2021_Jan_27_1117	59.93438275203767	1	0.375
11	14	FALSE	NV	a	['J', 'S', 'Y', 'A', 'N', 'H', 'W', 'X', 'K', 'B', 'P', 'V', 'M', 'R', 'C', 'U']	[1029, 1731, 2670, 697, 1335, 986, 2448, 4000, 1122, 760, 1456, 2245, 1224, 1587, 829, 2059]	8	Present	NA	NA	PRESENT	0.1981067657470703	79.50103688240051	81.50296592712402	82.08630736665572	82.43630927398435	85.61663699150085	4.113671064376831	[79.51718020439148, 79.63419508934021, 80.59996008872986, 80.78535008430481, 81.53599905967712, 81.65296816825867, 81.76970314979553, 81.88644409179688, 82.00312399864197, 82.12000608444214, 82.23691415786743, 82.35357618331909, 82.47039914131165, 82.58721113204956, 82.70396900177002, 82.82096600532532, 82.93748998641968, 83.05452418327332, 83.17134118080139, 83.28796601295471, 83.38793015480042, 83.61663699150085]	[79.51276881096052, 79.62943547762052, 80.61243547762052, 80.77913547762053, 81.52913547762053, 81.64580214428052, 81.76246881094052, 81.87913547760051, 81.99580214426051, 82.1124688109205, 82.2291354775805, 82.3458021442405, 82.46246881090049, 82.57913547756048, 82.69580214422048, 82.81246881088047, 82.92913547754047, 83.04580214420047, 83.16246881086046, 83.27913547752046, 83.39580214418045, 83.62913547751378]	2021_Jan_27_1117	59.93438275203767	1	0.375
11	15	FALSE	NN	a	['Y', 'K', 'E', 'R', 'T', 'A', 'S', 'G', 'V', 'Z', 'B', 'W', 'U', 'M', 'C', 'P']	[2670, 1122, 904, 1587, 1888, 697, 1731, 944, 2245, 2911, 760, 2448, 2059, 1224, 829, 1456]	8	Absent	NA	NA	ABSENT	0.6502900123596191	85.60749793052673	87.61937093734741	88.20271213846053	88.55271428420774	91.73300313949584	4.1136322021484375	[85.62364220619202, 85.74058604240417, 86.71633005142212, 86.89168214797974, 87.64252710342407, 87.75931715965271, 87.8761990070343, 87.9930419921875, 88.10986304283142, 88.22649312019348, 88.34328317642212, 88.46009612083435, 88.57683110237122, 88.69376516342163, 88.81056809425354, 88.92736411094666, 89.04411315917969, 89.16089510917664, 89.27773714065552, 89.39439010620117, 89.51114201545715, 89.73300313949585]	[85.62913547751378, 85.74580214417378, 86.72880214417378, 86.89550214417379, 87.64550214417379, 87.76216881083378, 87.87883547749378, 87.99550214415378, 88.11216881081377, 88.22883547747377, 88.34550214413376, 88.46216881079376, 88.57883547745375, 88.69550214411375, 88.81216881077374, 88.92883547743374, 89.04550214409373, 89.16216881075373, 89.27883547741372, 89.39550214407372, 89.51216881073371, 89.74550214406705]	2021_Jan_27_1117	59.93438275203767	1	0.375
11	16	FALSE	NN	a	['P', 'G', 'Z', 'W', 'R', 'S', 'V', 'C', 'Y', 'H', 'N', 'K', 'A', 'J', 'E', 'T']	[1456, 944, 2911, 2448, 1587, 1731, 2245, 829, 2670, 986, 1335, 1122, 697, 1029, 904, 1888]	14	Absent	NA	NA	PRESENT	0.38303303718566895	91.73073697090148	93.73582482337952	95.0191662628712	95.36916817019984	97.8493790626526	4.113554239273071	[91.7468810081482, 91.86364006996155, 92.83269214630127, 93.01506209373474, 93.76603317260742, 93.88239312171936, 93.9993040561676, 94.1160020828247, 94.23295497894287, 94.34975814819336, 94.46666216850281, 94.58328700065613, 94.70022201538086, 94.81692314147949, 94.93372702598572, 95.05052709579468, 95.16738605499268, 95.28401613235474, 95.40082001686096, 95.51748704910278, 95.63438606262207, 95.84937000274658]	[91.74550214406705, 91.86216881072704, 92.84516881072705, 93.01186881072705, 93.76186881072705, 93.87853547738705, 93.99520214404704, 94.11186881070704, 94.22853547736703, 94.34520214402703, 94.46186881068702, 94.57853547734702, 94.69520214400701, 94.81186881066701, 94.928535477327, 95.045202143987, 95.161868810647, 95.27853547730699, 95.39520214396698, 95.51186881062698, 95.62853547728697, 95.86186881062031]	2021_Jan_27_1117	59.93438275203767	1	0.375
11	17	FALSE	AA	a	['V', 'B', 'J', 'Y', 'M', 'R', 'T', 'surprise', 'E', 'S', 'X', 'H', 'Z', 'C', 'P', 'K']	[2245, 760, 1029, 2670, 1224, 1587, 1888, 'stimAuditory/all_stimAuditory/116.wav', 904, 1731, 4000, 986, 2911, 829, 1456, 1122]	11	Present	stimAuditory/all_stimAuditory/201.wav	NA	PRESENT	0.5084278583526611	97.85398697853088	99.85201096534728	100.7853521664404	101.13535431218762	103.9657380580902	4.11372709274292	[97.87013006210327, 97.98683714866638, 98.94906115531921, 99.12139701843262, 99.88881015777588, 99.98903703689575, 100.1058120727539, 100.22259211540222, 100.33927798271179, 100.45631098747253, 100.572918176651, 100.68965220451355, 100.80658411979675, 100.92325401306152, 101.04020500183105, 101.15682816505432, 101.27380013465881, 101.39036297798157, 101.50734806060791, 101.62412405014038, 101.74088716506958, 101.9657371044159]	[97.86186881062031, 97.9785354772803, 98.96153547728031, 99.12823547728031, 99.87823547728031, 99.99490214394031, 100.1115688106003, 100.2282354772603, 100.3449021439203, 100.46156881058029, 100.57823547724028, 100.69490214390028, 100.81156881056027, 100.92823547722027, 101.04490214388026, 101.16156881054026, 101.27823547720025, 101.39490214386025, 101.51156881052025, 101.62823547718024, 101.74490214384024, 101.97823547717357]	2021_Jan_27_1117	59.93438275203767	1	0.375
11	18	FALSE	NA	a	['B', 'W', 'N', 'S', 'H', 'Z', 'K', 'X', 'Y', 'E', 'T', 'C', 'M', 'R', 'A', 'U']	[760, 2448, 1335, 1731, 986, 2911, 1122, 4000, 2670, 904, 1888, 829, 1224, 1587, 697, 2059]	8	Present	NA	NA	PRESENT	0.3928320407867432	103.96082282066344	105.9684920310974	106.55183323221053	106.90183513953916	110.0821042060852	4.113612174987793	[103.97696709632874, 104.09347820281982, 105.06543016433716, 105.24471616744995, 105.99541711807251, 106.1123411655426, 106.22897219657898, 106.34595704078674, 106.46269798278809, 106.57931900024414, 106.69603514671326, 106.8128170967102, 106.92992806434631, 107.04656505584717, 107.16339421272278, 107.28011012077332, 107.39683604240417, 107.51394820213318, 107.63049817085266, 107.74714708328247, 107.86396217346191, 108.0821042060852]	[103.97823547717357, 104.09490214383356, 105.07790214383357, 105.24460214383357, 105.99460214383357, 106.11126881049357, 106.22793547715357, 106.34460214381356, 106.46126881047356, 106.57793547713355, 106.69460214379355, 106.81126881045354, 106.92793547711354, 107.04460214377353, 107.16126881043353, 107.27793547709352, 107.39460214375352, 107.51126881041351, 107.6279354770735, 107.7446021437335, 107.8612688103935, 108.09460214372683]	2021_Jan_27_1117	59.93438275203767	1	0.375
11	19	FALSE	NN	a	['N', 'A', 'S', 'U', 'M', 'J', 'R', 'H', 'C', 'W', 'G', 'P', 'E', 'B', 'V', 'Y']	[1335, 697, 1731, 2059, 1224, 1029, 1587, 986, 829, 2448, 944, 1456, 904, 760, 2245, 2670]	12	Absent	NA	NA	ABSENT	0.8702688217163086	110.08349990844728	112.08470582962036	113.13471393579204	113.48471584312068	116.19847106933594	4.113765239715576	[110.09964299201965, 110.21657609939575, 111.18179512023926, 111.36786603927612, 112.11844301223755, 112.23538208007812, 112.35224604606628, 112.46908402442932, 112.58563017845154, 112.70251297950745, 112.81922316551208, 112.93625402450562, 113.0531051158905, 113.17015504837036, 113.2696590423584, 113.38634014129639, 113.50323510169983, 113.62006521224976, 113.73686504364014, 113.85358810424805, 113.97039818763733, 114.19847106933594]	[110.09460214372683, 110.21126881038683, 111.19426881038683, 111.36096881038684, 112.11096881038684, 112.22763547704683, 112.34430214370683, 112.46096881036682, 112.57763547702682, 112.69430214368681, 112.81096881034681, 112.9276354770068, 113.0443021436668, 113.16096881032679, 113.27763547698679, 113.39430214364678, 113.51096881030678, 113.62763547696677, 113.74430214362677, 113.86096881028676, 113.97763547694676, 114.2109688102801]	2021_Jan_27_1117	59.93438275203767	1	0.375
11	20	FALSE	NN	a	['R', 'S', 'K', 'M', 'U', 'Y', 'Z', 'C', 'V', 'W', 'B', 'T', 'A', 'H', 'G', 'P']	[1587, 1731, 1122, 1224, 2059, 2670, 2911, 829, 2245, 2448, 760, 1888, 697, 986, 944, 1456]	8	Absent	NA	NA	ABSENT	0.7228069305419922	116.19000196456908	118.20117592811584	118.78451832132184	119.13452022865047	122.31483817100523	4.113662242889404	[116.20614719390869, 116.32316613197327, 117.29816102981567, 117.47416305541992, 118.22496819496155, 118.34192419052124, 118.45861506462097, 118.57551598548889, 118.69224810600281, 118.80893898010254, 118.92594313621521, 119.04250121116638, 119.15957307815552, 119.2763500213623, 119.39303612709045, 119.50960612297058, 119.62642407417297, 119.74345302581787, 119.86020517349243, 119.97689819335938, 120.09372401237488, 120.31483697891235]	[116.2109688102801, 116.32763547694009, 117.31063547694009, 117.4773354769401, 118.2273354769401, 118.3440021436001, 118.46066881026009, 118.57733547692008, 118.69400214358008, 118.81066881024007, 118.92733547690007, 119.04400214356006, 119.16066881022006, 119.27733547688005, 119.39400214354005, 119.51066881020004, 119.62733547686004, 119.74400214352004, 119.86066881018003, 119.97733547684003, 120.09400214350002, 120.32733547683335]	2021_Jan_27_1117	59.93438275203767	1	0.375
11	21	FALSE	VV	a	['S', 'E', 'C', 'P', 'surprise', 'H', 'T', 'X', 'V', 'Y', 'A', 'B', 'R', 'M', 'K', 'J']	[1731, 904, 829, 1456, 'stimAuditory/all_stimAuditory/109.wav', 986, 1888, 4000, 2245, 2670, 697, 760, 1587, 1224, 1122, 1029]	8	Present	NA	NA	PRESENT	0.5272800922393799	122.3133099079132	124.3175368309021	124.90087731675948	125.25087922408812	128.43120312690735	4.113666296005249	[122.32945418357849, 122.44610214233398, 123.4145290851593, 123.597815990448, 124.34829115867615, 124.46500301361084, 124.5818920135498, 124.69861698150635, 124.81549620628357, 124.93226099014282, 125.04907608032227, 125.16588711738586, 125.28240704536438, 125.39933109283447, 125.51624512672424, 125.63298606872559, 125.74978017807007, 125.86645007133484, 125.983323097229, 126.10015606880188, 126.21687006950378, 126.43120312690735]	[122.32733547683335, 122.44400214349335, 123.42700214349335, 123.59370214349336, 124.34370214349336, 124.46036881015335, 124.57703547681335, 124.69370214347335, 124.81036881013334, 124.92703547679334, 125.04370214345333, 125.16036881011333, 125.27703547677332, 125.39370214343332, 125.51036881009331, 125.6270354767533, 125.7437021434133, 125.8603688100733, 125.97703547673329, 126.09370214339329, 126.21036881005328, 126.44370214338662]	2021_Jan_27_1117	59.93438275203767	1	0.375
11	22	FALSE	NV	a	['T', 'E', 'N', 'A', 'C', 'K', 'B', 'R', 'X', 'J', 'Y', 'M', 'G', 'W', 'P', 'V']	[1888, 904, 1335, 697, 829, 1122, 760, 1587, 4000, 1029, 2670, 1224, 944, 2448, 1456, 2245]	9	Present	NA	NA	PRESENT	0.5884630680084229	128.43659281730652	130.43414402008057	131.13415188785368	131.4841540336009	134.54756999015808	4.113425970077515	[128.4527451992035, 128.55258011817932, 129.53089499473572, 129.70387506484985, 130.47139620780945, 130.57138514518738, 130.68825817108154, 130.80499505996704, 130.9219491481781, 131.03874707221985, 131.15560603141785, 131.27217316627502, 131.38914608955383, 131.50567412376404, 131.6226680278778, 131.73925304412842, 131.85619616508484, 131.97299909591675, 132.0898311138153, 132.20643615722656, 132.3235411643982, 132.54756999015808]	[128.44370214338662, 128.5603688100466, 129.54336881004662, 129.7100688100466, 130.4600688100466, 130.5767354767066, 130.6934021433666, 130.8100688100266, 130.9267354766866, 131.04340214334658, 131.16006881000658, 131.27673547666657, 131.39340214332657, 131.51006880998656, 131.62673547664656, 131.74340214330655, 131.86006880996655, 131.97673547662654, 132.09340214328654, 132.21006880994653, 132.32673547660653, 132.56006880993985]	2021_Jan_27_1117	59.93438275203767	1	0.375
11	23	FALSE	NV	a	['U', 'M', 'G', 'K', 'C', 'H', 'Z', 'P', 'X', 'S', 'A', 'W', 'E', 'V', 'T', 'Y']	[2059, 1224, 944, 1122, 829, 986, 2911, 1456, 4000, 1731, 697, 2448, 904, 2245, 1888, 2670]	9	Present	NA	NA	PRESENT	0.4730949401855469	134.5429549217224	136.5502359867096	137.2502438544827	137.60024600022993	140.6639380455017	4.113702058792114	[134.5590991973877, 134.67593002319336, 135.6472611427307, 135.82721209526062, 136.57788515090942, 136.6946611404419, 136.81157302856445, 136.92814898490906, 137.04505610466003, 137.16177320480347, 137.27851819992065, 137.39546513557434, 137.51237511634827, 137.62899017333984, 137.74587202072144, 137.8625771999359, 137.97930598258972, 138.09622621536255, 138.2128942012787, 138.32980799674988, 138.44649815559387, 138.6639380455017]	[134.56006880993985, 134.67673547659984, 135.65973547659985, 135.82643547659984, 136.57643547659984, 136.69310214325984, 136.80976880991983, 136.92643547657983, 137.04310214323982, 137.15976880989982, 137.2764354765598, 137.3931021432198, 137.5097688098798, 137.6264354765398, 137.7431021431998, 137.8597688098598, 137.97643547651978, 138.09310214317978, 138.20976880983977, 138.32643547649977, 138.44310214315976, 138.67643547649308]	2021_Jan_27_1117	59.93438275203767	1	0.375
11	24	FALSE	NN	a	['B', 'C', 'N', 'Y', 'S', 'A', 'T', 'V', 'J', 'G', 'U', 'Z', 'W', 'M', 'P', 'E']	[760, 829, 1335, 2670, 1731, 697, 1888, 2245, 1029, 944, 2059, 2911, 2448, 1224, 1456, 904]	12	Absent	NA	NA	ABSENT	0.4704790115356446	140.666100025177	142.66673302650452	143.71674089425764	144.06674280158626	146.78030514717102	4.113572120666504	[140.6822431087494, 140.79899406433105, 141.76362919807434, 141.95009517669678, 142.70120406150818, 142.81788301467896, 142.9345350265503, 143.05170607566833, 143.16851615905762, 143.28504419326782, 143.38497710227966, 143.5017740726471, 143.6185600757599, 143.73532009124756, 143.8521180152893, 143.96890020370483, 144.08572220802307, 144.20251297950745, 144.3193039894104, 144.4361071586609, 144.55290818214417, 144.7803041934967]	[140.67643547649308, 140.79310214315308, 141.77610214315308, 141.94280214315307, 142.69280214315307, 142.80946880981307, 142.92613547647306, 143.04280214313306, 143.15946880979305, 143.27613547645305, 143.39280214311304, 143.50946880977304, 143.62613547643303, 143.74280214309303, 143.85946880975303, 143.97613547641302, 144.09280214307302, 144.209468809733, 144.326135476393, 144.442802143053, 144.559468809713, 144.79280214304632]	2021_Jan_27_1117	59.93438275203767	1	0.375
11	25	FALSE	NA	a	['W', 'E', 'G', 'N', 'A', 'H', 'J', 'B', 'T', 'X', 'U', 'V', 'Y', 'Z', 'P', 'S']	[2448, 904, 944, 1335, 697, 986, 1029, 760, 1888, 4000, 2059, 2245, 2670, 2911, 1456, 1731]	10	Present	NA	NA	PRESENT	0.5630271434783936	146.77255582809448	148.78296184539795	149.59963661824963	149.94963852557828	152.89667010307312	4.113708257675171	[146.78870010375977, 146.90541911125183, 147.87999320030212, 148.05678820610046, 148.8075110912323, 148.9242401123047, 149.04124116897583, 149.15781998634338, 149.27484107017517, 149.39149498939514, 149.50835919380188, 149.6250832080841, 149.7419240474701, 149.85853600502014, 149.97535705566406, 150.09220099449158, 150.20887207984924, 150.32576513290405, 150.4426281452179, 150.5594310760498, 150.67623710632324, 150.89667010307312]	[146.79280214304632, 146.9094688097063, 147.89246880970632, 148.0591688097063, 148.8091688097063, 148.9258354763663, 149.0425021430263, 149.1591688096863, 149.2758354763463, 149.39250214300628, 149.50916880966628, 149.62583547632627, 149.74250214298627, 149.85916880964626, 149.97583547630626, 150.09250214296625, 150.20916880962625, 150.32583547628624, 150.44250214294624, 150.55916880960623, 150.67583547626623, 150.90916880959955]	2021_Jan_27_1117	59.93438275203767	1	0.375
11	26	FALSE	NA	a	['T', 'U', 'R', 'J', 'C', 'V', 'E', 'X', 'M', 'G', 'Y', 'B', 'W', 'N', 'K', 'Z']	[1888, 2059, 1587, 1029, 829, 2245, 904, 4000, 1224, 944, 2670, 760, 2448, 1335, 1122, 2911]	8	Present	NA	NA	PRESENT	0.38360595703125	152.89579701423645	154.8994369506836	155.4827781517967	155.8327802975439	159.01303815841675	4.113601207733154	[152.91194009780884, 153.028626203537, 153.99636101722717, 154.18025612831116, 154.9307141304016, 155.04740405082703, 155.1642301082611, 155.28106307983398, 155.39788103103638, 155.51461815834045, 155.63133907318115, 155.74832201004028, 155.86485719680786, 155.98186612129211, 156.09870219230652, 156.21549010276794, 156.33225512504578, 156.44904398918152, 156.5657820701599, 156.6824450492859, 156.7994921207428, 157.0130491256714]	[152.90916880959955, 153.02583547625954, 154.00883547625955, 154.17553547625954, 154.92553547625954, 155.04220214291954, 155.15886880957953, 155.27553547623953, 155.39220214289952, 155.50886880955952, 155.6255354762195, 155.7422021428795, 155.8588688095395, 155.9755354761995, 156.0922021428595, 156.2088688095195, 156.32553547617948, 156.44220214283948, 156.55886880949947, 156.67553547615947, 156.79220214281946, 157.02553547615278]	2021_Jan_27_1117	59.93438275203767	1	0.375
11	27	FALSE	NA	a	['K', 'C', 'A', 'R', 'G', 'T', 'V', 'B', 'Z', 'W', 'P', 'N', 'X', 'Y', 'S', 'E']	[1122, 829, 697, 1587, 944, 1888, 2245, 760, 2911, 2448, 1456, 1335, 4000, 2670, 1731, 904]	13	Present	NA	NA	PRESENT	0.5968530178070068	159.01900792121887	161.01572489738464	162.18239967021634	162.53240157754496	165.12940406799316	4.1136791706085205	[159.03515219688416, 159.13509917259216, 160.11272811889648, 160.28632807731628, 161.03707003593445, 161.15394401550293, 161.27083802223206, 161.3874831199646, 161.50443410873413, 161.6210720539093, 161.73802018165588, 161.8546462059021, 161.97152018547058, 162.08817315101624, 162.20525813102722, 162.32187819480896, 162.4387230873108, 162.55544018745422, 162.67236614227295, 162.7891139984131, 162.9059510231018, 163.12940502166748]	[159.02553547615278, 159.14220214281278, 160.12520214281278, 160.29190214281277, 161.04190214281277, 161.15856880947277, 161.27523547613276, 161.39190214279276, 161.50856880945275, 161.62523547611275, 161.74190214277274, 161.85856880943274, 161.97523547609273, 162.09190214275273, 162.20856880941272, 162.32523547607272, 162.44190214273272, 162.5585688093927, 162.6752354760527, 162.7919021427127, 162.9085688093727, 163.14190214270602]	2021_Jan_27_1117	59.93438275203767	1	0.375
11	28	FALSE	NA	a	['M', 'A', 'G', 'S', 'H', 'W', 'V', 'T', 'B', 'Z', 'X', 'R', 'P', 'C', 'E', 'J']	[1224, 697, 944, 1731, 986, 2448, 2245, 1888, 760, 2911, 4000, 1587, 1456, 829, 904, 1029]	11	Present	NA	NA	PRESENT	0.537391185760498	165.125590801239	167.13222789764404	168.06556814506283	168.41557029081005	171.24576997756958	4.113542079925537	[165.1417350769043, 165.2584080696106, 166.22909307479858, 166.40966701507568, 167.1603400707245, 167.2771201133728, 167.3940360546112, 167.5106611251831, 167.62757921218872, 167.74439120292664, 167.86122107505798, 167.97785806655884, 168.09482312202454, 168.21157908439636, 168.32830715179443, 168.44519114494324, 168.56181001663208, 168.67876815795898, 168.79553818702698, 168.91231107711792, 169.0289270877838, 169.24576997756958]	[165.14190214270602, 165.258568809366, 166.24156880936602, 166.408268809366, 167.158268809366, 167.274935476026, 167.391602142686, 167.508268809346, 167.624935476006, 167.74160214266598, 167.85826880932598, 167.97493547598597, 168.09160214264597, 168.20826880930596, 168.32493547596596, 168.44160214262595, 168.55826880928595, 168.67493547594594, 168.79160214260594, 168.90826880926593, 169.02493547592593, 169.25826880925925]	2021_Jan_27_1117	59.93438275203767	1	0.375
11	29	FALSE	NN	a	['B', 'J', 'K', 'G', 'R', 'Y', 'W', 'S', 'M', 'A', 'N', 'V', 'P', 'Z', 'E', 'T']	[760, 1029, 1122, 944, 1587, 2670, 2448, 1731, 1224, 697, 1335, 2245, 1456, 2911, 904, 1888]	12	Absent	NA	NA	ABSENT	0.4945220947265625	171.248694896698	173.24843883514404	174.29844694131577	174.64844884864436	177.3621380329132	4.113699197769165	[171.26483798027039, 171.38151502609253, 172.3454611301422, 172.53258514404297, 173.28363299369812, 173.38354301452637, 173.50030899047852, 173.61711502075195, 173.73399114608765, 173.85064911842346, 173.96743416786194, 174.08419513702393, 174.20101499557495, 174.3178300857544, 174.4345841407776, 174.55155205726624, 174.66820907592773, 174.78508114814758, 174.9017951488495, 175.01865816116333, 175.13587713241577, 175.36213612556458]	[171.25826880925925, 171.37493547591924, 172.35793547591925, 172.52463547591924, 173.27463547591924, 173.39130214257924, 173.50796880923923, 173.62463547589923, 173.74130214255922, 173.85796880921922, 173.9746354758792, 174.0913021425392, 174.2079688091992, 174.3246354758592, 174.4413021425192, 174.5579688091792, 174.67463547583918, 174.79130214249918, 174.90796880915917, 175.02463547581917, 175.14130214247916, 175.37463547581248]	2021_Jan_27_1117	59.93438275203767	1	0.375
11	30	FALSE	VA	a	['R', 'P', 'B', 'Y', 'surprise', 'W', 'M', 'X', 'H', 'Z', 'C', 'A', 'J', 'N', 'K', 'G']	[1587, 1456, 760, 2670, 'stimAuditory/all_stimAuditory/101.wav', 2448, 1224, 4000, 986, 2911, 829, 697, 1029, 1335, 1122, 944]	8	Present	NA	NA	PRESENT	0.4751911163330078	177.355082988739	179.36488699913025	179.94822724656905	180.2982291538977	183.47850513458252	4.1136181354522705	[177.37122702598572, 177.48807621002197, 178.4618260860443, 178.63931703567505, 179.38995909690857, 179.50678515434265, 179.62355613708496, 179.74037218093872, 179.8573009967804, 179.97390604019165, 180.0908191204071, 180.2074990272522, 180.3244171142578, 180.44109106063843, 180.5578100681305, 180.67478108406067, 180.79140615463257, 180.90835309028625, 181.02518820762634, 181.14195919036865, 181.25863909721375, 181.4785041809082]	[177.37463547581248, 177.49130214247248, 178.47430214247248, 178.64100214247247, 179.39100214247247, 179.50766880913247, 179.62433547579246, 179.74100214245246, 179.85766880911245, 179.97433547577245, 180.09100214243244, 180.20766880909244, 180.32433547575243, 180.44100214241243, 180.55766880907242, 180.67433547573242, 180.79100214239241, 180.9076688090524, 181.0243354757124, 181.1410021423724, 181.2576688090324, 181.49100214236572]	2021_Jan_27_1117	59.93438275203767	1	0.375
11	31	FALSE	NA	a	['N', 'J', 'R', 'G', 'Z', 'P', 'U', 'S', 'E', 'X', 'A', 'T', 'Y', 'C', 'M', 'B']	[1335, 1029, 1587, 944, 2911, 1456, 2059, 1731, 904, 4000, 697, 1888, 2670, 829, 1224, 760]	10	Present	NA	NA	PRESENT	0.5919079780578613	183.4782328605652	185.48112893104553	186.29780251180432	186.64780561122583	189.59487009048465	4.113741159439087	[183.49437618255615, 183.61130619049072, 184.57819509506226, 184.76244616508484, 185.51358103752136, 185.6301610469818, 185.74696803092957, 185.86359906196594, 185.98037815093994, 186.09720015525818, 186.21400904655457, 186.33079409599304, 186.4473991394043, 186.56441116333008, 186.68122100830078, 186.7979609966278, 186.91456604003906, 187.03137111663818, 187.14824199676514, 187.2651550769806, 187.3820080757141, 187.59487009048462]	[183.49100214236572, 183.6076688090257, 184.59066880902571, 184.7573688090257, 185.5073688090257, 185.6240354756857, 185.7407021423457, 185.8573688090057, 185.9740354756657, 186.09070214232568, 186.20736880898568, 186.32403547564567, 186.44070214230567, 186.55736880896566, 186.67403547562566, 186.79070214228565, 186.90736880894565, 187.02403547560564, 187.14070214226564, 187.25736880892563, 187.37403547558563, 187.60736880891895]	2021_Jan_27_1117	59.93438275203767	1	0.375
11	32	FALSE	NN	a	['T', 'W', 'P', 'H', 'N', 'R', 'Z', 'Y', 'S', 'J', 'A', 'U', 'E', 'V', 'C', 'K']	[1888, 2448, 1456, 986, 1335, 1587, 2911, 2670, 1731, 1029, 697, 2059, 904, 2245, 829, 1122]	10	Absent	NA	NA	ABSENT	0.5889019966125488	189.58464288711548	191.5976619720459	192.414336506479	192.76433865222623	195.71123719215393	4.113575220108032	[189.60078620910645, 189.7176342010498, 190.69456100463867, 190.86892199516296, 191.61962604522705, 191.73639011383057, 191.85336208343506, 191.97008299827576, 192.08689498901367, 192.20349717140198, 192.32054209709167, 192.4371190071106, 192.55413007736206, 192.67082500457764, 192.78769516944885, 192.90444016456604, 193.0211160182953, 193.13794803619385, 193.25463914871216, 193.3716139793396, 193.48837113380432, 193.71123719215393]	[189.60736880891895, 189.72403547557894, 190.70703547557895, 190.87373547557894, 191.62373547557894, 191.74040214223893, 191.85706880889893, 191.97373547555893, 192.09040214221892, 192.20706880887892, 192.3237354755389, 192.4404021421989, 192.5570688088589, 192.6737354755189, 192.7904021421789, 192.9070688088389, 193.02373547549888, 193.14040214215888, 193.25706880881887, 193.37373547547887, 193.49040214213886, 193.72373547547218]	2021_Jan_27_1117	59.93438275203767	1	0.375
11	33	FALSE	NV	a	['M', 'R', 'A', 'P', 'U', 'Y', 'G', 'B', 'V', 'E', 'X', 'W', 'T', 'Z', 'J', 'K']	[1224, 1587, 697, 1456, 2059, 2670, 944, 760, 2245, 904, 4000, 2448, 1888, 2911, 1029, 1122]	11	Present	NA	NA	PRESENT	0.4014718532562256	195.70833086967468	197.7138719558716	198.64721315696468	198.9972143490376	201.82760500907895	4.1137330532073975	[195.72447419166565, 195.84094715118408, 196.81092715263367, 196.99207210540771, 197.74274802207947, 197.85974597930908, 197.9764120578766, 198.09329414367676, 198.20983409881592, 198.3269112110138, 198.44366002082825, 198.5602581501007, 198.6772711277008, 198.79406905174255, 198.91060709953308, 199.02750515937805, 199.1443431377411, 199.26103115081787, 199.37796020507812, 199.49480414390564, 199.61143016815186, 199.82760310173035]	[195.72373547547218, 195.84040214213218, 196.82340214213218, 196.99010214213217, 197.74010214213217, 197.85676880879217, 197.97343547545216, 198.09010214211216, 198.20676880877215, 198.32343547543215, 198.44010214209214, 198.55676880875214, 198.67343547541213, 198.79010214207213, 198.90676880873212, 199.02343547539212, 199.14010214205211, 199.2567688087121, 199.3734354753721, 199.4901021420321, 199.6067688086921, 199.84010214202542]	2021_Jan_27_1117	59.93438275203767	1	0.375
11	34	FALSE	NA	a	['H', 'Z', 'M', 'E', 'C', 'J', 'N', 'K', 'T', 'X', 'A', 'S', 'P', 'W', 'V', 'R']	[986, 2911, 1224, 904, 829, 1029, 1335, 1122, 1888, 4000, 697, 1731, 1456, 2448, 2245, 1587]	10	Present	NA	NA	PRESENT	0.39101195335388184	201.83101296424863	203.83049392700195	204.6471675077607	204.99716965350797	207.9439702033997	4.113476276397705	[201.84715509414673, 201.96406817436218, 202.9272961616516, 203.11530709266663, 203.8659942150116, 203.96601104736328, 204.08275604248047, 204.19952201843262, 204.31658601760864, 204.43313217163086, 204.5502200126648, 204.66669011116028, 204.78372406959534, 204.9003291130066, 205.01711702346802, 205.1342740058899, 205.25064420700073, 205.36755919456482, 205.48454403877258, 205.601172208786, 205.71806621551514, 205.94397020339966]	[201.84010214202542, 201.9567688086854, 202.93976880868541, 203.1064688086854, 203.8564688086854, 203.9731354753454, 204.0898021420054, 204.2064688086654, 204.3231354753254, 204.43980214198538, 204.55646880864538, 204.67313547530537, 204.78980214196537, 204.90646880862536, 205.02313547528536, 205.13980214194535, 205.25646880860535, 205.37313547526534, 205.48980214192534, 205.60646880858533, 205.72313547524533, 205.95646880857865]	2021_Jan_27_1117	59.93438275203767	1	0.375
11	35	FALSE	NN	a	['Y', 'H', 'P', 'N', 'B', 'T', 'G', 'V', 'M', 'Z', 'J', 'C', 'K', 'W', 'R', 'S']	[2670, 986, 1456, 1335, 760, 1888, 944, 2245, 1224, 2911, 1029, 829, 1122, 2448, 1587, 1731]	9	Absent	NA	NA	ABSENT	0.3953969478607178	207.93777203559875	209.9467170238495	210.6467258452969	210.99672799104417	214.0603370666504	4.113620042800903	[207.95391702651978, 208.0704221725464, 209.0436601638794, 209.2217411994934, 209.9724760055542, 210.08922410011292, 210.20619106292725, 210.3228371143341, 210.43965816497803, 210.55649709701538, 210.67332100868225, 210.79001712799072, 210.90669012069702, 211.0236780643463, 211.14031720161438, 211.25730419158936, 211.37395405769348, 211.4908411502838, 211.60753417015076, 211.72433614730835, 211.84110713005066, 212.0603380203247]	[207.95646880857865, 208.07313547523864, 209.05613547523865, 209.22283547523864, 209.97283547523864, 210.08950214189863, 210.20616880855863, 210.32283547521862, 210.43950214187862, 210.55616880853862, 210.6728354751986, 210.7895021418586, 210.9061688085186, 211.0228354751786, 211.1395021418386, 211.2561688084986, 211.37283547515858, 211.48950214181858, 211.60616880847857, 211.72283547513857, 211.83950214179856, 212.07283547513188]	2021_Jan_27_1117	59.93438275203767	1	0.375
11	36	FALSE	NA	a	['S', 'R', 'G', 'J', 'Z', 'Y', 'W', 'E', 'H', 'C', 'A', 'X', 'T', 'U', 'V', 'B']	[1731, 1587, 944, 1029, 2911, 2670, 2448, 904, 986, 829, 697, 4000, 1888, 2059, 2245, 760]	12	Present	NA	NA	PRESENT	0.192126989364624	214.06075382232663	216.06312584877017	217.11313395494184	217.4631358622705	220.1767041683197	4.1135783195495605	[214.07689714431763, 214.19361305236816, 215.16002798080444, 215.34517121315002, 216.09560799598694, 216.21233820915222, 216.32910418510437, 216.44608998298645, 216.56279706954956, 216.6797239780426, 216.79637813568115, 216.91314816474915, 217.0299050807953, 217.14693403244019, 217.26353406906128, 217.38048100471497, 217.497230052948, 217.61402106285095, 217.7308280467987, 217.84749603271484, 217.96450209617615, 218.17670607566833]	[214.07283547513188, 214.18950214179188, 215.17250214179188, 215.33920214179187, 216.08920214179187, 216.20586880845187, 216.32253547511186, 216.43920214177186, 216.55586880843185, 216.67253547509185, 216.78920214175184, 216.90586880841184, 217.02253547507183, 217.13920214173183, 217.25586880839182, 217.37253547505182, 217.48920214171181, 217.6058688083718, 217.7225354750318, 217.8392021416918, 217.9558688083518, 218.18920214168512]	2021_Jan_27_1117	59.93438275203767	1	0.375
11	37	FALSE	NV	a	['N', 'H', 'K', 'M', 'T', 'E', 'Z', 'U', 'G', 'Y', 'V', 'X', 'W', 'C', 'R', 'J']	[1335, 986, 1122, 1224, 1888, 904, 2911, 2059, 944, 2670, 2245, 4000, 2448, 829, 1587, 1029]	12	Present	NA	NA	PRESENT	0.23727798461914065	220.1672909259796	222.17941403388977	223.2294219016429	223.5794238089715	226.29307103157043	4.113656997680664	[220.1834352016449, 220.2999610900879, 221.27639508247375, 221.45143604278564, 222.20220708847046, 222.31898403167725, 222.4358069896698, 222.55244302749634, 222.6692521572113, 222.7860450744629, 222.90301299095154, 223.01967000961304, 223.13657212257385, 223.25318908691406, 223.370019197464, 223.48684906959534, 223.60362315177917, 223.7205150127411, 223.8374960422516, 223.95410799980164, 224.07074403762817, 224.29307007789612]	[220.18920214168512, 220.3058688083451, 221.28886880834511, 221.4555688083451, 222.2055688083451, 222.3222354750051, 222.4389021416651, 222.5555688083251, 222.6722354749851, 222.78890214164508, 222.90556880830508, 223.02223547496507, 223.13890214162507, 223.25556880828506, 223.37223547494506, 223.48890214160505, 223.60556880826505, 223.72223547492504, 223.83890214158504, 223.95556880824503, 224.07223547490503, 224.30556880823835]	2021_Jan_27_1117	59.93438275203767	1	0.375
11	38	FALSE	NA	a	['G', 'B', 'R', 'U', 'E', 'N', 'C', 'M', 'W', 'Y', 'X', 'A', 'K', 'H', 'Z', 'V']	[944, 760, 1587, 2059, 904, 1335, 829, 1224, 2448, 2670, 4000, 697, 1122, 986, 2911, 2245]	11	Present	NA	NA	PRESENT	0.3298029899597168	226.29074096679688	228.29581880569455	229.22916024520623	229.5791621525349	232.40943717956543	4.11361837387085	[226.30688405036926, 226.42324709892273, 227.39276099205017, 227.57458305358887, 228.3252511024475, 228.44221806526184, 228.55874705314636, 228.67579197883606, 228.79244017601013, 228.9093370437622, 229.02599120140076, 229.14309000968933, 229.2595500946045, 229.37656617164612, 229.49317717552185, 229.61015510559082, 229.72681713104248, 229.84364914894104, 229.96037817001343, 230.07731819152832, 230.19409608840942, 230.40943813323975]	[226.30556880823835, 226.42223547489834, 227.40523547489835, 227.57193547489834, 228.32193547489834, 228.43860214155833, 228.55526880821833, 228.67193547487832, 228.78860214153832, 228.90526880819831, 229.0219354748583, 229.1386021415183, 229.2552688081783, 229.3719354748383, 229.4886021414983, 229.60526880815829, 229.72193547481828, 229.83860214147828, 229.95526880813827, 230.07193547479827, 230.18860214145826, 230.42193547479158]	2021_Jan_27_1117	59.93438275203767	1	0.375
11	39	FALSE	VV	a	['K', 'E', 'R', 'J', 'surprise', 'M', 'A', 'X', 'W', 'H', 'N', 'T', 'P', 'G', 'S', 'Z']	[1122, 904, 1587, 1029, 'stimAuditory/all_stimAuditory/220.wav', 1224, 697, 4000, 2448, 986, 1335, 1888, 1456, 944, 1731, 2911]	8	Present	NA	NA	PRESENT	0.4232518672943115	232.41349291801453	234.41209387779236	234.99543531732405	235.34543722465267	238.52580499649048	4.11371111869812	[232.4296371936798, 232.54649901390076, 233.50913000106812, 233.68092703819275, 234.44844102859497, 234.5484800338745, 234.66543912887573, 234.78209710121155, 234.8990352153778, 235.01563811302185, 235.13261103630066, 235.24926018714905, 235.36617302894592, 235.48292303085327, 235.59960508346558, 235.71655011177063, 235.83320903778076, 235.9501190185547, 236.06681203842163, 236.1840841770172, 236.30055499076843, 236.52580618858337]	[232.42193547479158, 232.53860214145158, 233.52160214145158, 233.68830214145157, 234.43830214145157, 234.55496880811157, 234.67163547477156, 234.78830214143156, 234.90496880809155, 235.02163547475155, 235.13830214141154, 235.25496880807154, 235.37163547473153, 235.48830214139153, 235.60496880805152, 235.72163547471152, 235.8383021413715, 235.9549688080315, 236.0716354746915, 236.1883021413515, 236.3049688080115, 236.53830214134481]	2021_Jan_27_1117	59.93438275203767	1	0.375
11	40	FALSE	NA	a	['T', 'C', 'P', 'U', 'V', 'A', 'E', 'J', 'G', 'S', 'W', 'X', 'K', 'Y', 'Z', 'H']	[1888, 829, 1456, 2059, 2245, 697, 904, 1029, 944, 1731, 2448, 4000, 1122, 2670, 2911, 986]	12	Present	NA	NA	PRESENT	0.507767915725708	238.52004480361936	240.5286610126495	241.57866792672831	241.92866983405696	244.64217114448547	4.1135101318359375	[238.53618907928467, 238.65305614471436, 239.6254961490631, 239.8042562007904, 240.5548141002655, 240.6717131137848, 240.78862619400024, 240.90537309646606, 241.02216911315918, 241.13894319534302, 241.25582814216614, 241.37262415885925, 241.48924207687378, 241.6062560081482, 241.72286415100098, 241.83976006507874, 241.95649003982544, 242.07340812683105, 242.1899971961975, 242.30689215660095, 242.42363905906677, 242.64217114448547]	[238.53830214134481, 238.6549688080048, 239.6379688080048, 239.8046688080048, 240.5546688080048, 240.6713354746648, 240.7880021413248, 240.9046688079848, 241.0213354746448, 241.13800214130478, 241.25466880796478, 241.37133547462477, 241.48800214128477, 241.60466880794476, 241.72133547460476, 241.83800214126475, 241.95466880792475, 242.07133547458474, 242.18800214124474, 242.30466880790473, 242.42133547456473, 242.65466880789805]	2021_Jan_27_1117	59.93438275203767	1	0.375
11	41	FALSE	NV	a	['M', 'J', 'P', 'W', 'S', 'N', 'K', 'R', 'X', 'B', 'Y', 'U', 'T', 'C', 'E', 'H']	[1224, 1029, 1456, 2448, 1731, 1335, 1122, 1587, 4000, 760, 2670, 2059, 1888, 829, 904, 986]	9	Present	NA	NA	PRESENT	0.50518798828125	244.64312887191772	246.64496183395383	247.34496994014555	247.6949718474742	250.7585380077362	4.113576173782349	[244.659273147583, 244.77616906166077, 245.74186205863953, 245.92751598358154, 246.67853617668152, 246.79502415657043, 246.9116940498352, 247.02881717681885, 247.14528012275696, 247.26218914985657, 247.3789930343628, 247.4957971572876, 247.61246609687805, 247.72928500175476, 247.84626007080078, 247.96294617652893, 248.0797290802002, 248.19642806053162, 248.29645204544067, 248.4133541584015, 248.53000116348267, 248.7585370540619]	[244.65466880789805, 244.77133547455804, 245.75433547455805, 245.92103547455804, 246.67103547455804, 246.78770214121803, 246.90436880787803, 247.02103547453802, 247.13770214119802, 247.25436880785801, 247.371035474518, 247.487702141178, 247.604368807838, 247.721035474498, 247.837702141158, 247.95436880781799, 248.07103547447798, 248.18770214113798, 248.30436880779797, 248.42103547445797, 248.53770214111796, 248.77103547445128]	2021_Jan_27_1117	59.93438275203767	1	0.375
11	42	FALSE	NA	a	['J', 'E', 'N', 'U', 'S', 'G', 'P', 'K', 'H', 'C', 'X', 'B', 'Y', 'V', 'W', 'A']	[1029, 904, 1335, 2059, 1731, 944, 1456, 1122, 986, 829, 4000, 760, 2670, 2245, 2448, 697]	11	Present	NA	NA	PRESENT	0.8134400844573975	250.7495470046997	252.7612748146057	253.6946162541174	254.04461816144604	256.8749041557312	4.113629341125488	[250.7656900882721, 250.88257217407227, 251.85822820663452, 252.0339159965515, 252.78462505340576, 252.90131521224976, 253.0181221961975, 253.1349630355835, 253.251629114151, 253.36855006217957, 253.48542404174805, 253.60225915908813, 253.71885919570923, 253.83585906028748, 253.95256400108337, 254.06946516036987, 254.1860921382904, 254.3030560016632, 254.41969203948975, 254.53662109375, 254.6532599925995, 254.8749041557312]	[250.77103547445128, 250.88770214111128, 251.87070214111128, 252.03740214111127, 252.78740214111127, 252.90406880777127, 253.02073547443126, 253.13740214109126, 253.25406880775125, 253.37073547441125, 253.48740214107124, 253.60406880773124, 253.72073547439123, 253.83740214105123, 253.95406880771122, 254.07073547437122, 254.1874021410312, 254.3040688076912, 254.4207354743512, 254.5374021410112, 254.6540688076712, 254.88740214100451]	2021_Jan_27_1117	59.93438275203767	1	0.375
11	43	FALSE	NA	a	['P', 'U', 'M', 'C', 'N', 'R', 'H', 'X', 'J', 'K', 'G', 'A', 'Z', 'V', 'S', 'W']	[1456, 2059, 1224, 829, 1335, 1587, 986, 4000, 1029, 1122, 944, 697, 2911, 2245, 1731, 2448]	8	Present	NA	NA	PRESENT	0.8500571250915527	256.87304401397705	258.87754797935486	259.46088822679366	259.8108903725409	262.9912700653076	4.113722085952759	[256.88918805122375, 257.0057020187378, 257.9745922088623, 258.15691018104553, 258.90775299072266, 259.0246729850769, 259.1415550708771, 259.258287191391, 259.37504506111145, 259.49185705184937, 259.60863399505615, 259.7252562046051, 259.8421289920807, 259.9588840007782, 260.07587599754333, 260.1924982070923, 260.30920910835266, 260.4262909889221, 260.54282307624817, 260.65972208976746, 260.7765350341797, 260.9912700653076]	[256.8874021410045, 257.0040688076645, 257.9870688076645, 258.1537688076645, 258.9037688076645, 259.02043547432453, 259.13710214098455, 259.2537688076446, 259.3704354743046, 259.4871021409646, 259.60376880762465, 259.72043547428467, 259.8371021409447, 259.9537688076047, 260.07043547426474, 260.18710214092476, 260.3037688075848, 260.4204354742448, 260.53710214090484, 260.65376880756486, 260.7704354742249, 261.00376880755823]	2021_Jan_27_1117	59.93438275203767	1	0.375
11	44	FALSE	NA	a	['B', 'U', 'W', 'C', 'J', 'Z', 'V', 'G', 'R', 'S', 'M', 'P', 'A', 'X', 'E', 'H']	[760, 2059, 2448, 829, 1029, 2911, 2245, 944, 1587, 1731, 1224, 1456, 697, 4000, 904, 986]	14	Present	NA	NA	PRESENT	0.5834510326385498	262.99612283706665	264.99422693252563	266.2775671799244	266.62756932567163	269.10763812065125	4.11341118812561	[263.01226711273193, 263.12911915779114, 264.09096097946167, 264.2634119987488, 265.0309581756592, 265.13103008270264, 265.24795603752136, 265.3646171092987, 265.48162317276, 265.5982060432434, 265.7149510383606, 265.83188700675964, 265.9485960006714, 266.06549620628357, 266.1824040412903, 266.29911398887634, 266.4159061908722, 266.53263807296753, 266.6493411064148, 266.7661130428314, 266.8828921318054, 267.10763716697693]	[263.00376880755823, 263.12043547421825, 264.10343547421826, 264.27013547421825, 265.02013547421825, 265.1368021408783, 265.2534688075383, 265.3701354741983, 265.48680214085834, 265.60346880751837, 265.7201354741784, 265.8368021408384, 265.95346880749844, 266.07013547415846, 266.1868021408185, 266.3034688074785, 266.42013547413853, 266.53680214079856, 266.6534688074586, 266.7701354741186, 266.8868021407786, 267.120135474112]	2021_Jan_27_1117	59.93438275203767	1	0.375
11	45	FALSE	AV	a	['S', 'V', 'P', 'U', 'G', 'B', 'surprise', 'C', 'W', 'X', 'T', 'M', 'H', 'Y', 'K', 'N']	[1731, 2245, 1456, 2059, 944, 760, 'stimAuditory/all_stimAuditory/103.wav', 829, 2448, 4000, 1888, 1224, 986, 2670, 1122, 1335]	10	Present	stimAuditory/all_stimAuditory/116.wav	NA	PRESENT	0.2759711742401123	269.10260796546936	271.11033296585083	271.9270065466096	272.27700869235684	275.22400403022766	4.113671064376831	[269.11875104904175, 269.2353341579437, 270.20732712745667, 270.3868579864502, 271.13734912872314, 271.2543351650238, 271.3711631298065, 271.48800110816956, 271.6047501564026, 271.72157621383667, 271.8382091522217, 271.9551510810852, 272.07179617881775, 272.1886920928955, 272.3054041862488, 272.4221441745758, 272.53891015052795, 272.65588307380676, 272.7725930213928, 272.88941502571106, 273.00620198249817, 273.22400403022766]	[269.120135474112, 269.236802140772, 270.219802140772, 270.386502140772, 271.136502140772, 271.253168807432, 271.36983547409204, 271.48650214075207, 271.6031688074121, 271.7198354740721, 271.83650214073214, 271.95316880739216, 272.0698354740522, 272.1865021407122, 272.30316880737223, 272.41983547403225, 272.5365021406923, 272.6531688073523, 272.7698354740123, 272.88650214067235, 273.0031688073324, 273.2365021406657]	2021_Jan_27_1117	59.93438275203767	1	0.375
11	46	FALSE	NA	a	['R', 'B', 'E', 'U', 'P', 'T', 'H', 'M', 'K', 'G', 'S', 'Z', 'X', 'V', 'N', 'J']	[1587, 760, 904, 2059, 1456, 1888, 986, 1224, 1122, 944, 1731, 2911, 4000, 2245, 1335, 1029]	13	Present	NA	NA	PRESENT	0.5453188419342041	275.225802898407	277.2268228530884	278.3934976259201	278.7434995332487	281.340371131897	4.113548278808594	[275.24194598197937, 275.3587110042572, 276.3236930370331, 276.5103840827942, 277.2607071399689, 277.3775691986084, 277.4942820072174, 277.61095905303955, 277.7279541492462, 277.84467220306396, 277.9612650871277, 278.07816219329834, 278.19500517845154, 278.2949411869049, 278.41176199913025, 278.5286650657654, 278.6454219818115, 278.76213908195496, 278.8788859844208, 278.99566411972046, 279.1124451160431, 279.34037017822266]	[275.2365021406657, 275.35316880732574, 276.33616880732575, 276.50286880732574, 277.25286880732574, 277.36953547398576, 277.4862021406458, 277.6028688073058, 277.71953547396583, 277.83620214062586, 277.9528688072859, 278.0695354739459, 278.18620214060593, 278.30286880726595, 278.419535473926, 278.536202140586, 278.652868807246, 278.76953547390605, 278.88620214056607, 279.0028688072261, 279.1195354738861, 279.35286880721947]	2021_Jan_27_1117	59.93438275203767	1	0.375
11	47	FALSE	NN	a	['G', 'W', 'N', 'Y', 'H', 'E', 'K', 'V', 'S', 'A', 'J', 'C', 'T', 'R', 'B', 'Z']	[944, 2448, 1335, 2670, 986, 904, 1122, 2245, 1731, 697, 1029, 829, 1888, 1587, 760, 2911]	9	Absent	NA	NA	ABSENT	0.8373978137969971	281.3322308063507	283.3431749343872	284.04318184848603	284.3931839942332	287.4567379951477	4.113563060760498	[281.3483741283417, 281.4650330543518, 282.4400601387024, 282.6163330078125, 283.36703300476074, 283.48396921157837, 283.6008491516113, 283.717581987381, 283.83428716659546, 283.9511761665344, 284.06775307655334, 284.18478417396545, 284.30159401893616, 284.4183712005615, 284.5349931716919, 284.6519169807434, 284.76864099502563, 284.88553500175476, 285.00218319892883, 285.1191689968109, 285.23579716682434, 285.4567379951477]	[281.35286880721947, 281.4695354738795, 282.4525354738795, 282.6192354738795, 283.3692354738795, 283.4859021405395, 283.60256880719953, 283.71923547385956, 283.8359021405196, 283.9525688071796, 284.0692354738396, 284.18590214049965, 284.3025688071597, 284.4192354738197, 284.5359021404797, 284.65256880713974, 284.76923547379977, 284.8859021404598, 285.0025688071198, 285.11923547377984, 285.23590214043986, 285.4692354737732]	2021_Jan_27_1117	59.93438275203767	1	0.375
11	48	FALSE	AA	a	['T', 'Z', 'M', 'C', 'N', 'surprise', 'Y', 'S', 'X', 'H', 'A', 'G', 'W', 'R', 'P', 'B']	[1888, 2911, 1224, 829, 1335, 'stimAuditory/all_stimAuditory/114.wav', 2670, 1731, 4000, 986, 697, 944, 2448, 1587, 1456, 760]	9	Present	stimAuditory/all_stimAuditory/109.wav	NA	PRESENT	0.0425269603729248	287.45535683631897	289.45959091186523	290.15959901805695	290.50960092538554	293.573105096817	4.113514184951782	[287.47150111198425, 287.5883321762085, 288.556428194046, 288.73950004577637, 289.4902741909027, 289.60719203948975, 289.72392320632935, 289.8407311439514, 289.95762610435486, 290.0743901729584, 290.19111800193787, 290.3078920841217, 290.42465019226074, 290.54137110710144, 290.6583561897278, 290.77490401268005, 290.8917851448059, 291.008584022522, 291.12533712387085, 291.2421190738678, 291.35900115966797, 291.5731041431427]	[287.4692354737732, 287.58590214043323, 288.56890214043324, 288.73560214043323, 289.48560214043323, 289.60226880709325, 289.7189354737533, 289.8356021404133, 289.9522688070733, 290.06893547373335, 290.18560214039337, 290.3022688070534, 290.4189354737134, 290.53560214037344, 290.65226880703347, 290.7689354736935, 290.8856021403535, 291.00226880701354, 291.11893547367356, 291.2356021403336, 291.3522688069936, 291.58560214032696]	2021_Jan_27_1117	59.93438275203767	1	0.375
11	49	FALSE	NV	a	['V', 'C', 'M', 'K', 'R', 'G', 'S', 'P', 'B', 'Z', 'X', 'J', 'A', 'Y', 'W', 'N']	[2245, 829, 1224, 1122, 1587, 944, 1731, 1456, 760, 2911, 4000, 1029, 697, 2670, 2448, 1335]	11	Present	NA	NA	PRESENT	0.06362605094909668	293.57840394973755	295.57585287094116	296.5091952641272	296.8591971714558	299.68947100639343	4.1136181354522705	[293.59454917907715, 293.69469714164734, 294.6727931499481, 294.84597611427307, 295.59662318229675, 295.71360206604004, 295.83025217056274, 295.9471871852875, 296.06401801109314, 296.18110513687134, 296.2973370552063, 296.4144010543823, 296.5311031341553, 296.64788818359375, 296.76485800743103, 296.8816330432892, 296.99816513061523, 297.11520504951477, 297.23177099227905, 297.3487482070923, 297.46543407440186, 297.6894700527191]	[293.58560214032696, 293.702268806987, 294.685268806987, 294.851968806987, 295.601968806987, 295.718635473647, 295.835302140307, 295.95196880696705, 296.06863547362707, 296.1853021402871, 296.3019688069471, 296.41863547360714, 296.53530214026716, 296.6519688069272, 296.7686354735872, 296.88530214024723, 297.00196880690726, 297.1186354735673, 297.2353021402273, 297.3519688068873, 297.46863547354735, 297.7019688068807]	2021_Jan_27_1117	59.93438275203767	1	0.375
11	50	FALSE	NN	a	['N', 'Y', 'S', 'G', 'C', 'R', 'W', 'Z', 'A', 'B', 'J', 'M', 'K', 'U', 'T', 'V']	[1335, 2670, 1731, 944, 829, 1587, 2448, 2911, 697, 760, 1029, 1224, 1122, 2059, 1888, 2245]	11	Absent	NA	NA	ABSENT	0.09215211868286131	299.68512082099915	301.6920258998871	302.6253673393988	302.9753692467274	305.80583810806274	4.113812208175659	[299.7012641429901, 299.8180282115936, 300.78916215896606, 300.96938920021057, 301.7200222015381, 301.8368761539459, 301.95354199409485, 302.07024908065796, 302.1871039867401, 302.30400109291077, 302.42075300216675, 302.53755402565, 302.65418314933777, 302.7709610462189, 302.88802099227905, 303.00453901290894, 303.12131214141846, 303.2382650375366, 303.3550980091095, 303.4717609882355, 303.58870816230774, 303.8058371543884]	[299.7019688068807, 299.8186354735407, 300.8016354735407, 300.9683354735407, 301.7183354735407, 301.83500214020074, 301.95166880686077, 302.0683354735208, 302.1850021401808, 302.30166880684084, 302.41833547350086, 302.5350021401609, 302.6516688068209, 302.76833547348093, 302.88500214014095, 303.001668806801, 303.118335473461, 303.235002140121, 303.35166880678105, 303.4683354734411, 303.5850021401011, 303.81833547343444]	2021_Jan_27_1117	59.93438275203767	1	0.375
11	51	FALSE	NV	a	['P', 'R', 'A', 'M', 'W', 'B', 'Z', 'T', 'N', 'E', 'H', 'K', 'G', 'X', 'J', 'S']	[1456, 1587, 697, 1224, 2448, 760, 2911, 1888, 1335, 904, 986, 1122, 944, 4000, 1029, 1731]	14	Present	NA	NA	PRESENT	0.10546493530273438	305.8081820011139	307.80848598480225	309.09182718587533	309.44182933162256	311.92220520973206	4.11371922492981	[305.8243269920349, 305.9411780834198, 306.90552616119385, 307.0926401615143, 307.84314012527466, 307.95999217033386, 308.07691502571106, 308.17669320106506, 308.29349517822266, 308.4103591442108, 308.5271520614624, 308.6439230442047, 308.76070618629456, 308.87743306159973, 308.9942841529846, 309.1109662055969, 309.227765083313, 309.3446559906006, 309.461394071579, 309.5781841278076, 309.6950271129608, 309.92220306396484]	[305.81833547343444, 305.93500214009447, 306.9180021400945, 307.08470214009446, 307.83470214009446, 307.9513688067545, 308.0680354734145, 308.18470214007453, 308.30136880673456, 308.4180354733946, 308.5347021400546, 308.65136880671463, 308.76803547337465, 308.8847021400347, 309.0013688066947, 309.1180354733547, 309.23470214001475, 309.35136880667477, 309.4680354733348, 309.5847021399948, 309.70136880665484, 309.9347021399882]	2021_Jan_27_1117	59.93438275203767	1	0.375
11	52	FALSE	NV	a	['T', 'Y', 'C', 'E', 'N', 'V', 'K', 'X', 'P', 'R', 'G', 'A', 'S', 'B', 'U', 'M']	[1888, 2670, 829, 904, 1335, 2245, 1122, 4000, 1456, 1587, 944, 697, 1731, 760, 2059, 1224]	8	Present	NA	NA	PRESENT	0.2300260066986084	311.91467785835266	313.9248058795929	314.5081463654503	314.8581482727789	318.03857016563416	4.11376428604126	[311.9308211803436, 312.04766511917114, 313.0218930244446, 313.1989321708679, 313.94951701164246, 314.0664610862732, 314.18330121040344, 314.2999839782715, 314.416766166687, 314.5335681438446, 314.6502981185913, 314.7672791481018, 314.88406801223755, 315.00091218948364, 315.1175801753998, 315.23422503471375, 315.35113620758057, 315.4683721065521, 315.5847351551056, 315.701562166214, 315.818284034729, 316.03857016563416]	[311.9347021399882, 312.0513688066482, 313.0343688066482, 313.2010688066482, 313.9510688066482, 314.06773547330823, 314.18440213996826, 314.3010688066283, 314.4177354732883, 314.5344021399483, 314.65106880660835, 314.7677354732684, 314.8844021399284, 315.0010688065884, 315.11773547324844, 315.23440213990847, 315.3510688065685, 315.4677354732285, 315.58440213988854, 315.70106880654856, 315.8177354732086, 316.05106880654193]	2021_Jan_27_1117	59.93438275203767	1	0.375
11	53	FALSE	NA	a	['A', 'B', 'E', 'N', 'M', 'Y', 'H', 'V', 'W', 'C', 'T', 'X', 'J', 'R', 'P', 'U']	[697, 760, 904, 1335, 1224, 2670, 986, 2245, 2448, 829, 1888, 4000, 1029, 1587, 1456, 2059]	12	Present	NA	NA	PRESENT	0.20257210731506348	318.0378098487854	320.04136300086975	321.09137086862285	321.4413730143701	324.1549370288849	4.113574028015137	[318.05395317077637, 318.1708769798279, 319.1382620334625, 319.3220829963684, 320.07272720336914, 320.18974113464355, 320.30635499954224, 320.4233441352844, 320.5398681163788, 320.65683698654175, 320.7735412120819, 320.89029717445374, 321.0073130130768, 321.1239550113678, 321.24081897735596, 321.35749912261963, 321.4743900299072, 321.59116101264954, 321.70781898498535, 321.82482504844666, 321.941468000412, 322.1549370288849]	[318.05106880654193, 318.16773547320196, 319.15073547320196, 319.31743547320195, 320.06743547320195, 320.184102139862, 320.300768806522, 320.417435473182, 320.53410213984205, 320.6507688065021, 320.7674354731621, 320.8841021398221, 321.00076880648214, 321.11743547314217, 321.2341021398022, 321.3507688064622, 321.46743547312224, 321.58410213978226, 321.7007688064423, 321.8174354731023, 321.93410213976233, 322.1674354730957]	2021_Jan_27_1117	59.93438275203767	1	0.375
11	54	FALSE	NA	a	['W', 'M', 'A', 'J', 'H', 'U', 'N', 'G', 'B', 'X', 'P', 'S', 'C', 'K', 'V', 'T']	[2448, 1224, 697, 1029, 986, 2059, 1335, 944, 760, 4000, 1456, 1731, 829, 1122, 2245, 1888]	10	Present	NA	NA	PRESENT	0.04795193672180176	324.14424681663513	326.15753984451294	326.9742136636903	327.32421557101895	330.2713041305542	4.11376428604126	[324.1603901386261, 324.2771520614624, 325.2546260356903, 325.428551197052, 326.17941308021545, 326.2960560321808, 326.412770986557, 326.52965211868286, 326.646418094635, 326.7633111476898, 326.88002014160156, 326.9969861507416, 327.11354398727417, 327.2306261062622, 327.34709906578064, 327.4638020992279, 327.5807960033417, 327.6975600719452, 327.81425499916077, 327.9310190677643, 328.0479030609131, 328.2713041305542]	[324.1674354730957, 324.2841021397557, 325.2671021397557, 325.4338021397557, 326.1838021397557, 326.3004688064157, 326.41713547307575, 326.53380213973577, 326.6504688063958, 326.7671354730558, 326.88380213971584, 327.00046880637586, 327.1171354730359, 327.2338021396959, 327.35046880635593, 327.46713547301596, 327.583802139676, 327.700468806336, 327.81713547299603, 327.93380213965605, 328.0504688063161, 328.2838021396494]	2021_Jan_27_1117	59.93438275203767	1	0.375
11	55	FALSE	VV	a	['B', 'E', 'V', 'W', 'J', 'Z', 'surprise', 'A', 'Y', 'X', 'T', 'U', 'P', 'S', 'N', 'C']	[760, 904, 2245, 2448, 1029, 2911, 'stimAuditory/all_stimAuditory/213.wav', 697, 2670, 4000, 1888, 2059, 1456, 1731, 1335, 829]	10	Present	NA	NA	PRESENT	0.10055804252624512	330.2675130367279	332.274032831192	333.0907076040437	333.44070951137235	336.38767099380493	4.113638162612915	[330.2836570739746, 330.40040707588196, 331.37099409103394, 331.55151200294495, 332.30239701271057, 332.41930317878723, 332.5359191894531, 332.6527211666107, 332.76977801322937, 332.88629508018494, 333.00327014923096, 333.12007117271423, 333.2368710041046, 333.3535451889038, 333.47044110298157, 333.58706498146057, 333.7040090560913, 333.8206181526184, 333.93760418891907, 334.05440616607666, 334.1711621284485, 334.38767099380493]	[330.2838021396494, 330.40046880630945, 331.38346880630945, 331.55016880630944, 332.30016880630944, 332.41683547296947, 332.5335021396295, 332.6501688062895, 332.76683547294954, 332.88350213960956, 333.0001688062696, 333.1168354729296, 333.23350213958963, 333.35016880624966, 333.4668354729097, 333.5835021395697, 333.7001688062297, 333.81683547288975, 333.9335021395498, 334.0501688062098, 334.1668354728698, 334.40016880620317]	2021_Jan_27_1117	59.93438275203767	1	0.375
11	56	FALSE	NA	a	['A', 'B', 'M', 'T', 'V', 'W', 'Z', 'E', 'X', 'K', 'G', 'P', 'S', 'C', 'R', 'Y']	[697, 760, 1224, 1888, 2245, 2448, 2911, 904, 4000, 1122, 944, 1456, 1731, 829, 1587, 2670]	9	Present	NA	NA	PRESENT	0.1618499755859375	336.3910229206085	338.3902359008789	339.0902440070706	339.4402459143992	342.50403809547424	4.113802194595337	[336.4071660041809, 336.52369713783264, 337.48736000061035, 337.6748859882355, 338.4258019924164, 338.5255870819092, 338.6424331665039, 338.759202003479, 338.8760290145874, 338.992830991745, 339.10959219932556, 339.226459980011, 339.34319400787354, 339.4599151611328, 339.5767090320587, 339.6935579776764, 339.81034302711487, 339.92721819877625, 340.0439381599426, 340.1608991622925, 340.2775421142578, 340.50403809547424]	[336.40016880620317, 336.5168354728632, 337.4998354728632, 337.6665354728632, 338.4165354728632, 338.5332021395232, 338.64986880618324, 338.76653547284326, 338.8832021395033, 338.9998688061633, 339.11653547282333, 339.23320213948335, 339.3498688061434, 339.4665354728034, 339.5832021394634, 339.69986880612345, 339.81653547278347, 339.9332021394435, 340.0498688061035, 340.16653547276354, 340.28320213942357, 340.5165354727569]	2021_Jan_27_1117	59.93438275203767	1	0.375
11	57	FALSE	NV	a	['E', 'B', 'R', 'U', 'W', 'H', 'J', 'G', 'A', 'T', 'X', 'C', 'N', 'S', 'Z', 'M']	[904, 760, 1587, 2059, 2448, 986, 1029, 944, 697, 1888, 4000, 829, 1335, 1731, 2911, 1224]	11	Present	NA	NA	PRESENT	0.0702822208404541	342.4970118999481	344.5067298412323	345.4400703270697	345.7900722343983	348.62040519714355	4.113675355911255	[342.5131549835205, 342.6301021575928, 343.603728055954, 343.78139901161194, 344.53192114830017, 344.6490261554718, 344.7656280994415, 344.8826081752777, 344.9991810321808, 345.1162621974945, 345.23292112350464, 345.3497350215912, 345.4670021533966, 345.5833041667938, 345.7000730037689, 345.81667613983154, 345.9336152076721, 346.05045318603516, 346.1674430370331, 346.2838430404663, 346.40081214904785, 346.62040519714355]	[342.5165354727569, 342.63320213941694, 343.61620213941694, 343.78290213941693, 344.53290213941693, 344.64956880607696, 344.766235472737, 344.882902139397, 344.999568806057, 345.11623547271705, 345.2329021393771, 345.3495688060371, 345.4662354726971, 345.58290213935715, 345.69956880601717, 345.8162354726772, 345.9329021393372, 346.04956880599724, 346.16623547265726, 346.2829021393173, 346.3995688059773, 346.63290213931066]	2021_Jan_27_1117	59.93438275203767	1	0.375
11	58	FALSE	VV	a	['C', 'Y', 'Z', 'W', 'P', 'U', 'S', 'T', 'surprise', 'A', 'K', 'X', 'B', 'V', 'G', 'J']	[829, 2670, 2911, 2448, 1456, 2059, 1731, 1888, 'stimAuditory/all_stimAuditory/107.wav', 697, 1122, 4000, 760, 2245, 944, 1029]	12	Present	NA	NA	PRESENT	0.09099912643432616	348.6203088760376	350.62298703193665	351.6729939460154	352.02299585334407	354.73677110671997	4.113784074783325	[348.6364531517029, 348.7533390522003, 349.7200930118561, 349.90482115745544, 350.65531301498413, 350.7720081806183, 350.88901805877686, 351.00563621520996, 351.12267112731934, 351.2392861843109, 351.3562910556793, 351.4727461338043, 351.5896520614624, 351.7064480781555, 351.8232641220093, 351.94002413749695, 352.05694913864136, 352.1735281944275, 352.29033398628235, 352.4071671962738, 352.52380299568176, 352.73677015304565]	[348.63290213931066, 348.7495688059707, 349.7325688059707, 349.8992688059707, 350.6492688059707, 350.7659354726307, 350.8826021392907, 350.99926880595075, 351.1159354726108, 351.2326021392708, 351.3492688059308, 351.46593547259084, 351.58260213925087, 351.6992688059109, 351.8159354725709, 351.93260213923094, 352.04926880589096, 352.165935472551, 352.282602139211, 352.39926880587103, 352.51593547253105, 352.7492688058644]	2021_Jan_27_1117	59.93438275203767	1	0.375
11	59	FALSE	NV	a	['A', 'E', 'M', 'P', 'V', 'J', 'B', 'S', 'C', 'T', 'G', 'U', 'Y', 'X', 'H', 'N']	[697, 904, 1224, 1456, 2245, 1029, 760, 1731, 829, 1888, 944, 2059, 2670, 4000, 986, 1335]	14	Present	NA	NA	PRESENT	0.2561049461364746	354.72671699523926	356.73955488204956	358.0228963215412	358.3728982288699	360.8531370162964	4.113582134246826	[354.74286007881165, 354.8597991466522, 355.836462020874, 356.01093316078186, 356.7620301246643, 356.8787360191345, 356.99532318115234, 357.11225509643555, 357.22895216941833, 357.34594106674194, 357.4624400138855, 357.57928705215454, 357.69601011276245, 357.81288409233093, 357.9296021461487, 358.0463020801544, 358.16319608688354, 358.2801811695099, 358.396861076355, 358.5135500431061, 358.63053703308105, 358.8531370162964]	[354.7492688058644, 354.8659354725244, 355.84893547252443, 356.0156354725244, 356.7656354725244, 356.88230213918445, 356.99896880584447, 357.1156354725045, 357.2323021391645, 357.34896880582454, 357.46563547248456, 357.5823021391446, 357.6989688058046, 357.81563547246463, 357.93230213912466, 358.0489688057847, 358.1656354724447, 358.28230213910473, 358.39896880576475, 358.5156354724248, 358.6323021390848, 358.86563547241815]	2021_Jan_27_1117	59.93438275203767	1	0.375
11	60	FALSE	NV	a	['P', 'V', 'R', 'M', 'Z', 'T', 'C', 'N', 'G', 'X', 'K', 'B', 'W', 'S', 'U', 'A']	[1456, 2245, 1587, 1224, 2911, 1888, 829, 1335, 944, 4000, 1122, 760, 2448, 1731, 2059, 697]	10	Present	NA	NA	PRESENT	0.20478510856628415	360.85000681877136	362.855819940567	363.672495667093	364.02249757442166	366.9695041179657	4.113684177398682	[360.86615109443665, 360.98305201530457, 361.9528250694275, 362.1340820789337, 362.8848340511322, 363.00180315971375, 363.1186351776123, 363.23532915115356, 363.35219407081604, 363.46883821487427, 363.5857310295105, 363.70241713523865, 363.8193039894104, 363.93614506721497, 364.0527880191803, 364.16957902908325, 364.28659105300903, 364.4031331539154, 364.5200991630554, 364.6369152069092, 364.7536129951477, 364.9695031642914]	[360.86563547241815, 360.9823021390782, 361.9653021390782, 362.13200213907817, 362.88200213907817, 362.9986688057382, 363.1153354723982, 363.23200213905824, 363.34866880571826, 363.4653354723783, 363.5820021390383, 363.69866880569833, 363.81533547235836, 363.9320021390184, 364.0486688056784, 364.1653354723384, 364.28200213899845, 364.3986688056585, 364.5153354723185, 364.6320021389785, 364.74866880563854, 364.9820021389719]	2021_Jan_27_1117	59.93438275203767	1	0.375
11	61	FALSE	NA	a	['B', 'H', 'S', 'U', 'P', 'C', 'Y', 'G', 'K', 'X', 'A', 'N', 'W', 'V', 'R', 'E']	[760, 986, 1731, 2059, 1456, 829, 2670, 944, 1122, 4000, 697, 1335, 2448, 2245, 1587, 904]	10	Present	NA	NA	PRESENT	0.13004803657531738	366.97351002693176	368.9721918106079	369.7888665834596	370.13886849078824	373.0858709812164	4.1136791706085205	[366.98965406417847, 367.1061351299286, 368.0691931247711, 368.24040699005127, 369.0082550048828, 369.10812401771545, 369.22491216659546, 369.34172320365906, 369.45853209495544, 369.5755181312561, 369.692045211792, 369.80898118019104, 369.9256660938263, 370.0424120426178, 370.15926909446716, 370.27616810798645, 370.39288115501404, 370.5096101760864, 370.6265161037445, 370.74317502975464, 370.8601121902466, 371.0858700275421]	[366.9820021389719, 367.0986688056319, 368.0816688056319, 368.2483688056319, 368.9983688056319, 369.11503547229194, 369.23170213895196, 369.348368805612, 369.465035472272, 369.58170213893203, 369.69836880559205, 369.8150354722521, 369.9317021389121, 370.0483688055721, 370.16503547223215, 370.2817021388922, 370.3983688055522, 370.5150354722122, 370.63170213887224, 370.74836880553227, 370.8650354721923, 371.09836880552564]	2021_Jan_27_1117	59.93438275203767	1	0.375
11	62	FALSE	NV	a	['T', 'J', 'E', 'B', 'R', 'K', 'S', 'P', 'X', 'C', 'Y', 'N', 'V', 'H', 'G', 'Z']	[1888, 1029, 904, 760, 1587, 1122, 1731, 1456, 4000, 829, 2670, 1335, 2245, 986, 944, 2911]	9	Present	NA	NA	PRESENT	0.24655914306640625	373.07968497276306	375.08851289749146	375.7885210036832	376.13852291101176	379.20223808288574	4.113725185394287	[373.09582805633545, 373.21277618408203, 374.18556213378906, 374.3637161254883, 375.1145820617676, 375.2314760684967, 375.34816312789917, 375.4651470184326, 375.58193707466125, 375.6986310482025, 375.81532406806946, 375.93220806121826, 376.0488591194153, 376.1659460067749, 376.28246998786926, 376.3993101119995, 376.51621317863464, 376.63291001319885, 376.7497441768646, 376.8663880825043, 376.9833571910858, 377.20223808288574]	[373.09836880552564, 373.21503547218566, 374.19803547218567, 374.36473547218566, 375.11473547218566, 375.2314021388457, 375.3480688055057, 375.4647354721657, 375.58140213882575, 375.6980688054858, 375.8147354721458, 375.9314021388058, 376.04806880546585, 376.16473547212587, 376.2814021387859, 376.3980688054459, 376.51473547210594, 376.63140213876596, 376.748068805426, 376.864735472086, 376.98140213874603, 377.2147354720794]	2021_Jan_27_1117	59.93438275203767	1	0.375
11	63	FALSE	AA	a	['T', 'Z', 'H', 'C', 'R', 'surprise', 'P', 'B', 'X', 'S', 'J', 'K', 'M', 'V', 'N', 'U']	[1888, 2911, 986, 829, 1587, 'stimAuditory/all_stimAuditory/217.wav', 1456, 760, 4000, 1731, 1029, 1122, 1224, 2245, 1335, 2059]	9	Present	stimAuditory/all_stimAuditory/101.wav	NA	PRESENT	0.2120201587677002	379.2027578353882	381.2049698829651	381.9049779891568	382.2549798964854	385.31860518455505	4.113635301589966	[379.21890211105347, 379.3356840610504, 380.30192613601685, 380.4870970249176, 381.2377471923828, 381.35470700263977, 381.47145414352417, 381.588091135025, 381.7050712108612, 381.82159519195557, 381.9385721683502, 382.05537009239197, 382.1720190048218, 382.28877902030945, 382.4057900905609, 382.52252221107483, 382.63914799690247, 382.756117105484, 382.8726980686188, 382.9897041320801, 383.106595993042, 383.31860399246216]	[379.2147354720794, 379.3314021387394, 380.3144021387394, 380.4811021387394, 381.2311021387394, 381.3477688053994, 381.46443547205945, 381.5811021387195, 381.6977688053795, 381.8144354720395, 381.93110213869954, 382.04776880535957, 382.1644354720196, 382.2811021386796, 382.39776880533964, 382.51443547199966, 382.6311021386597, 382.7477688053197, 382.86443547197973, 382.98110213863976, 383.0977688052998, 383.3311021386331]	2021_Jan_27_1117	59.93438275203767	1	0.375
11	64	FALSE	NV	a	['G', 'P', 'C', 'S', 'V', 'N', 'M', 'Z', 'K', 'R', 'B', 'J', 'T', 'X', 'Y', 'H']	[944, 1456, 829, 1731, 2245, 1335, 1224, 2911, 1122, 1587, 760, 1029, 1888, 4000, 2670, 986]	14	Present	NA	NA	PRESENT	0.3125460147857666	385.30922198295593	387.32118797302246	388.60452917409555	388.9545313198428	391.4349710941314	4.113783121109009	[385.3253650665283, 385.4422380924225, 386.41829204559326, 386.5936930179596, 387.3442211151123, 387.461088180542, 387.57782316207886, 387.6947441101074, 387.8113100528717, 387.9282350540161, 388.04490303993225, 388.1618330478668, 388.2785429954529, 388.3954041004181, 388.51215720176697, 388.62889099121094, 388.74585604667664, 388.86236119270325, 388.97951006889343, 389.0962359905243, 389.21309208869934, 389.43497014045715]	[385.3311021386331, 385.44776880529315, 386.43076880529316, 386.59746880529315, 387.34746880529315, 387.46413547195317, 387.5808021386132, 387.6974688052732, 387.81413547193324, 387.93080213859326, 388.0474688052533, 388.1641354719133, 388.28080213857334, 388.39746880523336, 388.5141354718934, 388.6308021385534, 388.74746880521343, 388.86413547187345, 388.9808021385335, 389.0974688051935, 389.2141354718535, 389.4474688051869]	2021_Jan_27_1117	59.93438275203767	1	0.375
11	65	FALSE	NN	a	['W', 'P', 'N', 'Z', 'E', 'U', 'J', 'Y', 'K', 'B', 'G', 'M', 'H', 'T', 'A', 'R']	[2448, 1456, 1335, 2911, 904, 2059, 1029, 2670, 1122, 760, 944, 1224, 986, 1888, 697, 1587]	14	Absent	NA	NA	ABSENT	0.4207448959350586	391.4324758052826	393.4377589225769	394.72110036206857	395.0711022693972	397.5513370037079	4.1135780811309814	[391.4486200809479, 391.5655632019043, 392.5346632003784, 392.71660113334656, 393.4674160480499, 393.58413004875183, 393.7010850906372, 393.81794118881226, 393.9345681667328, 394.0513000488281, 394.16828417778015, 394.28489208221436, 394.4018089771271, 394.51848220825195, 394.63565015792847, 394.75222516059875, 394.86900305747986, 394.98581314086914, 395.1026191711426, 395.2192530632019, 395.3361761569977, 395.5513381958008]	[391.4474688051869, 391.5641354718469, 392.5471354718469, 392.7138354718469, 393.4638354718469, 393.5805021385069, 393.69716880516694, 393.81383547182696, 393.930502138487, 394.047168805147, 394.16383547180703, 394.28050213846706, 394.3971688051271, 394.5138354717871, 394.6305021384471, 394.74716880510715, 394.8638354717672, 394.9805021384272, 395.0971688050872, 395.21383547174725, 395.33050213840727, 395.5638354717406]	2021_Jan_27_1117	59.93438275203767	1	0.375
11	66	FALSE	NA	a	['R', 'A', 'H', 'S', 'G', 'E', 'Z', 'B', 'N', 'W', 'P', 'Y', 'X', 'K', 'U', 'C']	[1587, 697, 986, 1731, 944, 904, 2911, 760, 1335, 2448, 1456, 2670, 4000, 1122, 2059, 829]	13	Present	NA	NA	PRESENT	0.22627711296081543	397.5561029911041	399.5540838241577	400.7207585969894	401.07076050431806	403.6677031517029	4.113619327545166	[397.57224702835083, 397.6887550354004, 398.6510272026062, 398.82305121421814, 399.59068298339844, 399.69076013565063, 399.807489156723, 399.92427921295166, 400.0409619808197, 400.15785908699036, 400.27456307411194, 400.3915259838104, 400.50810408592224, 400.6251540184021, 400.7417860031128, 400.8586971759796, 400.97551703453064, 401.0922541618347, 401.20904302597046, 401.3256630897522, 401.4426281452179, 401.6677041053772]	[397.5638354717406, 397.68050213840064, 398.66350213840064, 398.83020213840064, 399.58020213840064, 399.69686880506066, 399.8135354717207, 399.9302021383807, 400.04686880504073, 400.16353547170075, 400.2802021383608, 400.3968688050208, 400.5135354716808, 400.63020213834085, 400.7468688050009, 400.8635354716609, 400.9802021383209, 401.09686880498094, 401.21353547164097, 401.330202138301, 401.446868804961, 401.68020213829436]	2021_Jan_27_1117	59.93438275203767	1	0.375
11	67	FALSE	NV	a	['R', 'K', 'G', 'H', 'Y', 'E', 'A', 'C', 'Z', 'W', 'U', 'M', 'B', 'X', 'T', 'N']	[1587, 1122, 944, 986, 2670, 904, 697, 829, 2911, 2448, 2059, 1224, 760, 4000, 1888, 1335]	14	Present	NA	NA	PRESENT	0.15072894096374512	403.6621220111847	405.6704478263855	406.9537883122029	407.3037911732058	409.7840712070465	4.113623380661011	[403.6782660484314, 403.7951681613922, 404.7673921585083, 404.94616508483887, 405.6971070766449, 405.81385111808777, 405.9307692050934, 406.0474820137024, 406.1643171310425, 406.2810950279236, 406.39788007736206, 406.5146770477295, 406.63152408599854, 406.7480571269989, 406.86497020721436, 406.9817659854889, 407.0987141132355, 407.21558904647827, 407.3322420120239, 407.4489290714264, 407.56588101387024, 407.7840690612793]	[403.68020213829436, 403.7968688049544, 404.7798688049544, 404.9465688049544, 405.6965688049544, 405.8132354716144, 405.92990213827443, 406.04656880493445, 406.1632354715945, 406.2799021382545, 406.3965688049145, 406.51323547157455, 406.62990213823457, 406.7465688048946, 406.8632354715546, 406.97990213821464, 407.09656880487466, 407.2132354715347, 407.3299021381947, 407.44656880485473, 407.56323547151476, 407.7965688048481]	2021_Jan_27_1117	59.93438275203767	1	0.375
11	68	FALSE	NN	a	['N', 'U', 'B', 'Y', 'T', 'M', 'E', 'V', 'G', 'J', 'S', 'H', 'A', 'R', 'W', 'Z']	[1335, 2059, 760, 2670, 1888, 1224, 904, 2245, 944, 1029, 1731, 986, 697, 1587, 2448, 2911]	14	Absent	NA	NA	ABSENT	0.5721819400787354	409.7853989601135	411.78667998313904	413.0700211842121	413.42002332995935	415.9004371166229	4.113757133483887	[409.8015410900116, 409.91840505599976, 410.88376116752625, 411.0695831775665, 411.82045912742615, 411.9371280670166, 412.05388617515564, 412.17062997817993, 412.2874891757965, 412.4043550491333, 412.52106404304504, 412.637647151947, 412.7547080516815, 412.8713870048523, 412.98828315734863, 413.1049129962921, 413.20487117767334, 413.32170009613037, 413.4385139942169, 413.55533599853516, 413.6721200942993, 413.9004371166229]	[409.7965688048481, 409.91323547150813, 410.89623547150813, 411.0629354715081, 411.8129354715081, 411.92960213816815, 412.0462688048282, 412.1629354714882, 412.2796021381482, 412.39626880480824, 412.51293547146827, 412.6296021381283, 412.7462688047883, 412.86293547144834, 412.97960213810836, 413.0962688047684, 413.2129354714284, 413.32960213808843, 413.44626880474846, 413.5629354714085, 413.6796021380685, 413.91293547140185]	2021_Jan_27_1117	59.93438275203767	1	0.375
11	69	FALSE	NN	a	['K', 'R', 'U', 'V', 'J', 'P', 'A', 'Y', 'G', 'N', 'S', 'E', 'Z', 'H', 'M', 'B']	[1122, 1587, 2059, 2245, 1029, 1456, 697, 2670, 944, 1335, 1731, 904, 2911, 986, 1224, 760]	8	Absent	NA	NA	ABSENT	0.400543212890625	415.8917188644409	417.9031329154968	418.4864731629356	418.8364753086829	422.01680517196655	4.113672256469727	[415.9078631401062, 416.02474308013916, 417.00012707710266, 417.17634201049805, 417.926705121994, 418.04342818260193, 418.1603651046753, 418.2771511077881, 418.39386105537415, 418.51055908203125, 418.6275610923767, 418.74410915374756, 418.8611991405487, 418.97795510292053, 419.0947480201721, 419.21137714385986, 419.3283100128174, 419.44517612457275, 419.5619521141052, 419.6785640716553, 419.7955391407013, 420.01680612564087]	[415.91293547140185, 416.0296021380619, 417.0126021380619, 417.17930213806187, 417.92930213806187, 418.0459688047219, 418.1626354713819, 418.27930213804194, 418.39596880470197, 418.512635471362, 418.629302138022, 418.74596880468204, 418.86263547134206, 418.9793021380021, 419.0959688046621, 419.21263547132213, 419.32930213798215, 419.4459688046422, 419.5626354713022, 419.6793021379622, 419.79596880462225, 420.0293021379556]	2021_Jan_27_1117	59.93438275203767	1	0.375
11	70	FALSE	AV	a	['C', 'J', 'B', 'U', 'surprise', 'Z', 'W', 'X', 'K', 'H', 'E', 'V', 'Y', 'T', 'M', 'P']	[829, 1029, 760, 2059, 'stimAuditory/all_stimAuditory/212.wav', 2911, 2448, 4000, 1122, 986, 904, 2245, 2670, 1888, 1224, 1456]	8	Present	stimAuditory/all_stimAuditory/220.wav	NA	PRESENT	0.1331310272216797	422.0149018764496	424.0194129943848	424.6027532418235	424.9527551491522	428.13317108154297	4.113758087158203	[422.03104519844055, 422.1481170654297, 423.116494178772, 423.29915618896484, 424.04993510246277, 424.1667900085449, 424.2834520339966, 424.4002330303192, 424.51703000068665, 424.6338040828705, 424.7508339881897, 424.86731719970703, 424.9843680858612, 425.1009340286255, 425.217737197876, 425.334753036499, 425.4513351917267, 425.5682179927826, 425.6851511001587, 425.80183720588684, 425.9186661243439, 426.13317108154297]	[422.0293021379556, 422.1459688046156, 423.1289688046156, 423.2956688046156, 424.0456688046156, 424.16233547127564, 424.27900213793566, 424.3956688045957, 424.5123354712557, 424.62900213791573, 424.74566880457576, 424.8623354712358, 424.9790021378958, 425.0956688045558, 425.21233547121585, 425.3290021378759, 425.4456688045359, 425.5623354711959, 425.67900213785595, 425.79566880451597, 425.912335471176, 426.14566880450934]	2021_Jan_27_1117	59.93438275203767	1	0.375
11	71	FALSE	NV	a	['E', 'G', 'M', 'K', 'H', 'B', 'P', 'X', 'C', 'S', 'N', 'W', 'J', 'R', 'Z', 'Y']	[904, 944, 1224, 1122, 986, 760, 1456, 4000, 829, 1731, 1335, 2448, 1029, 1587, 2911, 2670]	8	Present	NA	NA	PRESENT	0.08244013786315918	428.1383969783783	430.1358759403229	430.719217141436	431.0692192871832	434.2495381832123	4.113662242889404	[428.154541015625, 428.2711751461029, 429.2328610420227, 429.4054980278015, 430.1731162071228, 430.2732319831848, 430.3898320198059, 430.50665616989136, 430.6235702037811, 430.7405300140381, 430.8571240901947, 430.97385001182556, 431.09066104888916, 431.2076270580292, 431.3243200778961, 431.4410471916199, 431.55789399147034, 431.67478799819946, 431.79159712791443, 431.90823221206665, 432.0251820087433, 432.2495381832123]	[428.14566880450934, 428.26233547116937, 429.24533547116937, 429.41203547116936, 430.16203547116936, 430.2787021378294, 430.3953688044894, 430.51203547114943, 430.62870213780946, 430.7453688044695, 430.8620354711295, 430.9787021377895, 431.09536880444955, 431.2120354711096, 431.3287021377696, 431.4453688044296, 431.56203547108964, 431.67870213774967, 431.7953688044097, 431.9120354710697, 432.02870213772974, 432.2620354710631]	2021_Jan_27_1117	59.93438275203767	1	0.375
11	72	FALSE	NV	a	['P', 'Y', 'A', 'H', 'J', 'T', 'M', 'X', 'E', 'G', 'V', 'K', 'C', 'N', 'U', 'B']	[1456, 2670, 697, 986, 1029, 1888, 1224, 4000, 904, 944, 2245, 1122, 829, 1335, 2059, 760]	8	Present	NA	NA	PRESENT	0.839310884475708	434.2447769641876	436.2522728443146	436.8356152375206	437.1856161911749	440.3659031391144	4.113630294799805	[434.2609210014343, 434.3776080608368, 435.3492259979248, 435.5288372039795, 436.27955508232117, 436.39625310897827, 436.51323914527893, 436.6298031806946, 436.74681401252747, 436.86339712142944, 436.9802830219269, 437.0972330570221, 437.2139790058136, 437.3305540084839, 437.44762420654297, 437.5642430782318, 437.68123507499695, 437.79795598983765, 437.9147870540619, 438.0314140319824, 438.1484889984131, 438.3659031391144]	[434.2620354710631, 434.3787021377231, 435.3617021377231, 435.5284021377231, 436.2784021377231, 436.39506880438313, 436.51173547104315, 436.6284021377032, 436.7450688043632, 436.8617354710232, 436.97840213768325, 437.09506880434327, 437.2117354710033, 437.3284021376633, 437.44506880432334, 437.56173547098336, 437.6784021376434, 437.7950688043034, 437.91173547096344, 438.02840213762346, 438.1450688042835, 438.37840213761683]	2021_Jan_27_1117	59.93438275203767	1	0.375
11	73	FALSE	NA	a	['J', 'E', 'B', 'Z', 'G', 'R', 'K', 'V', 'Y', 'U', 'X', 'A', 'S', 'P', 'C', 'T']	[1029, 904, 760, 2911, 944, 1587, 1122, 2245, 2670, 2059, 4000, 697, 1731, 1456, 829, 1888]	11	Present	NA	NA	PRESENT	0.22829699516296387	440.3678889274597	442.3685848712921	443.3019253571295	443.6519272644581	446.482271194458	4.1136863231658936	[440.3840320110321, 440.500773191452, 441.4655900001526, 441.6519351005554, 442.4027590751648, 442.51942801475525, 442.63636898994446, 442.7531180381775, 442.86984300613403, 442.9866831302643, 443.10342597961426, 443.2035000324249, 443.3202221393585, 443.43700909614563, 443.5538170337677, 443.67064809799194, 443.7874391078949, 443.90424609184265, 444.0210371017456, 444.13783717155457, 444.2546532154083, 444.4822700023651]	[440.37840213761683, 440.49506880427685, 441.47806880427686, 441.64476880427685, 442.39476880427685, 442.5114354709369, 442.6281021375969, 442.7447688042569, 442.86143547091694, 442.97810213757697, 443.094768804237, 443.211435470897, 443.32810213755704, 443.44476880421706, 443.5614354708771, 443.6781021375371, 443.79476880419713, 443.91143547085716, 444.0281021375172, 444.1447688041772, 444.2614354708372, 444.4947688041706]	2021_Jan_27_1117	59.93438275203767	1	0.375
11	74	FALSE	NV	a	['P', 'N', 'T', 'Z', 'B', 'C', 'G', 'K', 'H', 'J', 'X', 'M', 'Y', 'E', 'R', 'A']	[1456, 1335, 1888, 2911, 760, 829, 944, 1122, 986, 1029, 4000, 1224, 2670, 904, 1587, 697]	11	Present	NA	NA	PRESENT	0.4968860149383545	446.4742000102997	448.4853649139404	449.41870635345214	449.7687082607807	452.59863805770874	4.1132731437683105	[446.49034309387207, 446.60729718208313, 447.5819602012634, 447.7584271430969, 448.50950717926025, 448.62593507766724, 448.74290919303894, 448.8596680164337, 448.97639513015747, 449.0930390357971, 449.2100360393524, 449.3268210887909, 449.4436421394348, 449.5602750778198, 449.6771590709686, 449.79380917549133, 449.91080713272095, 450.0274419784546, 450.14420318603516, 450.2610731124878, 450.37792801856995, 450.59863901138306]	[446.4947688041706, 446.6114354708306, 447.5944354708306, 447.7611354708306, 448.5111354708306, 448.6278021374906, 448.74446880415064, 448.86113547081067, 448.9778021374707, 449.0944688041307, 449.21113547079074, 449.32780213745076, 449.4444688041108, 449.5611354707708, 449.67780213743083, 449.79446880409085, 449.9111354707509, 450.0278021374109, 450.1444688040709, 450.26113547073095, 450.377802137391, 450.6111354707243]	2021_Jan_27_1117	59.93438275203767	1	0.375
11	75	FALSE	NV	a	['E', 'S', 'A', 'P', 'Z', 'U', 'K', 'M', 'Y', 'G', 'H', 'B', 'J', 'X', 'W', 'C']	[904, 1731, 697, 1456, 2911, 2059, 1122, 1224, 2670, 944, 986, 760, 1029, 4000, 2448, 829]	14	Present	NA	NA	PRESENT	1.1817469596862793	452.597375869751	454.60133695602417	455.88467720342294	456.23467934917016	458.71500515937805	4.113668203353882	[452.61351919174194, 452.7302231788635, 453.6983280181885, 453.8816611766815, 454.6324100494385, 454.74914503097534, 454.8660080432892, 454.98266410827637, 455.0996630191803, 455.2162501811981, 455.3333430290222, 455.44997811317444, 455.566792011261, 455.68352603912354, 455.8004059791565, 455.9170479774475, 456.03392815589905, 456.1507902145386, 456.2676250934601, 456.38434314727783, 456.50094509124756, 456.71500420570374]	[452.6111354707243, 452.72780213738434, 453.71080213738435, 453.87750213738434, 454.62750213738434, 454.74416880404436, 454.8608354707044, 454.9775021373644, 455.09416880402443, 455.21083547068446, 455.3275021373445, 455.4441688040045, 455.56083547066453, 455.67750213732455, 455.7941688039846, 455.9108354706446, 456.0275021373046, 456.14416880396465, 456.26083547062467, 456.3775021372847, 456.4941688039447, 456.72750213727807]	2021_Jan_27_1117	59.93438275203767	1	0.375
11	76	FALSE	NV	a	['E', 'W', 'T', 'J', 'K', 'H', 'Y', 'Z', 'U', 'P', 'R', 'X', 'S', 'M', 'V', 'N']	[904, 2448, 1888, 1029, 1122, 986, 2670, 2911, 2059, 1456, 1587, 4000, 1731, 1224, 2245, 1335]	12	Present	NA	NA	PRESENT	0.258836030960083	458.7208638191223	460.7176070213318	461.7676148890849	462.1176179885064	464.83137011528015	4.113763093948364	[458.7370071411133, 458.8367991447449, 459.81469202041626, 459.98795104026794, 460.7387762069702, 460.8556170463562, 460.9723651409149, 461.0892701148987, 461.20600605010986, 461.32271003723145, 461.43966913223267, 461.5563130378723, 461.6732621192932, 461.7900860309601, 461.9069230556488, 462.02347207069397, 462.14055919647217, 462.2572991847992, 462.37410521507263, 462.4907660484314, 462.60741114616394, 462.83137011528015]	[458.72750213727807, 458.8441688039381, 459.8271688039381, 459.9938688039381, 460.7438688039381, 460.8605354705981, 460.97720213725813, 461.09386880391816, 461.2105354705782, 461.3272021372382, 461.4438688038982, 461.56053547055825, 461.6772021372183, 461.7938688038783, 461.9105354705383, 462.02720213719834, 462.14386880385837, 462.2605354705184, 462.3772021371784, 462.49386880383844, 462.61053547049846, 462.8438688038318]	2021_Jan_27_1117	59.93438275203767	1	0.375
11	77	FALSE	NA	a	['Y', 'J', 'B', 'U', 'N', 'A', 'H', 'Z', 'S', 'E', 'P', 'T', 'W', 'X', 'M', 'R']	[2670, 1029, 760, 2059, 1335, 697, 986, 2911, 1731, 904, 1456, 1888, 2448, 4000, 1224, 1587]	14	Present	NA	NA	PRESENT	0.24731993675231936	464.8270149230957	466.83416390419006	468.1175053436817	468.4675072510104	470.9477369785309	4.11357307434082	[464.843159198761, 464.9601421356201, 465.9310619831085, 466.1113221645355, 466.8620300292969, 466.97887420654297, 467.0956029891968, 467.2123670578003, 467.3293721675873, 467.44600915908813, 467.56298208236694, 467.67959117889404, 467.7964060306549, 467.91322112083435, 468.0299150943756, 468.1470651626587, 468.2637691497803, 468.3805069923401, 468.4970951080322, 468.61387300491333, 468.73056507110596, 468.9477369785309]	[464.8438688038318, 464.96053547049183, 465.94353547049184, 466.11023547049183, 466.86023547049183, 466.97690213715185, 467.0935688038119, 467.2102354704719, 467.3269021371319, 467.44356880379195, 467.56023547045197, 467.676902137112, 467.793568803772, 467.91023547043204, 468.02690213709207, 468.1435688037521, 468.2602354704121, 468.37690213707214, 468.49356880373216, 468.6102354703922, 468.7269021370522, 468.96023547038556]	2021_Jan_27_1117	59.93438275203767	1	0.375
11	78	FALSE	NV	a	['Y', 'Z', 'K', 'J', 'V', 'G', 'M', 'C', 'R', 'A', 'X', 'N', 'U', 'T', 'S', 'P']	[2670, 2911, 1122, 1029, 2245, 944, 1224, 829, 1587, 697, 4000, 1335, 2059, 1888, 1731, 1456]	11	Present	NA	NA	PRESENT	0.32460880279541016	470.9504518508911	472.9504749774933	473.8838152249121	474.23381617856643	477.0641040802002	4.113629102706909	[470.9665970802307, 471.0833330154419, 472.04743099212646, 472.23467898368835, 472.985148191452, 473.10198998451233, 473.2020151615143, 473.3188371658325, 473.43564319610596, 473.552433013916, 473.6691460609436, 473.7859721183777, 473.9028232097626, 474.019602060318, 474.1364071369171, 474.2531499862671, 474.3702630996704, 474.4867579936981, 474.60376501083374, 474.72024607658386, 474.8372440338135, 475.0641050338745]	[470.96023547038556, 471.0769021370456, 472.0599021370456, 472.2266021370456, 472.9766021370456, 473.0932688037056, 473.2099354703656, 473.32660213702565, 473.44326880368567, 473.5599354703457, 473.6766021370057, 473.79326880366574, 473.90993547032576, 474.0266021369858, 474.1432688036458, 474.25993547030583, 474.37660213696586, 474.4932688036259, 474.6099354702859, 474.7266021369459, 474.84326880360595, 475.0766021369393]	2021_Jan_27_1117	59.93438275203767	1	0.375
11	79	FALSE	NN	a	['K', 'S', 'H', 'U', 'E', 'M', 'Y', 'V', 'N', 'R', 'B', 'J', 'A', 'G', 'W', 'C']	[1122, 1731, 986, 2059, 904, 1224, 2670, 2245, 1335, 1587, 760, 1029, 697, 944, 2448, 829]	8	Absent	NA	NA	ABSENT	0.5530979633331299	477.0567328929901	479.0669159889221	479.6502581437095	480.0002602894568	483.1804699897766	4.113554000854492	[477.0728771686554, 477.1897141933441, 478.16379404067993, 478.34126710891724, 479.0916540622711, 479.20859599113464, 479.3253631591797, 479.44202613830566, 479.5589120388031, 479.6755611896515, 479.7925992012024, 479.9091820716858, 480.02610898017883, 480.142804145813, 480.25970816612244, 480.3763999938965, 480.4931130409241, 480.6100401878357, 480.7268531322479, 480.8435130119324, 480.9604640007019, 481.1804711818695]	[477.0766021369393, 477.1932688035993, 478.1762688035993, 478.3429688035993, 479.0929688035993, 479.20963547025934, 479.32630213691937, 479.4429688035794, 479.5596354702394, 479.67630213689944, 479.79296880355946, 479.9096354702195, 480.0263021368795, 480.14296880353953, 480.25963547019956, 480.3763021368596, 480.4929688035196, 480.6096354701796, 480.72630213683965, 480.8429688034997, 480.9596354701597, 481.19296880349305]	2021_Jan_27_1117	59.93438275203767	1	0.375
