participant	trial_num	practice	task	condition	RSVP	RAP	probePos	probe_presence	surprise_sound	surprise_img	probe_response	probe_resp_time	first_fixation_time	trial_start_time	surprise_start_time	probe_start_time	trial_end_time	trial_duration	actualEventTimes	plannedEventTimes	date	framerate	marker_vol	RAP_vol
13	1	FALSE	NA	v	['T', 'J', 'M', 'E', 'W', 'Z', 'B', 'H', 'X', 'U', 'V', 'Y', 'S', 'C', 'N', 'K']	[1888, 1029, 1224, 904, 2448, 2911, 760, 986, 4000, 2059, 2245, 2670, 1731, 829, 1335, 1122]	9	Present	NA	NA	PRESENT	0.8992650508880615	2.86102294921875e-6	1.9917659759521484	2.689980983734131	3.039999008178711	6.10387110710144	4.112105131149292	[0.01822519302368164, 0.11814308166503906, 1.1025981903076172, 1.2695600986480713, 2.020148992538452, 2.1370692253112793, 2.253967046737671, 2.3707351684570312, 2.4872682094573975, 2.6041572093963623, 2.720877170562744, 2.8378732204437256, 2.95473313331604, 3.0714030265808105, 3.1882500648498535, 3.305131196975708, 3.4216041564941406, 3.538655996322632, 3.655266046524048, 3.7721471786499023, 3.888970136642456, 4.10387110710144]	[2.1457672119140625e-06, 0.11666881243387857, 1.0996688124338785, 1.2663688124338786, 2.0163688124338783, 2.133035479100545, 2.2497021457672117, 2.3663688124338784, 2.483035479100545, 2.599702145767212, 2.7163688124338785, 2.833035479100545, 2.949702145767212, 3.0663688124338786, 3.1830354791005453, 3.299702145767212, 3.4163688124338787, 3.5330354791005454, 3.649702145767212, 3.7663688124338788, 3.8830354791005455, 4.116368812433879]	2021_Jan_28_1700	59.951687644901334	1	1
13	2	FALSE	NN	v	['U', 'P', 'C', 'W', 'J', 'Y', 'K', 'V', 'S', 'A', 'H', 'Z', 'M', 'B', 'G', 'N']	[2059, 1456, 829, 2448, 1029, 2670, 1122, 2245, 1731, 697, 986, 2911, 1224, 760, 944, 1335]	13	Absent	NA	NA	ABSENT	0.184643030166626	6.1064369678497314	8.104902982711792	9.271857023239136	9.621816873550417	12.220238208770752	4.11533522605896	[6.124659061431885, 6.241302013397217, 7.208852052688599, 7.375661134719849, 8.143084049224854, 8.260147094726562, 8.376975059509277, 8.493696212768555, 8.610522031784058, 8.727277040481567, 8.844060182571411, 8.960783004760742, 9.077498197555542, 9.19438099861145, 9.311289072036743, 9.411030054092407, 9.528178215026855, 9.644672155380249, 9.778281211853027, 9.878221035003662, 9.995286226272583, 10.220237016677856]	[6.116368812433879, 6.233035479100545, 7.216035479100545, 7.382735479100544, 8.132735479100544, 8.249402145767212, 8.366068812433879, 8.482735479100546, 8.599402145767213, 8.71606881243388, 8.832735479100547, 8.949402145767214, 9.066068812433882, 9.182735479100549, 9.299402145767216, 9.416068812433883, 9.53273547910055, 9.649402145767217, 9.766068812433884, 9.882735479100552, 9.999402145767219, 10.232735479100551]	2021_Jan_28_1700	59.951687644901334	1	1
13	3	FALSE	NN	v	['C', 'E', 'Z', 'T', 'J', 'H', 'G', 'B', 'S', 'R', 'P', 'M', 'K', 'V', 'N', 'A']	[829, 904, 2911, 1888, 1029, 986, 944, 760, 1731, 1587, 1456, 1224, 1122, 2245, 1335, 697]	13	Absent	NA	NA	ABSENT	0.2931041717529297	12.212596893310549	14.221246004104614	15.388340950012209	15.738181829452516	18.336604118347168	4.115358114242554	[12.230821132659912, 12.347400188446045, 13.3317551612854, 13.498899221420288, 14.249439001083374, 14.366091012954712, 14.483208179473877, 14.599841117858887, 14.716787099838257, 14.833383083343506, 14.95017409324646, 15.067126035690308, 15.183719158172607, 15.300523042678833, 15.417330026626587, 15.534078121185303, 15.650970220565796, 15.767804145812988, 15.88463306427002, 16.00139307975769, 16.118061065673828, 16.336604118347168]	[12.232735479100551, 12.349402145767218, 13.332402145767219, 13.49910214576722, 14.24910214576722, 14.365768812433886, 14.482435479100554, 14.59910214576722, 14.715768812433888, 14.832435479100555, 14.949102145767222, 15.06576881243389, 15.182435479100556, 15.299102145767224, 15.41576881243389, 15.532435479100558, 15.649102145767225, 15.765768812433892, 15.88243547910056, 15.999102145767226, 16.115768812433892, 16.349102145767226]	2021_Jan_28_1700	59.951687644901334	1	1
13	4	FALSE	NV	v	['Z', 'S', 'R', 'T', 'N', 'B', 'A', 'W', 'J', 'H', 'X', 'G', 'K', 'E', 'P', 'U']	[2911, 1731, 1587, 1888, 1335, 760, 697, 2448, 1029, 986, 4000, 944, 1122, 904, 1456, 2059]	11	Present	NA	NA	PRESENT	0.410736083984375	18.335503816604614	20.337666988372803	21.27107000350952	21.621291875839233	24.45297122001648	4.115304231643677	[18.353727102279663, 18.470296144485474, 19.454752206802368, 19.622055053710938, 20.372387170791626, 20.489201068878174, 20.605929136276245, 20.72278904914856, 20.83964514732361, 20.956427097320557, 21.073240995407104, 21.189962148666382, 21.306762218475342, 21.423631191253662, 21.540266036987305, 21.657116174697876, 21.77377200126648, 21.89070701599121, 22.007411003112793, 22.12438416481018, 22.224241018295288, 22.45297122001648]	[18.349102145767226, 18.465768812433893, 19.448768812433894, 19.615468812433893, 20.365468812433893, 20.48213547910056, 20.598802145767227, 20.715468812433894, 20.83213547910056, 20.948802145767228, 21.065468812433895, 21.182135479100562, 21.29880214576723, 21.415468812433897, 21.532135479100564, 21.64880214576723, 21.765468812433898, 21.882135479100565, 21.998802145767232, 22.1154688124339, 22.232135479100567, 22.4654688124339]	2021_Jan_28_1700	59.951687644901334	1	1
13	5	FALSE	NN	v	['Z', 'T', 'B', 'S', 'U', 'C', 'K', 'V', 'E', 'N', 'R', 'P', 'Y', 'A', 'H', 'M']	[2911, 1888, 760, 1731, 2059, 829, 1122, 2245, 904, 1335, 1587, 1456, 2670, 697, 986, 1224]	11	Absent	NA	NA	ABSENT	0.27094507217407227	24.441712856292725	26.453848838806152	27.387671947479248	27.737524032592773	30.569338083267212	4.11548924446106	[24.45993709564209, 24.576783180236816, 25.561050176620483, 25.72802710533142, 26.495424032211304, 26.595452070236206, 26.712355136871338, 26.82896399497986, 26.945847034454346, 27.062557220458984, 27.17928719520569, 27.296236991882324, 27.413036108016968, 27.52976417541504, 27.646520137786865, 27.763550996780396, 27.88022518157959, 27.99694299697876, 28.11377501487732, 28.230555057525635, 28.34752321243286, 28.569337129592896]	[24.4654688124339, 24.582135479100568, 25.56513547910057, 25.731835479100567, 26.481835479100567, 26.598502145767235, 26.7151688124339, 26.83183547910057, 26.948502145767236, 27.065168812433903, 27.18183547910057, 27.298502145767237, 27.415168812433905, 27.53183547910057, 27.64850214576724, 27.765168812433906, 27.881835479100573, 27.99850214576724, 28.115168812433907, 28.231835479100575, 28.34850214576724, 28.581835479100576]	2021_Jan_28_1700	59.951687644901334	1	1
13	6	FALSE	NV	v	['T', 'M', 'N', 'C', 'B', 'J', 'P', 'X', 'K', 'V', 'A', 'H', 'G', 'Y', 'U', 'W']	[1888, 1224, 1335, 829, 760, 1029, 1456, 4000, 1122, 2245, 697, 986, 944, 2670, 2059, 2448]	8	Present	NA	NA	PRESENT	0.2516329288482666	30.565151929855347	32.57023787498474	33.15380597114563	33.503830909729004	36.68570518493652	4.115467309951782	[30.583376169204712, 30.699753999710083, 31.6842041015625, 31.851294994354248, 32.60160303115845, 32.718409061431885, 32.83512806892395, 32.95206022262573, 33.0688681602478, 33.185694217681885, 33.302425146102905, 33.419203996658325, 33.53583216667175, 33.65282607078552, 33.76937699317932, 33.88634514808655, 34.00301718711853, 34.119868993759155, 34.23664617538452, 34.35346722602844, 34.47009205818176, 34.68570518493652]	[30.581835479100576, 30.698502145767243, 31.681502145767244, 31.848202145767242, 32.598202145767246, 32.71486881243391, 32.83153547910058, 32.94820214576725, 33.064868812433915, 33.18153547910058, 33.29820214576725, 33.414868812433916, 33.53153547910058, 33.64820214576725, 33.76486881243392, 33.881535479100584, 33.99820214576725, 34.11486881243392, 34.231535479100586, 34.34820214576725, 34.46486881243392, 34.698202145767254]	2021_Jan_28_1700	59.951687644901334	1	1
13	7	FALSE	NV	v	['K', 'H', 'Z', 'R', 'T', 'C', 'V', 'Y', 'A', 'N', 'X', 'M', 'U', 'B', 'E', 'J']	[1122, 986, 2911, 1587, 1888, 829, 2245, 2670, 697, 1335, 4000, 1224, 2059, 760, 904, 1029]	11	Present	NA	NA	PRESENT	0.28889894485473633	36.68772888183594	38.68649983406067	39.6203498840332	39.970202922821045	42.80207109451294	4.1155712604522705	[36.705952167510986, 36.82285213470459, 37.79018211364746, 37.957035064697266, 38.724438190460205, 38.84156322479248, 38.95810413360596, 39.07503414154053, 39.191709995269775, 39.308534145355225, 39.425199031829834, 39.54226517677307, 39.6590211391449, 39.77573013305664, 39.89227104187012, 40.00928807258606, 40.12599205970764, 40.242908000946045, 40.359681129455566, 40.45949602127075, 40.57667899131775, 40.80207014083862]	[36.698202145767254, 36.81486881243392, 37.79786881243392, 37.96456881243392, 38.71456881243392, 38.831235479100584, 38.94790214576725, 39.06456881243392, 39.181235479100586, 39.29790214576725, 39.41456881243392, 39.53123547910059, 39.647902145767254, 39.76456881243392, 39.88123547910059, 39.997902145767256, 40.11456881243392, 40.23123547910059, 40.34790214576726, 40.464568812433924, 40.58123547910059, 40.814568812433926]	2021_Jan_28_1700	59.951687644901334	1	1
13	8	FALSE	NA	v	['W', 'Y', 'H', 'A', 'P', 'C', 'U', 'M', 'X', 'T', 'E', 'K', 'G', 'J', 'R', 'B']	[2448, 2670, 986, 697, 1456, 829, 2059, 1224, 4000, 1888, 904, 1122, 944, 1029, 1587, 760]	9	Present	NA	NA	PRESENT	0.35743093490600586	42.7939658164978	44.80278992652893	45.50348281860352	45.85344386100769	48.91843914985657	4.115649223327637	[42.812188148498535, 42.92889213562012, 43.91324806213379, 44.07996916770935, 44.830751180648804, 44.94756817817688, 45.06429100036621, 45.18117022514343, 45.298004150390625, 45.41474413871765, 45.53142809867859, 45.6483211517334, 45.765048027038574, 45.88193321228027, 45.99875617027283, 46.115522146224976, 46.23218107223511, 46.34914422035217, 46.46576905250549, 46.58257508277893, 46.69938516616821, 46.91843819618225]	[42.814568812433926, 42.93123547910059, 43.91423547910059, 44.08093547910059, 44.83093547910059, 44.947602145767256, 45.06426881243392, 45.18093547910059, 45.29760214576726, 45.414268812433924, 45.53093547910059, 45.64760214576726, 45.764268812433926, 45.88093547910059, 45.99760214576726, 46.11426881243393, 46.230935479100594, 46.34760214576726, 46.46426881243393, 46.580935479100596, 46.69760214576726, 46.9309354791006]	2021_Jan_28_1700	59.951687644901334	1	1
13	9	FALSE	NN	v	['S', 'K', 'P', 'W', 'N', 'A', 'R', 'M', 'E', 'Z', 'C', 'V', 'Y', 'H', 'G', 'B']	[1731, 1122, 1456, 2448, 1335, 697, 1587, 1224, 904, 2911, 829, 2245, 2670, 986, 944, 760]	13	Absent	NA	NA	ABSENT	0.24213409423828125	48.91688585281372	50.91937303543091	52.0864679813385	52.43660092353821	55.03480410575867	4.115431070327759	[48.93510913848877, 49.05191612243652, 50.036297082901, 50.20314002037048, 50.954097032547, 51.07060122489929, 51.18737816810608, 51.3041410446167, 51.42082118988037, 51.53773617744446, 51.6545832157135, 51.77134108543396, 51.888031005859375, 52.00493407249451, 52.12161111831665, 52.238409996032715, 52.35535502433777, 52.47191309928894, 52.5887610912323, 52.70553803443909, 52.82241201400757, 53.03480410575867]	[48.9309354791006, 49.047602145767264, 50.03060214576726, 50.19730214576726, 50.94730214576726, 51.06396881243393, 51.180635479100594, 51.29730214576726, 51.41396881243393, 51.530635479100596, 51.64730214576726, 51.76396881243393, 51.8806354791006, 51.997302145767264, 52.11396881243393, 52.2306354791006, 52.347302145767266, 52.46396881243393, 52.5806354791006, 52.69730214576727, 52.813968812433934, 53.04730214576727]	2021_Jan_28_1700	59.951687644901334	1	1
13	10	FALSE	NA	v	['W', 'C', 'S', 'P', 'B', 'H', 'A', 'R', 'U', 'M', 'N', 'X', 'E', 'K', 'T', 'G']	[2448, 829, 1731, 1456, 760, 986, 697, 1587, 2059, 1224, 1335, 4000, 904, 1122, 1888, 944]	12	Present	NA	NA	PRESENT	0.29541802406311035	55.02309203147888	57.035714864730835	58.086089849472046	58.43596696853638	61.15117120742798	4.1154563426971444	[55.04131603240967, 55.158122062683105, 56.14231300354004, 56.309343099594116, 57.07665801048279, 57.17674016952515, 57.29344916343689, 57.4103901386261, 57.527194023132324, 57.64396619796753, 57.76093101501465, 57.87737321853638, 57.994354009628296, 58.111146211624146, 58.22781801223755, 58.34460711479187, 58.46162414550781, 58.578263998031616, 58.695247173309326, 58.81181311607361, 58.928439140319824, 59.15117120742798]	[55.04730214576727, 55.163968812433936, 56.14696881243393, 56.31366881243393, 57.06366881243393, 57.1803354791006, 57.297002145767266, 57.41366881243393, 57.5303354791006, 57.64700214576727, 57.763668812433934, 57.8803354791006, 57.99700214576727, 58.113668812433936, 58.2303354791006, 58.34700214576727, 58.46366881243394, 58.580335479100604, 58.69700214576727, 58.81366881243394, 58.930335479100606, 59.16366881243394]	2021_Jan_28_1700	59.951687644901334	1	1
13	11	FALSE	NA	v	['P', 'S', 'T', 'M', 'E', 'Y', 'K', 'B', 'C', 'X', 'Z', 'A', 'G', 'R', 'H', 'V']	[1456, 1731, 1888, 1224, 904, 2670, 1122, 760, 829, 4000, 2911, 697, 944, 1587, 986, 2245]	10	Present	NA	NA	PRESENT	0.3718111515045166	61.146299839019775	63.15209889411926	63.969022035598755	64.31943798065186	67.26753807067871	4.115439176559448	[61.164523124694824, 61.28090810775757, 62.26538610458374, 62.43232321739197, 63.18300914764404, 63.299867153167725, 63.41667604446411, 63.533475160598755, 63.65021204948425, 63.767104148864746, 63.88357615470886, 64.00067710876465, 64.11719012260437, 64.23405909538269, 64.35086703300476, 64.46760606765747, 64.58438110351562, 64.70127415657043, 64.81807613372803, 64.93494200706482, 65.05155205726624, 65.26753807067871]	[61.16366881243394, 61.28033547910061, 62.263335479100604, 62.4300354791006, 63.1800354791006, 63.29670214576727, 63.41336881243394, 63.530035479100604, 63.64670214576727, 63.76336881243394, 63.880035479100606, 63.99670214576727, 64.11336881243393, 64.2300354791006, 64.34670214576725, 64.46336881243391, 64.58003547910057, 64.69670214576723, 64.8133688124339, 64.93003547910055, 65.04670214576721, 65.28003547910055]	2021_Jan_28_1700	59.951687644901334	1	1
13	12	FALSE	NV	v	['Y', 'U', 'C', 'A', 'M', 'T', 'R', 'J', 'V', 'X', 'B', 'Z', 'E', 'S', 'N', 'H']	[2670, 2059, 829, 697, 1224, 1888, 1587, 1029, 2245, 4000, 760, 2911, 904, 1731, 1335, 986]	10	Present	NA	NA	PRESENT	0.49703502655029297	67.26886296272278	69.26837182044983	70.08545804023743	70.43666386604309	73.38390517234802	4.115533351898193	[67.28708720207214, 67.40405917167664, 68.38836407661438, 68.555330991745, 69.30585718154907, 69.42277216911316, 69.53942108154297, 69.65641403198242, 69.77297616004944, 69.89002919197083, 70.00656414031982, 70.12359714508057, 70.24020218849182, 70.3568971157074, 70.47395610809326, 70.59093308448792, 70.70737314224243, 70.82433319091797, 70.9409852027893, 71.05765199661255, 71.15771412849426, 71.38390612602234]	[67.28003547910055, 67.39670214576721, 68.37970214576721, 68.54640214576722, 69.29640214576722, 69.41306881243388, 69.52973547910054, 69.6464021457672, 69.76306881243386, 69.87973547910052, 69.99640214576718, 70.11306881243384, 70.2297354791005, 70.34640214576716, 70.46306881243382, 70.57973547910048, 70.69640214576714, 70.8130688124338, 70.92973547910046, 71.04640214576712, 71.16306881243378, 71.39640214576711]	2021_Jan_28_1700	59.951687644901334	1	1
13	13	FALSE	NA	v	['U', 'M', 'N', 'Z', 'K', 'S', 'G', 'H', 'T', 'E', 'P', 'V', 'X', 'Y', 'J', 'R']	[2059, 1224, 1335, 2911, 1122, 1731, 944, 986, 1888, 904, 1456, 2245, 4000, 2670, 1029, 1587]	13	Present	NA	NA	PRESENT	0.349682092666626	73.37525081634521	75.38488698005676	76.55198097229004	76.90178489685059	79.50027108192444	4.115384101867676	[73.39347410202026, 73.51016116142273, 74.4945740699768, 74.6615571975708, 75.41201210021973, 75.52892303466797, 75.64591217041016, 75.81250715255737, 75.87946200370789, 75.99615621566772, 76.11271214485168, 76.22978115081787, 76.34627914428711, 76.46340012550354, 76.57990717887878, 76.69690203666687, 76.81357622146606, 76.93056416511536, 77.0472002029419, 77.163987159729, 77.28064012527466, 77.50027108192444]	[73.39640214576711, 73.51306881243377, 74.49606881243378, 74.66276881243378, 75.41276881243378, 75.52943547910044, 75.6461021457671, 75.76276881243376, 75.87943547910042, 75.99610214576708, 76.11276881243374, 76.2294354791004, 76.34610214576706, 76.46276881243372, 76.57943547910038, 76.69610214576704, 76.8127688124337, 76.92943547910036, 77.04610214576702, 77.16276881243368, 77.27943547910034, 77.51276881243368]	2021_Jan_28_1700	59.951687644901334	1	1
13	14	FALSE	NN	v	['W', 'Y', 'E', 'M', 'Z', 'V', 'S', 'U', 'H', 'C', 'R', 'K', 'A', 'P', 'B', 'N']	[2448, 2670, 904, 1224, 2911, 2245, 1731, 2059, 986, 829, 1587, 1122, 697, 1456, 760, 1335]	11	Absent	NA	NA	ABSENT	0.2902059555053711	79.49809384346008	81.5011658668518	82.43479299545288	82.78529787063599	85.61663913726807	4.11547327041626	[79.51631808280945, 79.6332139968872, 80.6177990436554, 80.78439021110535, 81.53515100479126, 81.6518931388855, 81.76854300498962, 81.88558220863342, 82.00215411186218, 82.11939716339111, 82.23595118522644, 82.35260200500488, 82.4694230556488, 82.5860390663147, 82.70316100120544, 82.81978106498718, 82.93671917915344, 83.0534942150116, 83.17012000083923, 83.28687715530396, 83.4038610458374, 83.61663603782654]	[79.51276881243368, 79.62943547910034, 80.61243547910034, 80.77913547910035, 81.52913547910035, 81.64580214576701, 81.76246881243367, 81.87913547910033, 81.99580214576699, 82.11246881243365, 82.22913547910031, 82.34580214576697, 82.46246881243363, 82.57913547910029, 82.69580214576695, 82.81246881243361, 82.92913547910027, 83.04580214576693, 83.16246881243359, 83.27913547910025, 83.39580214576691, 83.62913547910024]	2021_Jan_28_1700	59.951687644901334	1	1
13	15	FALSE	NV	v	['T', 'Z', 'U', 'R', 'E', 'N', 'J', 'V', 'M', 'Y', 'X', 'B', 'W', 'G', 'K', 'C']	[1888, 2911, 2059, 1587, 904, 1335, 1029, 2245, 1224, 2670, 4000, 760, 2448, 944, 1122, 829]	11	Present	NA	NA	PRESENT	0.3834240436553955	85.60429787635803	87.61744785308838	88.55114793777466	88.90117883682251	91.73300504684448	4.1155571937561035	[85.6225221157074, 85.73923802375793, 86.7236590385437, 86.89070916175842, 87.65811610221863, 87.75809717178345, 87.87478709220886, 87.99155402183533, 88.10832405090332, 88.22517609596252, 88.3419930934906, 88.45886301994324, 88.57556509971619, 88.69259214401245, 88.80904412269592, 88.92611408233643, 89.04263305664062, 89.15944814682007, 89.27639722824097, 89.39324116706848, 89.50999307632446, 89.73300409317017]	[85.62913547910024, 85.7458021457669, 86.7288021457669, 86.89550214576691, 87.64550214576691, 87.76216881243357, 87.87883547910023, 87.99550214576689, 88.11216881243355, 88.22883547910021, 88.34550214576687, 88.46216881243353, 88.57883547910019, 88.69550214576685, 88.81216881243351, 88.92883547910017, 89.04550214576683, 89.16216881243349, 89.27883547910015, 89.39550214576681, 89.51216881243347, 89.7455021457668]	2021_Jan_28_1700	59.951687644901334	1	1
13	16	FALSE	VV	v	['Y', 'E', 'P', 'W', 'G', 'surprise', 'H', 'T', 'X', 'V', 'M', 'K', 'J', 'R', 'Z', 'B']	[2670, 904, 1456, 2448, 944, 'stimAuditory/all_stimAuditory/104.wav', 986, 1888, 4000, 2245, 1224, 1122, 1029, 1587, 2911, 760]	9	Present	NA	stimVisual/all_stimVisual/50.jpg	ABSENT	0.468048095703125	91.72773694992064	93.7337818145752	94.43433785438538	94.78416395187378	97.84937119483948	4.115589380264282	[91.74595999717712, 91.86231517791748, 92.84674000740051, 93.01363921165466, 93.7643690109253, 93.88125014305115, 93.99797105789185, 94.11470103263855, 94.23141622543335, 94.36492609977722, 94.46490716934204, 94.58196520805359, 94.69851207733154, 94.81547904014587, 94.93227815628052, 95.04905319213867, 95.16580605506897, 95.28261709213257, 95.39929413795471, 95.51613807678223, 95.63301301002502, 95.84937000274658]	[91.7455021457668, 91.86216881243347, 92.84516881243347, 93.01186881243348, 93.76186881243348, 93.87853547910014, 93.9952021457668, 94.11186881243346, 94.22853547910012, 94.34520214576678, 94.46186881243344, 94.5785354791001, 94.69520214576676, 94.81186881243342, 94.92853547910008, 95.04520214576674, 95.1618688124334, 95.27853547910006, 95.39520214576672, 95.51186881243338, 95.62853547910004, 95.86186881243337]	2021_Jan_28_1700	59.951687644901334	1	1
13	17	FALSE	NA	v	['H', 'J', 'P', 'V', 'W', 'T', 'U', 'Z', 'N', 'A', 'E', 'X', 'S', 'C', 'K', 'R']	[986, 1029, 1456, 2245, 2448, 1888, 2059, 2911, 1335, 697, 904, 4000, 1731, 829, 1122, 1587]	12	Present	NA	NA	PRESENT	0.3453521728515625	97.85030388832092	99.85023784637453	100.9009289741516	101.25071597099304	103.9657380580902	4.115500211715698	[97.86852717399597, 97.9854621887207, 98.96967720985413, 99.13654899597168, 99.88709902763367, 100.00412821769714, 100.12082409858704, 100.23755407333374, 100.35434412956238, 100.4711902141571, 100.5879921913147, 100.70487308502197, 100.82145810127258, 100.93843507766724, 101.05522012710571, 101.17185807228088, 101.28898811340332, 101.40544605255127, 101.522469997406, 101.63896799087524, 101.73906016349792, 101.96573805809021]	[97.86186881243337, 97.97853547910003, 98.96153547910004, 99.12823547910004, 99.87823547910004, 99.9949021457667, 100.11156881243336, 100.22823547910002, 100.34490214576668, 100.46156881243334, 100.5782354791, 100.69490214576666, 100.81156881243332, 100.92823547909998, 101.04490214576664, 101.1615688124333, 101.27823547909996, 101.39490214576662, 101.51156881243328, 101.62823547909994, 101.7449021457666, 101.97823547909994]	2021_Jan_28_1700	59.951687644901334	1	1
13	18	FALSE	NN	v	['W', 'A', 'K', 'Y', 'J', 'E', 'B', 'N', 'M', 'Z', 'G', 'C', 'S', 'U', 'P', 'V']	[2448, 697, 1122, 2670, 1029, 904, 760, 1335, 1224, 2911, 944, 829, 1731, 2059, 1456, 2245]	14	Absent	NA	NA	ABSENT	0.31001996994018555	103.9566478729248	105.96679401397704	107.25048398971558	107.60046482086182	110.08210515975952	4.115311145782471	[103.97487020492554, 104.09151101112366, 105.07579517364502, 105.24284315109253, 105.99332404136658, 106.11035203933716, 106.22704720497131, 106.34396719932556, 106.46059322357178, 106.57757210731506, 106.6941590309143, 106.8110921382904, 106.92781805992126, 107.04461908340454, 107.1613221168518, 107.27811217308044, 107.39513516426086, 107.51189517974854, 107.6284852027893, 107.74534201622009, 107.86206722259521, 108.08210515975952]	[103.97823547909994, 104.0949021457666, 105.0779021457666, 105.2446021457666, 105.9946021457666, 106.11126881243327, 106.22793547909993, 106.34460214576659, 106.46126881243325, 106.5779354790999, 106.69460214576657, 106.81126881243323, 106.92793547909989, 107.04460214576655, 107.1612688124332, 107.27793547909987, 107.39460214576653, 107.51126881243319, 107.62793547909985, 107.7446021457665, 107.86126881243317, 108.0946021457665]	2021_Jan_28_1700	59.951687644901334	1	1
13	19	FALSE	AA	v	['N', 'C', 'Y', 'E', 'U', 'H', 'J', 'P', 'T', 'W', 'surprise', 'S', 'A', 'X', 'M', 'V']	[1335, 829, 2670, 904, 2059, 986, 1029, 1456, 1888, 2448, 'stimAuditory/all_stimAuditory/115.wav', 1731, 697, 4000, 1224, 2245]	14	Present	stimAuditory/all_stimAuditory/104.wav	stimVisual/all_stimVisual/104.jpg	ABSENT	0.4424309730529785	110.07959794998168	112.08304786682127	113.36675500869752	113.71688795089722	116.19847106933594	4.115423202514648	[110.09782004356384, 110.21469712257385, 111.1988160610199, 111.36587619781494, 112.11671614646912, 112.23328018188477, 112.35048413276672, 112.4669451713562, 112.58354616165161, 112.70035815238953, 112.8171751499176, 112.93390417098999, 113.05080008506775, 113.16749119758606, 113.28421711921692, 113.40114521980286, 113.51799011230469, 113.63449501991272, 113.75128602981567, 113.86832618713379, 113.98497605323792, 114.19847011566162]	[110.0946021457665, 110.21126881243316, 111.19426881243317, 111.36096881243317, 112.11096881243317, 112.22763547909983, 112.34430214576649, 112.46096881243315, 112.57763547909981, 112.69430214576647, 112.81096881243313, 112.92763547909979, 113.04430214576645, 113.16096881243311, 113.27763547909977, 113.39430214576643, 113.51096881243309, 113.62763547909975, 113.74430214576641, 113.86096881243307, 113.97763547909973, 114.21096881243307]	2021_Jan_28_1700	59.951687644901334	1	1
13	20	FALSE	NA	v	['M', 'A', 'J', 'T', 'H', 'R', 'Z', 'Y', 'V', 'N', 'X', 'B', 'W', 'U', 'C', 'G']	[1224, 697, 1029, 1888, 986, 1587, 2911, 2670, 2245, 1335, 4000, 760, 2448, 2059, 829, 944]	11	Present	NA	NA	ABSENT	0.5837500095367432	116.18559384346008	118.19928193092346	119.13307094573976	119.48337483406068	122.31483817100523	4.115556240081787	[116.20381617546082, 116.32064700126648, 117.30506610870361, 117.47181606292725, 118.23947405815125, 118.33941221237183, 118.45616722106934, 118.57295799255371, 118.68972110748291, 118.80642914772034, 118.92334222793579, 119.04005312919617, 119.15682721138, 119.2738389968872, 119.39045214653015, 119.5072250366211, 119.62409806251526, 119.74082207679749, 119.8575210571289, 119.97432017326355, 120.09125399589539, 120.31483817100525]	[116.21096881243307, 116.32763547909973, 117.31063547909973, 117.47733547909974, 118.22733547909974, 118.3440021457664, 118.46066881243306, 118.57733547909972, 118.69400214576638, 118.81066881243304, 118.9273354790997, 119.04400214576636, 119.16066881243302, 119.27733547909968, 119.39400214576634, 119.510668812433, 119.62733547909966, 119.74400214576632, 119.86066881243298, 119.97733547909964, 120.0940021457663, 120.32733547909963]	2021_Jan_28_1700	59.951687644901334	1	1
13	21	FALSE	NA	v	['Y', 'P', 'A', 'H', 'V', 'U', 'B', 'C', 'Z', 'R', 'N', 'X', 'J', 'K', 'S', 'W']	[2670, 1456, 697, 986, 2245, 2059, 760, 829, 2911, 1587, 1335, 4000, 1029, 1122, 1731, 2448]	12	Present	NA	NA	PRESENT	0.27646899223327637	122.3090648651123	124.316015958786	125.36621880531312	125.71645498275755	128.4312040805817	4.115188121795654	[122.32728719711304, 122.44352412223816, 123.42788314819336, 123.59474420547485, 124.3455650806427, 124.46247816085815, 124.5790741443634, 124.69582509994507, 124.81280207633972, 124.9295301437378, 125.04627799987793, 125.16328001022339, 125.27986001968384, 125.39662003517151, 125.51338315010071, 125.63031220436096, 125.74710607528687, 125.8637101650238, 125.98045110702515, 126.09736800193787, 126.21419310569763, 126.43120503425598]	[122.32733547909963, 122.44400214576629, 123.4270021457663, 123.5937021457663, 124.3437021457663, 124.46036881243296, 124.57703547909962, 124.69370214576628, 124.81036881243294, 124.9270354790996, 125.04370214576626, 125.16036881243292, 125.27703547909958, 125.39370214576624, 125.5103688124329, 125.62703547909956, 125.74370214576622, 125.86036881243288, 125.97703547909954, 126.0937021457662, 126.21036881243286, 126.4437021457662]	2021_Jan_28_1700	59.951687644901334	1	1
13	22	FALSE	NA	v	['H', 'A', 'M', 'R', 'Y', 'T', 'B', 'G', 'E', 'X', 'V', 'U', 'W', 'K', 'P', 'S']	[986, 697, 1224, 1587, 2670, 1888, 760, 944, 904, 4000, 2245, 2059, 2448, 1122, 1456, 1731]	10	Present	NA	NA	PRESENT	0.2980020046234131	128.43154788017273	130.43236994743347	131.24906301498413	131.59916591644287	134.54757118225098	4.115201234817505	[128.44977116584778, 128.56650710105896, 129.55104112625122, 129.7177290916443, 130.46845722198486, 130.58542013168335, 130.70210003852844, 130.81907200813293, 130.93572306632996, 131.0524480342865, 131.1694941520691, 131.28628301620483, 131.40306901931763, 131.51980710029602, 131.6365761756897, 131.75326704978943, 131.8700511455536, 131.98671507835388, 132.10367012023926, 132.22026419639587, 132.3204162120819, 132.54757022857666]	[128.4437021457662, 128.56036881243287, 129.54336881243287, 129.71006881243287, 130.46006881243287, 130.57673547909954, 130.6934021457662, 130.8100688124329, 130.92673547909956, 131.04340214576624, 131.1600688124329, 131.27673547909959, 131.39340214576626, 131.51006881243293, 131.6267354790996, 131.74340214576628, 131.86006881243296, 131.97673547909963, 132.0934021457663, 132.21006881243298, 132.32673547909965, 132.56006881243297]	2021_Jan_28_1700	59.951687644901334	1	1
13	23	FALSE	AV	v	['A', 'R', 'P', 'K', 'U', 'M', 'J', 'G', 'B', 'surprise', 'H', 'N', 'X', 'W', 'Y', 'C']	[697, 1587, 1456, 1122, 2059, 1224, 1029, 944, 760, 'stimAuditory/all_stimAuditory/210.wav', 986, 1335, 4000, 2448, 2670, 829]	13	Present	stimAuditory/all_stimAuditory/115.wav	stimVisual/all_stimVisual/122.jpg	ABSENT	0.5884599685668945	134.53777503967285	136.54856085777283	137.71572494506836	138.0656099319458	140.6639370918274	4.115376234054565	[134.55599808692932, 134.6729609966278, 135.65735721588135, 135.82725501060486, 136.57774019241333, 136.695139169693, 136.81124806404114, 136.928405046463, 137.0449080467224, 137.16199111938477, 137.27870917320251, 137.3954200744629, 137.51226806640625, 137.62879514694214, 137.7458951473236, 137.86246514320374, 137.97932720184326, 138.09619307518005, 138.21288800239563, 138.32978010177612, 138.44648003578186, 138.6639380455017]	[134.56006881243297, 134.67673547909965, 135.65973547909965, 135.82643547909964, 136.57643547909964, 136.69310214576632, 136.809768812433, 136.92643547909967, 137.04310214576634, 137.15976881243301, 137.2764354790997, 137.39310214576636, 137.50976881243304, 137.6264354790997, 137.7431021457664, 137.85976881243306, 137.97643547909973, 138.0931021457664, 138.20976881243308, 138.32643547909976, 138.44310214576643, 138.67643547909975]	2021_Jan_28_1700	59.951687644901334	1	1
13	24	FALSE	NA	v	['V', 'C', 'P', 'N', 'K', 'B', 'U', 'S', 'T', 'X', 'A', 'J', 'M', 'Z', 'E', 'W']	[2245, 829, 1456, 1335, 1122, 760, 2059, 1731, 1888, 4000, 697, 1029, 1224, 2911, 904, 2448]	10	Present	NA	NA	PRESENT	0.34582996368408203	140.66399693489075	142.66521382331848	143.48195695877075	143.8323049545288	146.78030514717102	4.115091323852539	[140.6822202205658, 140.79882216453552, 141.78373408317566, 141.9501781463623, 142.7009780406952, 142.81784915924072, 142.93469715118408, 143.0512251853943, 143.16818714141846, 143.2847990989685, 143.40194511413574, 143.51869106292725, 143.63526916503906, 143.75218200683594, 143.86887407302856, 143.98574113845825, 144.1026110649109, 144.21974301338196, 144.33614802360535, 144.4528992176056, 144.55281519889832, 144.78030514717102]	[140.67643547909975, 140.79310214576643, 141.77610214576643, 141.94280214576642, 142.69280214576642, 142.8094688124331, 142.92613547909977, 143.04280214576644, 143.15946881243312, 143.2761354790998, 143.39280214576647, 143.50946881243314, 143.62613547909982, 143.7428021457665, 143.85946881243316, 143.97613547909984, 144.0928021457665, 144.2094688124332, 144.32613547909986, 144.44280214576654, 144.5594688124332, 144.79280214576653]	2021_Jan_28_1700	59.951687644901334	1	1
13	25	FALSE	NV	v	['V', 'T', 'S', 'P', 'U', 'G', 'H', 'J', 'M', 'A', 'X', 'Y', 'W', 'R', 'E', 'N']	[2245, 1888, 1731, 1456, 2059, 944, 986, 1029, 1224, 697, 4000, 2670, 2448, 1587, 904, 1335]	11	Present	NA	NA	PRESENT	0.846203088760376	146.77033400535583	148.78087997436523	149.71489095687866	150.0648159980774	152.89667105674744	4.115791082382202	[146.788556098938, 146.9055371284485, 147.8897840976715, 148.05682921409607, 148.80740404129028, 148.9241762161255, 149.0411341190338, 149.15772104263306, 149.27476000785828, 149.39130115509033, 149.50829100608826, 149.62497401237488, 149.74183320999146, 149.85856819152832, 149.97560715675354, 150.09214115142822, 150.2088930606842, 150.32586121559143, 150.44242405891418, 150.55946707725525, 150.67625212669373, 150.89667105674744]	[146.79280214576653, 146.9094688124332, 147.8924688124332, 148.0591688124332, 148.8091688124332, 148.92583547909987, 149.04250214576655, 149.15916881243322, 149.2758354790999, 149.39250214576657, 149.50916881243324, 149.62583547909992, 149.7425021457666, 149.85916881243327, 149.97583547909994, 150.09250214576662, 150.2091688124333, 150.32583547909996, 150.44250214576664, 150.5591688124333, 150.6758354791, 150.9091688124333]	2021_Jan_28_1700	59.951687644901334	1	1
13	26	FALSE	NA	v	['E', 'Z', 'C', 'T', 'B', 'V', 'M', 'X', 'H', 'G', 'U', 'S', 'K', 'J', 'A', 'W']	[904, 2911, 829, 1888, 760, 2245, 1224, 4000, 986, 944, 2059, 1731, 1122, 1029, 697, 2448]	8	Present	NA	NA	PRESENT	0.2107059955596924	152.89349794387817	154.8979308605194	155.4830858707428	155.8314118385315	159.01303720474243	4.1151063442230225	[152.91172099113464, 153.02849817276, 154.0130341053009, 154.17981505393982, 154.93064999580383, 155.04743099212646, 155.1641240119934, 155.2810571193695, 155.39794516563416, 155.51444101333618, 155.63150715827942, 155.74827003479004, 155.864981174469, 155.98192715644836, 156.0985610485077, 156.21543407440186, 156.33219718933105, 156.44887709617615, 156.56586813926697, 156.68263220787048, 156.7994680404663, 157.01303815841675]	[152.9091688124333, 153.02583547909998, 154.0088354791, 154.17553547909998, 154.92553547909998, 155.04220214576665, 155.15886881243333, 155.2755354791, 155.39220214576667, 155.50886881243335, 155.62553547910002, 155.7422021457667, 155.85886881243337, 155.97553547910005, 156.09220214576672, 156.2088688124334, 156.32553547910007, 156.44220214576674, 156.55886881243342, 156.6755354791001, 156.79220214576677, 157.02553547910009]	2021_Jan_28_1700	59.951687644901334	1	1
13	27	FALSE	NA	v	['B', 'T', 'M', 'R', 'Y', 'A', 'J', 'V', 'X', 'P', 'K', 'N', 'W', 'Z', 'C', 'G']	[760, 1888, 1224, 1587, 2670, 697, 1029, 2245, 4000, 1456, 1122, 1335, 2448, 2911, 829, 944]	9	Present	NA	NA	PRESENT	0.3200509548187256	159.01674795150757	161.01378893852234	161.71439790725708	162.06437802314758	165.12940406799316	4.115615129470825	[159.03497004508972, 159.13499903678894, 160.11940217018127, 160.28632712364197, 161.05382704734802, 161.1538050174713, 161.2705681324005, 161.38736414909363, 161.5041642189026, 161.62127900123596, 161.7377851009369, 161.85460114479065, 161.97133612632751, 162.0881941318512, 162.20496606826782, 162.32175612449646, 162.43884015083313, 162.55542612075806, 162.67232513427734, 162.78897619247437, 162.90580415725708, 163.12940406799316]	[159.02553547910009, 159.14220214576676, 160.12520214576676, 160.29190214576676, 161.04190214576676, 161.15856881243343, 161.2752354791001, 161.39190214576678, 161.50856881243345, 161.62523547910013, 161.7419021457668, 161.85856881243348, 161.97523547910015, 162.09190214576682, 162.2085688124335, 162.32523547910017, 162.44190214576685, 162.55856881243352, 162.6752354791002, 162.79190214576687, 162.90856881243354, 163.14190214576686]	2021_Jan_28_1700	59.951687644901334	1	1
13	28	FALSE	NN	v	['R', 'J', 'G', 'C', 'Z', 'N', 'E', 'T', 'V', 'A', 'P', 'B', 'U', 'S', 'K', 'W']	[1587, 1029, 944, 829, 2911, 1335, 904, 1888, 2245, 697, 1456, 760, 2059, 1731, 1122, 2448]	13	Absent	NA	NA	ABSENT	0.3645510673522949	165.12318587303162	167.13022780418396	168.29747080802915	168.64754700660706	171.24577116966248	4.115543365478516	[165.14140820503235, 165.25824618339539, 166.2425720691681, 166.40957903862, 167.1603901386261, 167.27721619606018, 167.39398217201233, 167.51066422462463, 167.62764716148376, 167.74419403076172, 167.8611490726471, 167.97797012329102, 168.09455800056458, 168.21140599250793, 168.32817220687866, 168.4449200630188, 168.56176114082336, 168.67875599861145, 168.7954421043396, 168.91214418411255, 169.02910208702087, 169.2457721233368]	[165.14190214576686, 165.25856881243354, 166.24156881243354, 166.40826881243353, 167.15826881243353, 167.2749354791002, 167.39160214576688, 167.50826881243356, 167.62493547910023, 167.7416021457669, 167.85826881243358, 167.97493547910025, 168.09160214576693, 168.2082688124336, 168.32493547910028, 168.44160214576695, 168.55826881243362, 168.6749354791003, 168.79160214576697, 168.90826881243365, 169.02493547910032, 169.25826881243364]	2021_Jan_28_1700	59.951687644901334	1	1
13	29	FALSE	NA	v	['C', 'N', 'J', 'E', 'A', 'S', 'H', 'K', 'G', 'B', 'Y', 'R', 'X', 'P', 'Z', 'V']	[829, 1335, 1029, 904, 697, 1731, 986, 1122, 944, 760, 2670, 1587, 4000, 1456, 2911, 2245]	13	Present	NA	NA	PRESENT	0.5937619209289551	171.24651193618774	173.24687099456787	174.41359496116638	174.7636239528656	177.3621380329132	4.115267038345337	[171.26474404335022, 171.38159918785095, 172.36621022224426, 172.5325620174408, 173.28346920013428, 173.40037608146667, 173.51696109771729, 173.63401103019714, 173.75063800811768, 173.86759614944458, 173.9843339920044, 174.10089421272278, 174.21805620193481, 174.3347191810608, 174.4513771533966, 174.56837701797485, 174.68514704704285, 174.80170822143555, 174.91870522499084, 175.03532600402832, 175.13551807403564, 175.3621380329132]	[171.25826881243364, 171.37493547910032, 172.35793547910032, 172.5246354791003, 173.2746354791003, 173.39130214576699, 173.50796881243366, 173.62463547910033, 173.741302145767, 173.85796881243368, 173.97463547910036, 174.09130214576703, 174.2079688124337, 174.32463547910038, 174.44130214576705, 174.55796881243373, 174.6746354791004, 174.79130214576708, 174.90796881243375, 175.02463547910043, 175.1413021457671, 175.37463547910042]	2021_Jan_28_1700	59.951687644901334	1	1
13	30	FALSE	NV	v	['M', 'B', 'V', 'S', 'N', 'R', 'Z', 'A', 'U', 'G', 'T', 'J', 'X', 'P', 'E', 'C']	[1224, 760, 2245, 1731, 1335, 1587, 2911, 697, 2059, 944, 1888, 1029, 4000, 1456, 904, 829]	13	Present	NA	NA	PRESENT	0.3101201057434082	177.35301303863525	179.36316680908203	180.5299530029297	180.88034081459045	183.4785041809082	4.115337371826172	[177.37123608589172, 177.48786807060242, 178.47232913970947, 178.6391270160675, 179.38990807533264, 179.50675415992737, 179.6236391067505, 179.74027919769287, 179.85707807540894, 179.97387099266052, 180.09088611602783, 180.20755815505981, 180.32422518730164, 180.4411380290985, 180.5578532218933, 180.67473316192627, 180.7916281223297, 180.90845203399658, 181.02500915527344, 181.1419050693512, 181.25869417190552, 181.47850513458252]	[177.37463547910042, 177.4913021457671, 178.4743021457671, 178.6410021457671, 179.3910021457671, 179.50766881243376, 179.62433547910044, 179.7410021457671, 179.8576688124338, 179.97433547910046, 180.09100214576713, 180.2076688124338, 180.32433547910048, 180.44100214576716, 180.55766881243383, 180.6743354791005, 180.79100214576718, 180.90766881243385, 181.02433547910053, 181.1410021457672, 181.25766881243388, 181.4910021457672]	2021_Jan_28_1700	59.951687644901334	1	1
13	31	FALSE	NV	v	['Z', 'G', 'T', 'E', 'K', 'B', 'M', 'A', 'P', 'X', 'R', 'J', 'H', 'N', 'C', 'U']	[2911, 944, 1888, 904, 1122, 760, 1224, 697, 1456, 4000, 1587, 1029, 986, 1335, 829, 2059]	10	Present	NA	NA	PRESENT	0.2827460765838623	183.47642183303833	185.47949385643005	186.29640102386475	186.6465198993683	189.59487009048465	4.115376234054565	[183.49464511871338, 183.6111900806427, 184.5955491065979, 184.76230216026306, 185.51315712928772, 185.63000202178955, 185.7467920780182, 185.86361122131348, 185.98032999038696, 186.09699511528015, 186.21378016471863, 186.33078718185425, 186.4473910331726, 186.56425404548645, 186.68091011047363, 186.79790711402893, 186.91485619544983, 187.03149700164795, 187.1481580734253, 187.26522517204285, 187.38178610801697, 187.59487009048462]	[183.4910021457672, 183.60766881243387, 184.59066881243388, 184.75736881243387, 185.50736881243387, 185.62403547910054, 185.74070214576722, 185.8573688124339, 185.97403547910056, 186.09070214576724, 186.2073688124339, 186.3240354791006, 186.44070214576726, 186.55736881243394, 186.6740354791006, 186.79070214576728, 186.90736881243396, 187.02403547910063, 187.1407021457673, 187.25736881243398, 187.37403547910066, 187.60736881243398]	2021_Jan_28_1700	59.951687644901334	1	1
13	32	FALSE	NV	v	['V', 'A', 'M', 'K', 'S', 'N', 'T', 'W', 'E', 'U', 'C', 'X', 'R', 'B', 'G', 'J']	[2245, 697, 1224, 1122, 1731, 1335, 1888, 2448, 904, 2059, 829, 4000, 1587, 760, 944, 1029]	12	Present	NA	NA	PRESENT	0.3283820152282715	189.58260297775269	191.5957670211792	192.64621901512143	192.99610686302185	195.71123814582825	4.115471124649048	[189.60082507133484, 189.71756100654602, 190.7021780014038, 190.8686821460724, 191.6366322040558, 191.7363941669464, 191.85313415527344, 191.96983909606934, 192.0867030620575, 192.20349621772766, 192.3202781677246, 192.43718719482422, 192.55388116836548, 192.6708061695099, 192.7875680923462, 192.90438413619995, 193.02108216285706, 193.13797616958618, 193.2545931339264, 193.3716700077057, 193.48827815055847, 193.71123909950256]	[189.60736881243398, 189.72403547910065, 190.70703547910065, 190.87373547910065, 191.62373547910065, 191.74040214576732, 191.857068812434, 191.97373547910067, 192.09040214576734, 192.20706881243402, 192.3237354791007, 192.44040214576737, 192.55706881243404, 192.6737354791007, 192.7904021457674, 192.90706881243406, 193.02373547910074, 193.1404021457674, 193.25706881243408, 193.37373547910076, 193.49040214576743, 193.72373547910075]	2021_Jan_28_1700	59.951687644901334	1	1
13	33	FALSE	NN	v	['N', 'K', 'V', 'U', 'T', 'S', 'R', 'J', 'E', 'Z', 'G', 'P', 'W', 'Y', 'C', 'M']	[1335, 1122, 2245, 2059, 1888, 1731, 1587, 1029, 904, 2911, 944, 1456, 2448, 2670, 829, 1224]	14	Absent	NA	NA	ABSENT	0.32480812072753906	195.70599484443665	197.71198892593384	198.99602389335632	199.34587001800537	201.82760405540463	4.115615129470825	[195.7242181301117, 195.8408281803131, 196.82513618469238, 196.9921112060547, 197.7429051399231, 197.8595950603485, 197.97642016410828, 198.0932581424713, 198.21038603782654, 198.32684421539307, 198.4435920715332, 198.56044507026672, 198.67702317237854, 198.79408717155457, 198.91080808639526, 199.02766013145447, 199.14424204826355, 199.26125502586365, 199.37796902656555, 199.49488401412964, 199.6113600730896, 199.82760405540466]	[195.72373547910075, 195.84040214576743, 196.82340214576743, 196.99010214576742, 197.74010214576742, 197.8567688124341, 197.97343547910077, 198.09010214576745, 198.20676881243412, 198.3234354791008, 198.44010214576747, 198.55676881243414, 198.67343547910082, 198.7901021457675, 198.90676881243417, 199.02343547910084, 199.14010214576751, 199.2567688124342, 199.37343547910086, 199.49010214576754, 199.6067688124342, 199.84010214576753]	2021_Jan_28_1700	59.951687644901334	1	1
13	34	FALSE	NV	v	['E', 'W', 'J', 'S', 'C', 'M', 'A', 'Y', 'T', 'Z', 'X', 'U', 'R', 'V', 'G', 'N']	[904, 2448, 1029, 1731, 829, 1224, 697, 2670, 1888, 2911, 4000, 2059, 1587, 2245, 944, 1335]	11	Present	NA	NA	PRESENT	0.29808688163757324	201.82922196388245	203.8284158706665	204.7623369693756	205.1122579574585	207.9439721107483	4.115556240081787	[201.84744501113892, 201.96404004096985, 202.94840216636658, 203.11526918411255, 203.86593914031982, 203.98286819458008, 204.09970211982727, 204.21649599075317, 204.33300614356995, 204.4498851299286, 204.56682801246643, 204.68344020843506, 204.80037021636963, 204.9170641899109, 205.03388905525208, 205.15070915222168, 205.26759910583496, 205.3844029903412, 205.50111317634583, 205.61779403686523, 205.71790313720703, 205.94397115707397]	[201.84010214576753, 201.9567688124342, 202.9397688124342, 203.1064688124342, 203.8564688124342, 203.97313547910088, 204.08980214576755, 204.20646881243422, 204.3231354791009, 204.43980214576757, 204.55646881243425, 204.67313547910092, 204.7898021457676, 204.90646881243427, 205.02313547910094, 205.13980214576762, 205.2564688124343, 205.37313547910097, 205.48980214576764, 205.60646881243431, 205.723135479101, 205.9564688124343]	2021_Jan_28_1700	59.951687644901334	1	1
13	35	FALSE	NN	v	['Y', 'H', 'C', 'U', 'W', 'P', 'E', 'K', 'G', 'J', 'T', 'Z', 'M', 'B', 'N', 'A']	[2670, 986, 829, 2059, 2448, 1456, 904, 1122, 944, 1029, 1888, 2911, 1224, 760, 1335, 697]	9	Absent	NA	NA	ABSENT	0.23071908950805664	207.9353988170624	209.9449079036713	210.645231962204	210.99524402618408	214.0603380203247	4.115430116653442	[207.9536211490631, 208.07059121131897, 209.05477714538574, 209.221773147583, 209.9724771976471, 210.08948707580566, 210.20605206489563, 210.32287907600403, 210.43963813781738, 210.5565001964569, 210.67324900627136, 210.79011702537537, 210.90684413909912, 211.0236291885376, 211.14029502868652, 211.25702619552612, 211.37394499778748, 211.49095821380615, 211.60787510871887, 211.72441911697388, 211.8415241241455, 212.0603380203247]	[207.9564688124343, 208.07313547910098, 209.056135479101, 209.22283547910098, 209.97283547910098, 210.08950214576765, 210.20616881243433, 210.322835479101, 210.43950214576768, 210.55616881243435, 210.67283547910102, 210.7895021457677, 210.90616881243437, 211.02283547910105, 211.13950214576772, 211.2561688124344, 211.37283547910107, 211.48950214576774, 211.60616881243442, 211.7228354791011, 211.83950214576777, 212.0728354791011]	2021_Jan_28_1700	59.951687644901334	1	1
13	36	FALSE	VA	v	['E', 'T', 'Y', 'W', 'V', 'S', 'B', 'K', 'P', 'M', 'surprise', 'G', 'C', 'X', 'A', 'Z']	[904, 1888, 2670, 2448, 2245, 1731, 760, 1122, 1456, 1224, 'stimAuditory/all_stimAuditory/221.wav', 944, 829, 4000, 697, 2911]	14	Present	NA	stimVisual/all_stimVisual/200.jpg	PRESENT	0.4590771198272705	214.0586278438568	216.06126189231873	217.34491086006165	217.6951220035553	220.1767041683197	4.115442276000977	[214.07685112953186, 214.19401621818542, 215.17830109596252, 215.3449730873108, 216.0957372188568, 216.21260619163513, 216.32910919189453, 216.4461510181427, 216.5633041858673, 216.67955112457275, 216.79634618759155, 216.91324019432068, 217.02998900413513, 217.1467251777649, 217.2634711265564, 217.3804531097412, 217.4971890449524, 217.61385202407837, 217.73074102401733, 217.84742903709412, 217.96436715126038, 218.17670512199402]	[214.0728354791011, 214.18950214576776, 215.17250214576777, 215.33920214576776, 216.08920214576776, 216.20586881243443, 216.3225354791011, 216.43920214576778, 216.55586881243445, 216.67253547910113, 216.7892021457678, 216.90586881243448, 217.02253547910115, 217.13920214576783, 217.2558688124345, 217.37253547910117, 217.48920214576785, 217.60586881243452, 217.7225354791012, 217.83920214576787, 217.95586881243455, 218.18920214576787]	2021_Jan_28_1700	59.951687644901334	1	1
13	37	FALSE	NV	v	['B', 'J', 'N', 'P', 'K', 'V', 'M', 'G', 'C', 'T', 'A', 'Y', 'R', 'X', 'E', 'W']	[760, 1029, 1335, 1456, 1122, 2245, 1224, 944, 829, 1888, 697, 2670, 1587, 4000, 904, 2448]	14	Present	NA	NA	PRESENT	0.3444490432739258	220.1650149822235	222.17793583869937	223.46164298057556	223.8113758563995	226.29307103157043	4.115135192871094	[220.18323707580566, 220.30005407333374, 221.2843451499939, 221.45149517059326, 222.21919918060303, 222.31886410713196, 222.43566608428955, 222.55252313613892, 222.66935515403748, 222.78600215911865, 222.902761220932, 223.01965308189392, 223.13662099838257, 223.25323009490967, 223.36989903450012, 223.4868221282959, 223.60370516777039, 223.72053718566895, 223.83709406852722, 223.95414519309998, 224.07094717025757, 224.29307222366333]	[220.18920214576787, 220.30586881243454, 221.28886881243454, 221.45556881243454, 222.20556881243454, 222.3222354791012, 222.43890214576788, 222.55556881243456, 222.67223547910123, 222.7889021457679, 222.90556881243458, 223.02223547910125, 223.13890214576793, 223.2555688124346, 223.37223547910128, 223.48890214576795, 223.60556881243463, 223.7222354791013, 223.83890214576797, 223.95556881243465, 224.07223547910132, 224.30556881243464]	2021_Jan_28_1700	59.951687644901334	1	1
13	38	FALSE	NV	v	['U', 'K', 'H', 'B', 'M', 'S', 'W', 'P', 'T', 'A', 'X', 'C', 'R', 'J', 'Y', 'E']	[2059, 1122, 986, 760, 1224, 1731, 2448, 1456, 1888, 697, 4000, 829, 1587, 1029, 2670, 904]	11	Present	NA	NA	PRESENT	0.3808751106262207	226.28822898864743	228.29415202140808	229.22785592079163	229.57747888565063	232.40943813323975	4.115286111831665	[226.30645203590393, 226.42321705818176, 227.40752816200256, 227.57435607910156, 228.32525515556335, 228.44215607643127, 228.55888199806213, 228.67567706108093, 228.79245400428772, 228.90934109687805, 229.0259530544281, 229.14294600486755, 229.25960111618042, 229.3763301372528, 229.49322819709778, 229.60998702049255, 229.72681713104248, 229.84371209144592, 229.9603931903839, 230.0772521495819, 230.19428515434265, 230.40943717956543]	[226.30556881243464, 226.42223547910132, 227.40523547910132, 227.5719354791013, 228.3219354791013, 228.438602145768, 228.55526881243466, 228.67193547910134, 228.788602145768, 228.90526881243468, 229.02193547910136, 229.13860214576803, 229.2552688124347, 229.37193547910138, 229.48860214576806, 229.60526881243473, 229.7219354791014, 229.83860214576808, 229.95526881243475, 230.07193547910143, 230.1886021457681, 230.42193547910142]	2021_Jan_28_1700	59.951687644901334	1	1
13	39	FALSE	VV	v	['Y', 'Z', 'U', 'R', 'P', 'K', 'surprise', 'B', 'C', 'X', 'S', 'T', 'J', 'A', 'N', 'M']	[2670, 2911, 2059, 1587, 1456, 1122, 'stimAuditory/all_stimAuditory/103.wav', 760, 829, 4000, 1731, 1888, 1029, 697, 1335, 1224]	10	Present	NA	stimVisual/all_stimVisual/100.jpg	PRESENT	0.3784511089324951	232.4117398262024	234.41042685508728	235.22765493392944	235.57741594314575	238.52580404281616	4.115377187728882	[232.42996215820312, 232.5465440750122, 233.51402521133423, 233.6808202266693, 234.4484031200409, 234.56523299217224, 234.6821072101593, 234.79906702041626, 234.915509223938, 235.03247618675232, 235.14930510520935, 235.26616501808167, 235.38288021087646, 235.49955701828003, 235.61646819114685, 235.73347115516663, 235.83313918113708, 235.94994020462036, 236.06673216819763, 236.20068502426147, 236.3005781173706, 236.52580404281616]	[232.42193547910142, 232.5386021457681, 233.5216021457681, 233.6883021457681, 234.4383021457681, 234.55496881243477, 234.67163547910144, 234.7883021457681, 234.9049688124348, 235.02163547910146, 235.13830214576814, 235.2549688124348, 235.37163547910149, 235.48830214576816, 235.60496881243483, 235.7216354791015, 235.83830214576818, 235.95496881243486, 236.07163547910153, 236.1883021457682, 236.30496881243488, 236.5383021457682]	2021_Jan_28_1700	59.951687644901334	1	1
13	40	FALSE	NA	v	['T', 'B', 'P', 'E', 'Y', 'R', 'W', 'A', 'N', 'U', 'G', 'Z', 'X', 'S', 'M', 'V']	[1888, 760, 1456, 904, 2670, 1587, 2448, 697, 1335, 2059, 944, 2911, 4000, 1731, 1224, 2245]	13	Present	NA	NA	PRESENT	0.2947700023651123	238.51811003685	240.5265338420868	241.69385600090027	242.04389882087708	244.64217114448547	4.115637302398682	[238.5363311767578, 238.65297722816467, 239.63714408874512, 239.8040521144867, 240.5548791885376, 240.67186999320984, 240.7885251045227, 240.90527606010437, 241.02214217185974, 241.13908219337463, 241.25570702552795, 241.37270212173462, 241.4892110824585, 241.60656309127808, 241.72284722328186, 241.8397991657257, 241.95628309249878, 242.07338500022888, 242.19013118743896, 242.30684614181519, 242.4235541820526, 242.64217114448547]	[238.5383021457682, 238.65496881243487, 239.63796881243488, 239.80466881243487, 240.55466881243487, 240.67133547910154, 240.78800214576822, 240.9046688124349, 241.02133547910157, 241.13800214576824, 241.25466881243491, 241.3713354791016, 241.48800214576826, 241.60466881243494, 241.7213354791016, 241.8380021457683, 241.95466881243496, 242.07133547910163, 242.1880021457683, 242.30466881243498, 242.42133547910166, 242.65466881243498]	2021_Jan_28_1700	59.951687644901334	1	1
13	41	FALSE	NN	v	['G', 'W', 'A', 'Z', 'K', 'N', 'S', 'E', 'B', 'V', 'R', 'P', 'H', 'T', 'U', 'J']	[944, 2448, 697, 2911, 1122, 1335, 1731, 904, 760, 2245, 1587, 1456, 986, 1888, 2059, 1029]	11	Absent	NA	NA	ABSENT	0.3085448741912842	244.64101696014404	246.64291501045227	247.57670998573303	247.9268579483032	250.7585380077362	4.1156229972839355	[244.6592400074005, 244.77610206604004, 245.7605299949646, 245.927579164505, 246.67809200286865, 246.79508519172668, 246.9116621017456, 247.0287470817566, 247.14536714553833, 247.26222801208496, 247.37883615493774, 247.49569702148438, 247.61233711242676, 247.72931218147278, 247.8460500240326, 247.96287512779236, 248.07955503463745, 248.19648122787476, 248.3132882118225, 248.43018412590027, 248.52998208999634, 248.7585391998291]	[244.65466881243498, 244.77133547910165, 245.75433547910166, 245.92103547910165, 246.67103547910165, 246.78770214576832, 246.904368812435, 247.02103547910167, 247.13770214576834, 247.25436881243502, 247.3710354791017, 247.48770214576837, 247.60436881243504, 247.72103547910172, 247.8377021457684, 247.95436881243506, 248.07103547910174, 248.1877021457684, 248.3043688124351, 248.42103547910176, 248.53770214576844, 248.77103547910176]	2021_Jan_28_1700	59.951687644901334	1	1
13	42	FALSE	AV	v	['C', 'V', 'R', 'U', 'surprise', 'M', 'A', 'X', 'H', 'T', 'W', 'S', 'E', 'Y', 'G', 'J']	[829, 2245, 1587, 2059, 'stimAuditory/all_stimAuditory/202.wav', 1224, 697, 4000, 986, 1888, 2448, 1731, 904, 2670, 944, 1029]	8	Present	stimAuditory/all_stimAuditory/210.wav	stimVisual/all_stimVisual/203.jpg	ABSENT	0.24048495292663577	250.74766087532043	252.75950598716736	253.343209028244	253.6933138370514	256.8749051094055	4.115399122238159	[250.76588416099548, 250.8825981616974, 251.86729311943054, 252.03384518623352, 252.80146503448486, 252.9014630317688, 253.01821303367615, 253.13501715660095, 253.26838302612305, 253.36856603622437, 253.48551321029663, 253.60229301452637, 253.7188971042633, 253.835844039917, 253.95244717597961, 254.06934714317322, 254.18616008758545, 254.30302000045776, 254.4196491241455, 254.53633308410645, 254.65324711799622, 254.87490510940552]	[250.77103547910176, 250.88770214576843, 251.87070214576843, 252.03740214576843, 252.78740214576843, 252.9040688124351, 253.02073547910177, 253.13740214576845, 253.25406881243512, 253.3707354791018, 253.48740214576847, 253.60406881243514, 253.72073547910182, 253.8374021457685, 253.95406881243517, 254.07073547910184, 254.18740214576852, 254.3040688124352, 254.42073547910186, 254.53740214576854, 254.6540688124352, 254.88740214576853]	2021_Jan_28_1700	59.951687644901334	1	1
13	43	FALSE	NV	v	['U', 'T', 'S', 'Z', 'G', 'R', 'B', 'A', 'M', 'Y', 'X', 'H', 'C', 'E', 'J', 'N']	[2059, 1888, 1731, 2911, 944, 1587, 760, 697, 1224, 2670, 4000, 986, 829, 904, 1029, 1335]	11	Present	NA	NA	PRESENT	0.2611510753631592	256.87063694000244	258.87582182884216	259.80960297584534	260.1596348285675	262.99127101898193	4.1154491901397705	[256.8888602256775, 257.0057611465454, 257.99011421203613, 258.1572551727295, 258.9077031612396, 259.02470421791077, 259.1415810585022, 259.2582790851593, 259.3749461174011, 259.4916491508484, 259.60857820510864, 259.72554111480713, 259.8422040939331, 259.9589982032776, 260.0758202075958, 260.1925530433655, 260.30932903289795, 260.4259250164032, 260.5427601337433, 260.65950322151184, 260.77664518356323, 260.99127101898193]	[256.88740214576853, 257.0040688124352, 257.9870688124352, 258.1537688124352, 258.9037688124352, 259.0204354791019, 259.13710214576855, 259.2537688124352, 259.3704354791019, 259.4871021457686, 259.60376881243525, 259.7204354791019, 259.8371021457686, 259.95376881243527, 260.07043547910195, 260.1871021457686, 260.3037688124353, 260.42043547910197, 260.53710214576864, 260.6537688124353, 260.770435479102, 261.00376881243534]	2021_Jan_28_1700	59.951687644901334	1	1
13	44	FALSE	NV	v	['K', 'P', 'C', 'U', 'Z', 'H', 'G', 'V', 'B', 'M', 'S', 'E', 'Y', 'X', 'J', 'T']	[1122, 1456, 829, 2059, 2911, 986, 944, 2245, 760, 1224, 1731, 904, 2670, 4000, 1029, 1888]	14	Present	NA	NA	PRESENT	0.2745399475097656	262.99436688423157	264.9920599460602	266.2760670185089	266.62599992752075	269.10763812065125	4.1155781745910645	[263.0125892162323, 263.1289150714874, 264.09650015830994, 264.26337599754333, 265.03098607063293, 265.14792919158936, 265.2645661830902, 265.38147807121277, 265.4981451034546, 265.61486315727234, 265.7320291996002, 265.83170104026794, 265.96542716026306, 266.06534910202026, 266.1820170879364, 266.2988181114197, 266.4156742095947, 266.5324511528015, 266.6492831707001, 266.7660620212555, 266.8828730583191, 267.10763812065125]	[263.00376881243534, 263.120435479102, 264.103435479102, 264.270135479102, 265.020135479102, 265.1368021457687, 265.25346881243536, 265.37013547910203, 265.4868021457687, 265.6034688124354, 265.72013547910205, 265.83680214576873, 265.9534688124354, 266.0701354791021, 266.18680214576875, 266.3034688124354, 266.4201354791021, 266.5368021457688, 266.65346881243545, 266.7701354791021, 266.8868021457688, 267.12013547910215]	2021_Jan_28_1700	59.951687644901334	1	1
13	45	FALSE	NA	v	['Z', 'P', 'A', 'Y', 'C', 'S', 'R', 'V', 'W', 'J', 'H', 'X', 'M', 'E', 'U', 'K']	[2911, 1456, 697, 2670, 829, 1731, 1587, 2245, 2448, 1029, 986, 4000, 1224, 904, 2059, 1122]	12	Present	NA	NA	PRESENT	0.24719905853271484	269.1006510257721	271.1086459159851	272.1589238643646	272.5087699890137	275.22400403022766	4.115358114242554	[269.11887407302856, 269.2353901863098, 270.2201421260834, 270.3869831562042, 271.137335062027, 271.25441122055054, 271.37102699279785, 271.48793721199036, 271.60454416275024, 271.7218542098999, 271.8381609916687, 271.95496106147766, 272.07164311408997, 272.1885120868683, 272.3053472042084, 272.4220130443573, 272.5391640663147, 272.65556812286377, 272.7724950313568, 272.88946509361267, 273.00615310668945, 273.2240061759949]	[269.12013547910215, 269.2368021457688, 270.2198021457688, 270.3865021457688, 271.1365021457688, 271.2531688124355, 271.36983547910216, 271.48650214576884, 271.6031688124355, 271.7198354791022, 271.83650214576886, 271.95316881243554, 272.0698354791022, 272.1865021457689, 272.30316881243556, 272.41983547910223, 272.5365021457689, 272.6531688124356, 272.76983547910226, 272.88650214576893, 273.0031688124356, 273.23650214576895]	2021_Jan_28_1700	59.951687644901334	1	1
13	46	FALSE	NN	v	['M', 'R', 'U', 'N', 'T', 'W', 'C', 'Y', 'P', 'B', 'G', 'Z', 'H', 'A', 'J', 'E']	[1224, 1587, 2059, 1335, 1888, 2448, 829, 2670, 1456, 760, 944, 2911, 986, 697, 1029, 904]	9	Absent	NA	NA	ABSENT	0.4606590270996094	275.2235498428345	277.22473192214966	277.92516803741455	278.2755649089813	281.34037017822266	4.115638256072998	[275.2417731285095, 275.3587820529938, 276.34297013282776, 276.50981521606445, 277.2605490684509, 277.37734818458557, 277.4942150115967, 277.6108651161194, 277.7277891635895, 277.8446559906006, 277.9614260196686, 278.0784041881561, 278.1949861049652, 278.31195306777954, 278.4286391735077, 278.5454640388489, 278.6622111797333, 278.7791221141815, 278.8956890106201, 279.0124180316925, 279.11254501342773, 279.340371131897]	[275.23650214576895, 275.3531688124356, 276.33616881243563, 276.5028688124356, 277.2528688124356, 277.3695354791023, 277.48620214576897, 277.60286881243564, 277.7195354791023, 277.836202145769, 277.95286881243567, 278.06953547910234, 278.186202145769, 278.3028688124357, 278.41953547910236, 278.53620214576904, 278.6528688124357, 278.7695354791024, 278.88620214576906, 279.00286881243574, 279.1195354791024, 279.35286881243576]	2021_Jan_28_1700	59.951687644901334	1	1
13	47	FALSE	VA	v	['M', 'Z', 'H', 'U', 'E', 'J', 'W', 'V', 'Y', 'surprise', 'P', 'K', 'X', 'C', 'A', 'R']	[1224, 2911, 986, 2059, 904, 1029, 2448, 2245, 2670, 'stimAuditory/all_stimAuditory/203.wav', 1456, 1122, 4000, 829, 697, 1587]	13	Present	NA	stimVisual/all_stimVisual/119.jpg	PRESENT	0.2890610694885254	281.3301899433136	283.34110283851624	284.5083990097046	284.8586428165436	287.4567379951477	4.11563515663147	[281.34841299057007, 281.46498918533325, 282.4495801925659, 282.6167690753937, 283.36700201034546, 283.48382019996643, 283.60055112838745, 283.7173840999603, 283.8341851234436, 283.9509871006012, 284.0678210258484, 284.1845750808716, 284.3015670776367, 284.43519115448, 284.5349950790405, 284.6517720222473, 284.7685730457306, 284.88543820381165, 285.0021810531616, 285.1189351081848, 285.23583006858826, 285.4567379951477]	[281.35286881243576, 281.46953547910243, 282.45253547910244, 282.61923547910243, 283.36923547910243, 283.4859021457691, 283.6025688124358, 283.71923547910245, 283.8359021457691, 283.9525688124358, 284.0692354791025, 284.18590214576915, 284.3025688124358, 284.4192354791025, 284.53590214576917, 284.65256881243585, 284.7692354791025, 284.8859021457692, 285.00256881243587, 285.11923547910254, 285.2359021457692, 285.46923547910257]	2021_Jan_28_1700	59.951687644901334	1	1
13	48	FALSE	NA	v	['W', 'E', 'R', 'S', 'B', 'K', 'Z', 'X', 'V', 'U', 'P', 'C', 'T', 'J', 'N', 'Y']	[2448, 904, 1587, 1731, 760, 1122, 2911, 4000, 2245, 2059, 1456, 829, 1888, 1029, 1335, 2670]	8	Present	NA	NA	PRESENT	0.14153289794921875	287.45316982269287	289.4577360153198	290.0413649082184	290.3917329311371	293.5731041431427	4.115368127822876	[287.4713931083679, 287.58840322494507, 288.5728671550751, 288.7396922111511, 289.49036717414856, 289.60724902153015, 289.7238070964813, 289.84083819389343, 289.95761013031006, 290.0742790699005, 290.1912820339203, 290.30803322792053, 290.4246702194214, 290.541451215744, 290.6585350036621, 290.77512407302856, 290.8919072151184, 291.0086421966553, 291.1254711151123, 291.2422080039978, 291.35909509658813, 291.573105096817]	[287.46923547910257, 287.58590214576924, 288.56890214576924, 288.73560214576923, 289.48560214576923, 289.6022688124359, 289.7189354791026, 289.83560214576926, 289.95226881243593, 290.0689354791026, 290.1856021457693, 290.30226881243595, 290.41893547910263, 290.5356021457693, 290.652268812436, 290.76893547910265, 290.8856021457693, 291.002268812436, 291.1189354791027, 291.23560214576935, 291.352268812436, 291.58560214576937]	2021_Jan_28_1700	59.951687644901334	1	1
13	49	FALSE	NA	v	['B', 'Y', 'J', 'S', 'Z', 'V', 'M', 'G', 'X', 'C', 'H', 'K', 'N', 'R', 'T', 'W']	[760, 2670, 1029, 1731, 2911, 2245, 1224, 944, 4000, 829, 986, 1122, 1335, 1587, 1888, 2448]	9	Present	NA	NA	PRESENT	0.32289791107177734	293.5768988132477	295.57421803474426	296.2745039463043	296.62424087524414	299.68947100639343	4.11525297164917	[293.59512209892273, 293.6947090625763, 294.67913913726807, 294.8461821079254, 295.61346316337585, 295.7302701473236, 295.83029413223267, 295.9470591545105, 296.06393003463745, 296.1807270050049, 296.2975170612335, 296.4143030643463, 296.53109312057495, 296.64783215522766, 296.76464200019836, 296.88163208961487, 296.998220205307, 297.11518001556396, 297.2317011356354, 297.3486051559448, 297.4654381275177, 297.6894721984863]	[293.58560214576937, 293.70226881243605, 294.68526881243605, 294.85196881243604, 295.60196881243604, 295.7186354791027, 295.8353021457694, 295.95196881243606, 296.06863547910274, 296.1853021457694, 296.3019688124361, 296.41863547910276, 296.53530214576944, 296.6519688124361, 296.7686354791028, 296.88530214576946, 297.00196881243613, 297.1186354791028, 297.2353021457695, 297.35196881243616, 297.46863547910283, 297.7019688124362]	2021_Jan_28_1700	59.951687644901334	1	1
13	50	FALSE	NV	v	['A', 'N', 'G', 'M', 'B', 'H', 'K', 'V', 'T', 'C', 'Z', 'X', 'J', 'Y', 'W', 'P']	[697, 1335, 944, 1224, 760, 986, 1122, 2245, 1888, 829, 2911, 4000, 1029, 2670, 2448, 1456]	12	Present	NA	NA	PRESENT	0.20735597610473633	299.68284487724304	301.6903488636017	302.74085998535156	303.0911228656769	305.80583810806274	4.11548924446106	[299.7010681629181, 299.81797909736633, 300.80257415771484, 300.9690980911255, 301.7197651863098, 301.8367431163788, 301.9534912109375, 302.0703880786896, 302.1876630783081, 302.3039901256561, 302.42075300216675, 302.5376660823822, 302.6543080806732, 302.7712302207947, 302.88809299468994, 303.0046410560608, 303.121511220932, 303.238242149353, 303.3551461696625, 303.4717721939087, 303.588995218277, 303.8058371543884]	[299.7019688124362, 299.81863547910285, 300.80163547910286, 300.96833547910285, 301.71833547910285, 301.8350021457695, 301.9516688124362, 302.06833547910287, 302.18500214576954, 302.3016688124362, 302.4183354791029, 302.53500214576957, 302.65166881243624, 302.7683354791029, 302.8850021457696, 303.00166881243626, 303.11833547910294, 303.2350021457696, 303.3516688124363, 303.46833547910296, 303.58500214576964, 303.818335479103]	2021_Jan_28_1700	59.951687644901334	1	1
13	51	FALSE	VV	v	['C', 'B', 'M', 'G', 'surprise', 'S', 'A', 'X', 'P', 'Y', 'H', 'J', 'N', 'Z', 'W', 'V']	[829, 760, 1224, 944, 'stimAuditory/all_stimAuditory/212.wav', 1731, 697, 4000, 1456, 2670, 986, 1029, 1335, 2911, 2448, 2245]	8	Present	NA	stimVisual/all_stimVisual/112.jpg	PRESENT	0.35679197311401367	305.8060178756714	307.8068709373474	308.3906719684601	308.74073791503906	311.92220520973206	4.1153342723846436	[305.82424116134644, 305.9411051273346, 306.92572808265686, 307.0924861431122, 307.84304118156433, 307.960027217865, 308.0767722129822, 308.193635225296, 308.310396194458, 308.4272541999817, 308.54395508766174, 308.66067910194397, 308.77748799324036, 308.89414620399475, 309.0112280845642, 309.1280641555786, 309.24512910842896, 309.36152815818787, 309.4781861305237, 309.59490609169006, 309.69498920440674, 309.92220520973206]	[305.818335479103, 305.93500214576966, 306.91800214576966, 307.08470214576965, 307.83470214576965, 307.95136881243633, 308.068035479103, 308.1847021457697, 308.30136881243635, 308.418035479103, 308.5347021457697, 308.6513688124364, 308.76803547910305, 308.8847021457697, 309.0013688124364, 309.11803547910307, 309.23470214576975, 309.3513688124364, 309.4680354791031, 309.58470214576977, 309.70136881243644, 309.9347021457698]	2021_Jan_28_1700	59.951687644901334	1	1
13	52	FALSE	NA	v	['K', 'P', 'Y', 'W', 'T', 'U', 'R', 'Z', 'J', 'N', 'X', 'H', 'B', 'S', 'A', 'C']	[1122, 1456, 2670, 2448, 1888, 2059, 1587, 2911, 1029, 1335, 4000, 986, 760, 1731, 697, 829]	11	Present	NA	NA	PRESENT	0.2491319179534912	311.91248297691345	313.92320799827576	314.85746598243713	315.20711493492126	318.0385711193085	4.115363121032715	[311.9307060241699, 312.04760909080505, 313.0320770740509, 313.1987900733948, 313.949734210968, 314.0662670135498, 314.18366599082947, 314.3001070022583, 314.41695404052734, 314.53377199172974, 314.65026116371155, 314.7672221660614, 314.8839650154114, 315.00086212158203, 315.1175801753998, 315.23459219932556, 315.3511290550232, 315.4679911136627, 315.5848422050476, 315.70135617256165, 315.81832909584045, 316.03857016563416]	[311.9347021457698, 312.05136881243646, 313.03436881243647, 313.20106881243646, 313.95106881243646, 314.06773547910313, 314.1844021457698, 314.3010688124365, 314.41773547910316, 314.53440214576983, 314.6510688124365, 314.7677354791032, 314.88440214576985, 315.00106881243653, 315.1177354791032, 315.2344021457699, 315.35106881243655, 315.4677354791032, 315.5844021457699, 315.7010688124366, 315.81773547910325, 316.0510688124366]	2021_Jan_28_1700	59.951687644901334	1	1
13	53	FALSE	NV	v	['T', 'A', 'W', 'J', 'V', 'M', 'H', 'R', 'X', 'K', 'Y', 'P', 'U', 'S', 'C', 'E']	[1888, 697, 2448, 1029, 2245, 1224, 986, 1587, 4000, 1122, 2670, 1456, 2059, 1731, 829, 904]	9	Present	NA	NA	PRESENT	0.2459089756011963	318.03566694259644	320.0395739078522	320.7400608062744	321.0898509025574	324.1549370288849	4.115363121032715	[318.0538902282715, 318.170695066452, 319.1551020145416, 319.32218408584595, 320.0726971626282, 320.1898829936981, 320.30650520324707, 320.4230041503906, 320.54004311561584, 320.6570200920105, 320.7734441757202, 320.8902339935303, 321.00733518600464, 321.1238431930542, 321.2407741546631, 321.35741901397705, 321.4742350578308, 321.5912961959839, 321.7079610824585, 321.8248391151428, 321.94153022766113, 322.1549382209778]	[318.0510688124366, 318.16773547910327, 319.1507354791033, 319.31743547910327, 320.06743547910327, 320.18410214576994, 320.3007688124366, 320.4174354791033, 320.53410214576996, 320.65076881243664, 320.7674354791033, 320.88410214577, 321.00076881243666, 321.11743547910334, 321.23410214577, 321.3507688124367, 321.46743547910336, 321.58410214577003, 321.7007688124367, 321.8174354791034, 321.93410214577005, 322.1674354791034]	2021_Jan_28_1700	59.951687644901334	1	1
13	54	FALSE	NN	v	['P', 'Y', 'C', 'N', 'H', 'U', 'R', 'V', 'K', 'E', 'Z', 'W', 'T', 'G', 'S', 'M']	[1456, 2670, 829, 1335, 986, 2059, 1587, 2245, 1122, 904, 2911, 2448, 1888, 944, 1731, 1224]	9	Absent	NA	NA	ABSENT	0.25905585289001465	324.1423659324646	326.15588092803955	326.8562638759613	327.20634293556213	330.2713041305542	4.115423202514648	[324.16058921813965, 324.2771270275116, 325.26165413856506, 325.4285891056061, 326.19641613960266, 326.2959530353546, 326.4127712249756, 326.5296120643616, 326.64635014533997, 326.7632281780243, 326.8799171447754, 326.9967391490936, 327.11360716819763, 327.23034620285034, 327.34716606140137, 327.46411299705505, 327.58069705963135, 327.6976640224457, 327.8142762184143, 327.9310681819916, 328.04800510406494, 328.2713131904602]	[324.1674354791034, 324.2841021457701, 325.2671021457701, 325.4338021457701, 326.1838021457701, 326.30046881243675, 326.4171354791034, 326.5338021457701, 326.65046881243677, 326.76713547910344, 326.8838021457701, 327.0004688124368, 327.11713547910347, 327.23380214577014, 327.3504688124368, 327.4671354791035, 327.58380214577016, 327.70046881243684, 327.8171354791035, 327.9338021457702, 328.05046881243686, 328.2838021457702]	2021_Jan_28_1700	59.951687644901334	1	1
13	55	FALSE	NN	v	['V', 'M', 'U', 'R', 'C', 'Z', 'K', 'B', 'H', 'S', 'T', 'G', 'E', 'A', 'N', 'W']	[2245, 1224, 2059, 1587, 829, 2911, 1122, 760, 986, 1731, 1888, 944, 904, 697, 1335, 2448]	11	Absent	NA	NA	ABSENT	0.6155879497528076	330.26532101631165	332.2724258899689	333.20605087280273	333.55593395233154	336.38767099380493	4.11524510383606	[330.2835440635681, 330.4004681110382, 331.3848991394043, 331.55174112319946, 332.3023340702057, 332.41919112205505, 332.5359411239624, 332.6528580188751, 332.7696781158447, 332.8863220214844, 333.0030541419983, 333.1200430393219, 333.23686003685, 333.35344219207764, 333.4704351425171, 333.5877242088318, 333.70428013801575, 333.82064604759216, 333.93764901161194, 334.05422806739807, 334.17125511169434, 334.38767099380493]	[330.2838021457702, 330.4004688124369, 331.3834688124369, 331.5501688124369, 332.3001688124369, 332.41683547910355, 332.5335021457702, 332.6501688124369, 332.7668354791036, 332.88350214577025, 333.0001688124369, 333.1168354791036, 333.2335021457703, 333.35016881243695, 333.4668354791036, 333.5835021457703, 333.70016881243697, 333.81683547910364, 333.9335021457703, 334.050168812437, 334.16683547910367, 334.400168812437]	2021_Jan_28_1700	59.951687644901334	1	1
13	56	FALSE	NA	v	['A', 'J', 'W', 'S', 'R', 'Z', 'N', 'V', 'X', 'H', 'P', 'B', 'T', 'U', 'C', 'K']	[697, 1029, 2448, 1731, 1587, 2911, 1335, 2245, 4000, 986, 1456, 760, 1888, 2059, 829, 1122]	9	Present	NA	NA	PRESENT	0.7890770435333252	336.38858795166016	338.3882689476013	339.0888919830322	339.43897581100464	342.50403809547424	4.115769147872925	[336.40681314468384, 336.52366399765015, 337.5081059932709, 337.67494320869446, 338.4256401062012, 338.54255199432373, 338.65929317474365, 338.7760200500488, 338.8929760456085, 339.009672164917, 339.1267731189728, 339.24310302734375, 339.3603022098541, 339.4769070148468, 339.59368109703064, 339.7104182243347, 339.82708406448364, 339.94393515586853, 340.06080317497253, 340.17769408226013, 340.277547121048, 340.50403809547424]	[336.400168812437, 336.5168354791037, 337.4998354791037, 337.6665354791037, 338.4165354791037, 338.53320214577036, 338.64986881243703, 338.7665354791037, 338.8832021457704, 338.99986881243706, 339.11653547910373, 339.2332021457704, 339.3498688124371, 339.46653547910375, 339.58320214577043, 339.6998688124371, 339.8165354791038, 339.93320214577045, 340.0498688124371, 340.1665354791038, 340.2832021457705, 340.5165354791038]	2021_Jan_28_1700	59.951687644901334	1	1
13	57	FALSE	NA	v	['M', 'Y', 'C', 'U', 'S', 'N', 'Z', 'B', 'A', 'E', 'R', 'V', 'X', 'K', 'W', 'G']	[1224, 2670, 829, 2059, 1731, 1335, 2911, 760, 697, 904, 1587, 2245, 4000, 1122, 2448, 944]	13	Present	NA	NA	PRESENT	0.297760009765625	342.49501395225525	344.5048449039459	345.6720848083496	346.0221018791199	348.62040519714355	4.115560293197632	[342.5132360458374, 342.62991404533386, 343.6148371696472, 343.78144001960754, 344.53206419944763, 344.64907217025757, 344.765664100647, 344.8823490142822, 344.9991180896759, 345.11602902412415, 345.2327980995178, 345.3495411872864, 345.466420173645, 345.58315420150757, 345.7000150680542, 345.81695914268494, 345.9336621761322, 346.0503740310669, 346.1672451496124, 346.2841281890869, 346.4009392261505, 346.62040519714355]	[342.5165354791038, 342.6332021457705, 343.6162021457705, 343.7829021457705, 344.5329021457705, 344.64956881243717, 344.76623547910384, 344.8829021457705, 344.9995688124372, 345.11623547910386, 345.23290214577054, 345.3495688124372, 345.4662354791039, 345.58290214577056, 345.69956881243724, 345.8162354791039, 345.9329021457706, 346.04956881243726, 346.16623547910393, 346.2829021457706, 346.3995688124373, 346.63290214577063]	2021_Jan_28_1700	59.951687644901334	1	1
13	58	FALSE	AV	v	['S', 'W', 'J', 'Z', 'H', 'A', 'T', 'V', 'surprise', 'N', 'R', 'X', 'G', 'E', 'P', 'U']	[1731, 2448, 1029, 2911, 986, 697, 1888, 2245, 'stimAuditory/all_stimAuditory/218.wav', 1335, 1587, 4000, 944, 904, 1456, 2059]	12	Present	stimAuditory/all_stimAuditory/221.wav	stimVisual/all_stimVisual/116.jpg	PRESENT	0.3821420669555664	348.6182289123535	350.62099289894104	351.67180490493774	352.02194595336914	354.73677110671997	4.115778207778931	[348.63645219802856, 348.75329303741455, 349.7378990650177, 349.90448212623596, 350.6552720069885, 350.7725160121918, 350.8889100551605, 351.00551104545593, 351.12259101867676, 351.23909616470337, 351.35602712631226, 351.47274518013, 351.60630202293396, 351.70649003982544, 351.8231990337372, 351.9399540424347, 352.05686116218567, 352.173611164093, 352.2905580997467, 352.40709018707275, 352.52408719062805, 352.73677015304565]	[348.63290214577063, 348.7495688124373, 349.7325688124373, 349.8992688124373, 350.6492688124373, 350.765935479104, 350.88260214577065, 350.9992688124373, 351.115935479104, 351.23260214577067, 351.34926881243734, 351.465935479104, 351.5826021457707, 351.69926881243737, 351.81593547910404, 351.9326021457707, 352.0492688124374, 352.16593547910406, 352.28260214577074, 352.3992688124374, 352.5159354791041, 352.74926881243744]	2021_Jan_28_1700	59.951687644901334	1	1
13	59	FALSE	NA	v	['B', 'K', 'M', 'H', 'A', 'U', 'W', 'N', 'X', 'R', 'T', 'E', 'Y', 'V', 'Z', 'G']	[760, 1122, 1224, 986, 697, 2059, 2448, 1335, 4000, 1587, 1888, 904, 2670, 2245, 2911, 944]	9	Present	NA	NA	PRESENT	0.21932601928710935	354.7249438762665	356.7374918460846	357.4380910396576	357.78831481933594	360.8531382083893	4.1156463623046875	[354.7431671619415, 354.8596520423889, 355.8441791534424, 356.0110239982605, 356.77863121032715, 356.8785500526428, 356.9952201843262, 357.11204409599304, 357.2288601398468, 357.3455572128296, 357.4626212120056, 357.5792520046234, 357.69607520103455, 357.8130090236664, 357.92969012260437, 358.04661202430725, 358.1631681919098, 358.2800130844116, 358.39694905281067, 358.51363801956177, 358.6306052207947, 358.8531382083893]	[354.74926881243744, 354.8659354791041, 355.8489354791041, 356.0156354791041, 356.7656354791041, 356.8823021457708, 356.99896881243745, 357.1156354791041, 357.2323021457708, 357.3489688124375, 357.46563547910415, 357.5823021457708, 357.6989688124375, 357.8156354791042, 357.93230214577085, 358.0489688124375, 358.1656354791042, 358.28230214577087, 358.39896881243754, 358.5156354791042, 358.6323021457709, 358.86563547910424]	2021_Jan_28_1700	59.951687644901334	1	1
13	60	FALSE	NA	v	['E', 'T', 'J', 'G', 'H', 'A', 'R', 'M', 'Z', 'B', 'U', 'X', 'V', 'N', 'S', 'W']	[904, 1888, 1029, 944, 986, 697, 1587, 1224, 2911, 760, 2059, 4000, 2245, 1335, 1731, 2448]	12	Present	NA	NA	PRESENT	0.4159691333770752	360.8481040000915	362.8541488647461	363.904492855072	364.2545850276947	366.9695041179657	4.1153552532196045	[360.866327047348, 360.9830090999603, 361.9672291278839, 362.1341321468353, 362.884966135025, 363.0018570423126, 363.11873602867126, 363.2352662086487, 363.35212111473083, 363.46905422210693, 363.5856170654297, 363.70243406295776, 363.8194110393524, 363.9361970424652, 364.0530061721802, 364.16954803466797, 364.2865221500397, 364.4033582210541, 364.5204830169678, 364.6368420124054, 364.7537431716919, 364.9695041179657]	[360.86563547910424, 360.9823021457709, 361.9653021457709, 362.1320021457709, 362.8820021457709, 362.9986688124376, 363.11533547910426, 363.23200214577093, 363.3486688124376, 363.4653354791043, 363.58200214577096, 363.69866881243763, 363.8153354791043, 363.932002145771, 364.04866881243765, 364.16533547910433, 364.282002145771, 364.3986688124377, 364.51533547910435, 364.632002145771, 364.7486688124377, 364.98200214577105]	2021_Jan_28_1700	59.951687644901334	1	1
13	61	FALSE	NV	v	['Y', 'B', 'E', 'W', 'M', 'U', 'Z', 'H', 'P', 'A', 'T', 'G', 'X', 'K', 'J', 'R']	[2670, 760, 904, 2448, 1224, 2059, 2911, 986, 1456, 697, 1888, 944, 4000, 1122, 1029, 1587]	13	Present	NA	NA	PRESENT	0.3011598587036133	366.97136187553406	368.97033190727234	370.1375370025635	370.48728585243225	373.085871219635	4.115539312362671	[366.9895851612091, 367.10609912872314, 368.0907130241394, 368.2404580116272, 369.00826501846313, 369.12511706352234, 369.2418670654297, 369.3584051132202, 369.4753050804138, 369.5921411514282, 369.70906710624695, 369.82574105262756, 369.942369222641, 370.0591821670532, 370.17624711990356, 370.29302620887756, 370.409597158432, 370.5264570713043, 370.6433951854706, 370.7600882053375, 370.86014914512634, 371.085871219635]	[366.98200214577105, 367.0986688124377, 368.0816688124377, 368.2483688124377, 368.9983688124377, 369.1150354791044, 369.23170214577107, 369.34836881243774, 369.4650354791044, 369.5817021457711, 369.69836881243776, 369.81503547910444, 369.9317021457711, 370.0483688124378, 370.16503547910446, 370.28170214577113, 370.3983688124378, 370.5150354791045, 370.63170214577116, 370.74836881243783, 370.8650354791045, 371.09836881243785]	2021_Jan_28_1700	59.951687644901334	1	1
13	62	FALSE	NV	v	['R', 'S', 'M', 'N', 'T', 'P', 'Z', 'H', 'U', 'V', 'K', 'B', 'A', 'X', 'J', 'E']	[1587, 1731, 1224, 1335, 1888, 1456, 2911, 986, 2059, 2245, 1122, 760, 697, 4000, 1029, 904]	14	Present	NA	NA	PRESENT	0.3217611312866211	373.07756996154785	375.0867009162903	376.3707139492035	376.7205138206482	379.20228004455566	4.115579128265381	[373.0957930088043, 373.21259021759033, 374.1969940662384, 374.3637042045593, 375.11498522758484, 375.2315950393677, 375.3481662273407, 375.4651131629944, 375.58166122436523, 375.6987121105194, 375.81525921821594, 375.9322280883789, 376.04906821250916, 376.1656000614166, 376.28263807296753, 376.3992531299591, 376.5162260532379, 376.6328852176666, 376.7498881816864, 376.8663990497589, 376.98338317871094, 377.20223903656006]	[373.09836881243785, 373.21503547910453, 374.19803547910453, 374.3647354791045, 375.1147354791045, 375.2314021457712, 375.3480688124379, 375.46473547910455, 375.5814021457712, 375.6980688124379, 375.81473547910457, 375.93140214577124, 376.0480688124379, 376.1647354791046, 376.28140214577127, 376.39806881243794, 376.5147354791046, 376.6314021457713, 376.74806881243796, 376.86473547910464, 376.9814021457713, 377.21473547910466]	2021_Jan_28_1700	59.951687644901334	1	1
13	63	FALSE	NA	v	['E', 'G', 'Z', 'P', 'H', 'V', 'B', 'C', 'R', 'W', 'X', 'S', 'N', 'A', 'Y', 'T']	[904, 944, 2911, 1456, 986, 2245, 760, 829, 1587, 2448, 4000, 1731, 1335, 697, 2670, 1888]	11	Present	NA	NA	PRESENT	0.335223913192749	379.20070481300354	381.203421831131	382.1367440223694	382.4866199493408	385.31860518455505	4.115183353424072	[379.2189280986786, 379.33596110343933, 380.3202660083771, 380.48703718185425, 381.237802028656, 381.3545141220093, 381.47148299217224, 381.5880892276764, 381.7051200866699, 381.82169103622437, 381.93861508369446, 382.0552930831909, 382.1721911430359, 382.2888081073761, 382.40581703186035, 382.52249002456665, 382.63932609558105, 382.7560591697693, 382.873006105423, 382.98991203308105, 383.1064040660858, 383.31860613822937]	[379.21473547910466, 379.33140214577134, 380.31440214577134, 380.48110214577133, 381.23110214577133, 381.347768812438, 381.4644354791047, 381.58110214577135, 381.697768812438, 381.8144354791047, 381.9311021457714, 382.04776881243805, 382.1644354791047, 382.2811021457714, 382.3977688124381, 382.51443547910475, 382.6311021457714, 382.7477688124381, 382.86443547910477, 382.98110214577144, 383.0977688124381, 383.33110214577147]	2021_Jan_28_1700	59.951687644901334	1	1
13	64	FALSE	NA	v	['V', 'Z', 'A', 'M', 'B', 'C', 'G', 'X', 'E', 'P', 'T', 'S', 'W', 'K', 'H', 'N']	[2245, 2911, 697, 1224, 760, 829, 944, 4000, 904, 1456, 1888, 1731, 2448, 1122, 986, 1335]	8	Present	NA	NA	PRESENT	0.3956410884857178	385.30748295784	387.3196568489074	387.9033389091492	388.2533538341522	391.4349710941314	4.115314245223999	[385.3257050514221, 385.442369222641, 386.42675709724426, 386.5934112071991, 387.3610620498657, 387.461284160614, 387.5778260231018, 387.6947932243347, 387.81156301498413, 387.92815613746643, 388.04496121406555, 388.16171622276306, 388.27859711647034, 388.39551305770874, 388.51228499412537, 388.6289360523224, 388.74596905708313, 388.86250019073486, 388.9792799949646, 389.09607911109924, 389.21295714378357, 389.43497109413147]	[385.33110214577147, 385.44776881243814, 386.43076881243815, 386.59746881243814, 387.34746881243814, 387.4641354791048, 387.5808021457715, 387.69746881243816, 387.81413547910483, 387.9308021457715, 388.0474688124382, 388.16413547910486, 388.28080214577153, 388.3974688124382, 388.5141354791049, 388.63080214577155, 388.7474688124382, 388.8641354791049, 388.9808021457716, 389.09746881243825, 389.2141354791049, 389.4474688124383]	2021_Jan_28_1700	59.951687644901334	1	1
13	65	FALSE	AN	v	['W', 'H', 'S', 'K', 'E', 'N', 'Z', 'T', 'surprise', 'Y', 'R', 'V', 'A', 'B', 'U', 'C']	[2448, 986, 1731, 1122, 904, 1335, 2911, 1888, 'stimAuditory/all_stimAuditory/120.wav', 2670, 1587, 2245, 697, 760, 2059, 829]	12	Absent	stimAuditory/all_stimAuditory/103.wav	stimVisual/all_stimVisual/212.jpg	ABSENT	0.24007678031921387	391.4304308891296	393.4358229637146	394.48671984672546	394.83634781837463	397.5513381958008	4.115515232086182	[391.44865322113037, 391.5655481815338, 392.5498571395874, 392.7167751789093, 393.4674770832062, 393.5842351913452, 393.70104002952576, 393.8179860115051, 393.93479919433594, 394.05156803131104, 394.16826701164246, 394.28484201431274, 394.4184582233429, 394.5189321041107, 394.63552808761597, 394.75224804878235, 394.8690400123596, 394.98568415641785, 395.1026961803436, 395.21942806243896, 395.336079120636, 395.5513381958008]	[391.4474688124383, 391.56413547910495, 392.54713547910495, 392.71383547910494, 393.46383547910494, 393.5805021457716, 393.6971688124383, 393.81383547910497, 393.93050214577164, 394.0471688124383, 394.163835479105, 394.28050214577166, 394.39716881243834, 394.513835479105, 394.6305021457717, 394.74716881243836, 394.86383547910503, 394.9805021457717, 395.0971688124384, 395.21383547910506, 395.33050214577173, 395.5638354791051]	2021_Jan_28_1700	59.951687644901334	1	1
13	66	FALSE	NV	v	['R', 'B', 'K', 'T', 'C', 'M', 'S', 'Y', 'X', 'E', 'N', 'V', 'A', 'H', 'P', 'J']	[1587, 760, 1122, 1888, 829, 1224, 1731, 2670, 4000, 904, 1335, 2245, 697, 986, 1456, 1029]	9	Present	NA	NA	PRESENT	0.35755181312561035	397.5538258552551	399.5520408153534	400.2527029514313	400.60259985923767	403.6677041053772	4.115663290023804	[397.57204818725586, 397.6889510154724, 398.65616512298584, 398.82303619384766, 399.5906012058258, 399.70765805244446, 399.8245310783386, 399.9410560131073, 400.05800914764404, 400.17455315589905, 400.2915461063385, 400.40837121009827, 400.52490305900574, 400.6418890953064, 400.758513212204, 400.8753352165222, 400.9753530025482, 401.0920751094818, 401.20891213417053, 401.3257632255554, 401.44266510009766, 401.6677041053772]	[397.5638354791051, 397.68050214577175, 398.66350214577176, 398.83020214577175, 399.58020214577175, 399.6968688124384, 399.8135354791051, 399.9302021457718, 400.04686881243845, 400.1635354791051, 400.2802021457718, 400.39686881243847, 400.51353547910514, 400.6302021457718, 400.7468688124385, 400.86353547910517, 400.98020214577184, 401.0968688124385, 401.2135354791052, 401.33020214577186, 401.44686881243854, 401.6802021457719]	2021_Jan_28_1700	59.951687644901334	1	1
13	67	FALSE	NV	v	['P', 'U', 'C', 'J', 'W', 'Z', 'M', 'G', 'B', 'T', 'X', 'V', 'E', 'H', 'A', 'R']	[1456, 2059, 829, 1029, 2448, 2911, 1224, 944, 760, 1888, 4000, 2245, 904, 986, 697, 1587]	11	Present	NA	NA	PRESENT	0.3779220581054687	403.6599609851837	405.6686818599701	406.6024479866028	406.952260017395	409.7840712070465	4.115389347076416	[403.67818307876587, 403.79526019096375, 404.77984404563904, 404.94630217552185, 405.6970920562744, 405.8138380050659, 405.9307470321655, 406.0476961135864, 406.1642301082611, 406.2813050746918, 406.3980782032013, 406.51467514038086, 406.6312930583954, 406.74818420410156, 406.864865064621, 406.9816951751709, 407.0985300540924, 407.2152931690216, 407.33223605155945, 407.4489550590515, 407.5658481121063, 407.7840721607208]	[403.6802021457719, 403.79686881243856, 404.77986881243856, 404.94656881243856, 405.69656881243856, 405.81323547910523, 405.9299021457719, 406.0465688124386, 406.16323547910525, 406.2799021457719, 406.3965688124386, 406.5132354791053, 406.62990214577195, 406.7465688124386, 406.8632354791053, 406.979902145772, 407.09656881243865, 407.2132354791053, 407.329902145772, 407.44656881243867, 407.56323547910534, 407.7965688124387]	2021_Jan_28_1700	59.951687644901334	1	1
13	68	FALSE	NN	v	['P', 'H', 'C', 'Z', 'M', 'G', 'V', 'S', 'A', 'E', 'Y', 'K', 'R', 'B', 'T', 'N']	[1456, 986, 829, 2911, 1224, 944, 2245, 1731, 697, 904, 2670, 1122, 1587, 760, 1888, 1335]	9	Absent	NA	NA	ABSENT	0.5596439838409424	409.7831478118897	411.78486490249634	412.4857859611511	412.8353779315949	415.9004380702973	4.115573167800903	[409.8013710975647, 409.9184150695801, 410.90259408950806, 411.06960701942444, 411.82028818130493, 411.936998128891, 412.05403113365173, 412.1709110736847, 412.2874929904938, 412.40428018569946, 412.52104115486145, 412.6378471851349, 412.75467014312744, 412.8713161945343, 412.9880850315094, 413.1049180030823, 413.2219271659851, 413.3384711742401, 413.45544505119324, 413.57221722602844, 413.6721839904785, 413.90043807029724]	[409.7965688124387, 409.91323547910537, 410.89623547910537, 411.06293547910536, 411.81293547910536, 411.92960214577204, 412.0462688124387, 412.1629354791054, 412.27960214577206, 412.39626881243873, 412.5129354791054, 412.6296021457721, 412.74626881243876, 412.86293547910543, 412.9796021457721, 413.0962688124388, 413.21293547910545, 413.3296021457721, 413.4462688124388, 413.5629354791055, 413.67960214577215, 413.9129354791055]	2021_Jan_28_1700	59.951687644901334	1	1
13	69	FALSE	NN	v	['J', 'S', 'W', 'T', 'M', 'N', 'V', 'K', 'H', 'Y', 'G', 'E', 'B', 'P', 'Z', 'U']	[1029, 1731, 2448, 1888, 1224, 1335, 2245, 1122, 986, 2670, 944, 904, 760, 1456, 2911, 2059]	10	Absent	NA	NA	ABSENT	0.30782103538513184	415.88995885849	417.9016230106354	418.7183418273926	419.0685029029846	422.01680517196655	4.115182161331177	[415.9081811904907, 416.02481508255005, 417.00929522514343, 417.1759121417999, 417.943421125412, 418.0437250137329, 418.16033005714417, 418.2773082256317, 418.39380621910095, 418.5107820034027, 418.62754702568054, 418.7442982196808, 418.86122703552246, 418.97780108451843, 419.0947241783142, 419.21157121658325, 419.3283591270447, 419.4449381828308, 419.56202816963196, 419.6786479949951, 419.7955870628357, 420.01680517196655]	[415.9129354791055, 416.0296021457722, 417.0126021457722, 417.17930214577217, 417.92930214577217, 418.04596881243884, 418.1626354791055, 418.2793021457722, 418.39596881243887, 418.51263547910554, 418.6293021457722, 418.7459688124389, 418.86263547910556, 418.97930214577224, 419.0959688124389, 419.2126354791056, 419.32930214577226, 419.44596881243893, 419.5626354791056, 419.6793021457723, 419.79596881243896, 420.0293021457723]	2021_Jan_28_1700	59.951687644901334	1	1
13	70	FALSE	NV	v	['Y', 'S', 'C', 'V', 'K', 'N', 'M', 'X', 'W', 'G', 'T', 'J', 'A', 'E', 'R', 'H']	[2670, 1731, 829, 2245, 1122, 1335, 1224, 4000, 2448, 944, 1888, 1029, 697, 904, 1587, 986]	8	Present	NA	NA	ABSENT	0.4402709007263184	422.0129728317261	424.0178289413452	424.6015548706054	424.9516668319702	428.13317012786865	4.1153411865234375	[422.0311961174011, 422.14772510528564, 423.1321949958801, 423.2990942001343, 424.04993414878845, 424.16696214675903, 424.283732175827, 424.40025520324707, 424.5172371864319, 424.6338720321655, 424.7508080005646, 424.8674921989441, 424.9843502044678, 425.1010310649872, 425.218346118927, 425.33459210395813, 425.4515872001648, 425.56873202323914, 425.6850411891937, 425.8019070625305, 425.9188132286072, 426.13317012786865]	[422.0293021457723, 422.145968812439, 423.128968812439, 423.295668812439, 424.045668812439, 424.16233547910565, 424.2790021457723, 424.395668812439, 424.5123354791057, 424.62900214577235, 424.745668812439, 424.8623354791057, 424.97900214577237, 425.09566881243904, 425.2123354791057, 425.3290021457724, 425.44566881243907, 425.56233547910574, 425.6790021457724, 425.7956688124391, 425.91233547910576, 426.1456688124391]	2021_Jan_28_1700	59.951687644901334	1	1
13	71	FALSE	NN	v	['N', 'U', 'M', 'J', 'Y', 'H', 'A', 'V', 'G', 'W', 'B', 'S', 'R', 'K', 'P', 'C']	[1335, 2059, 1224, 1029, 2670, 986, 697, 2245, 944, 2448, 760, 1731, 1587, 1122, 1456, 829]	10	Absent	NA	NA	ABSENT	0.3816800117492676	428.13609981536865	430.1344609260559	430.9512128829956	431.3013458251953	434.2495381832123	4.115077257156372	[428.154324054718, 428.2710120677948, 429.2387351989746, 429.4055120944977, 430.17320013046265, 430.2900140285492, 430.4068441390991, 430.5233871936798, 430.6234450340271, 430.7402582168579, 430.85707116127014, 430.9738440513611, 431.0906882286072, 431.20748710632324, 431.32419419288635, 431.4410820007324, 431.55778217315674, 431.6746871471405, 431.7914080619812, 431.90819215774536, 432.0249571800232, 432.2495391368866]	[428.1456688124391, 428.2623354791058, 429.2453354791058, 429.4120354791058, 430.1620354791058, 430.27870214577246, 430.39536881243913, 430.5120354791058, 430.6287021457725, 430.74536881243915, 430.8620354791058, 430.9787021457725, 431.0953688124392, 431.21203547910585, 431.3287021457725, 431.4453688124392, 431.5620354791059, 431.67870214577255, 431.7953688124392, 431.9120354791059, 432.02870214577257, 432.2620354791059]	2021_Jan_28_1700	59.951687644901334	1	1
13	72	FALSE	NN	v	['P', 'B', 'G', 'V', 'J', 'E', 'R', 'A', 'Z', 'C', 'Y', 'W', 'H', 'K', 'T', 'U']	[1456, 760, 944, 2245, 1029, 904, 1587, 697, 2911, 829, 2670, 2448, 986, 1122, 1888, 2059]	10	Absent	NA	NA	ABSENT	0.322329044342041	434.24258303642273	436.25019884109497	437.0675489902496	437.4176080226898	440.3659040927887	4.115705251693726	[434.2608060836792, 434.37768507003784, 435.3621370792389, 435.52914810180664, 436.2795901298523, 436.3963930606842, 436.51319122314453, 436.6299800872803, 436.7469382286072, 436.863694190979, 436.980535030365, 437.09721422195435, 437.21405720710754, 437.330726146698, 437.4475371837616, 437.56417202949524, 437.68120217323303, 437.797758102417, 437.91466307640076, 438.031476020813, 438.14829421043396, 438.3659040927887]	[434.2620354791059, 434.3787021457726, 435.3617021457726, 435.5284021457726, 436.2784021457726, 436.39506881243926, 436.51173547910594, 436.6284021457726, 436.7450688124393, 436.86173547910596, 436.97840214577263, 437.0950688124393, 437.211735479106, 437.32840214577266, 437.44506881243933, 437.561735479106, 437.6784021457727, 437.79506881243935, 437.911735479106, 438.0284021457727, 438.1450688124394, 438.3784021457727]	2021_Jan_28_1700	59.951687644901334	1	1
13	73	FALSE	NV	v	['W', 'T', 'H', 'U', 'K', 'S', 'A', 'X', 'Z', 'J', 'R', 'B', 'P', 'C', 'E', 'V']	[2448, 1888, 986, 2059, 1122, 1731, 697, 4000, 2911, 1029, 1587, 760, 1456, 829, 904, 2245]	8	Present	NA	NA	PRESENT	0.3434879779815674	440.3658549785614	442.3670599460602	442.9503970146179	443.3006329536438	446.482271194458	4.115211248397827	[440.38407707214355, 440.50075507164, 441.4852340221405, 441.6519250869751, 442.40271401405334, 442.5194251537323, 442.6365849971771, 442.75307416915894, 442.87004804611206, 442.9868721961975, 443.10342621803284, 443.220272064209, 443.33727407455444, 443.45381903648376, 443.57081508636475, 443.687292098999, 443.8043282032013, 443.9210000038147, 444.037828207016, 444.1546730995178, 444.2548031806946, 444.482271194458]	[440.3784021457727, 440.4950688124394, 441.4780688124394, 441.6447688124394, 442.3947688124394, 442.51143547910607, 442.62810214577274, 442.7447688124394, 442.8614354791061, 442.97810214577277, 443.09476881243944, 443.2114354791061, 443.3281021457728, 443.44476881243946, 443.56143547910614, 443.6781021457728, 443.7947688124395, 443.91143547910616, 444.02810214577283, 444.1447688124395, 444.2614354791062, 444.49476881243953]	2021_Jan_28_1700	59.951687644901334	1	1
13	74	FALSE	AA	v	['G', 'C', 'H', 'N', 'S', 'E', 'U', 'K', 'surprise', 'B', 'Y', 'X', 'W', 'A', 'J', 'R']	[944, 829, 986, 1335, 1731, 904, 2059, 1122, 'stimAuditory/all_stimAuditory/113.wav', 760, 2670, 4000, 2448, 697, 1029, 1587]	12	Present	stimAuditory/all_stimAuditory/202.wav	stimVisual/all_stimVisual/221.jpg	ABSENT	0.2602062225341797	446.4724578857422	448.4834020137787	449.53377294540405	449.8834159374237	452.59863805770874	4.115236043930054	[446.4906802177429, 446.6070671081543, 447.591814994812, 447.7583680152893, 448.5262200832367, 448.6260859966278, 448.7429850101471, 448.8597581386566, 448.97640013694763, 449.09314608573914, 449.21003913879395, 449.32669019699097, 449.47701501846313, 449.5603082180023, 449.67734718322754, 449.7940080165863, 449.911012172699, 450.0276081562042, 450.1444230079651, 450.2611310482025, 450.37787103652954, 450.59863805770874]	[446.49476881243953, 446.6114354791062, 447.5944354791062, 447.7611354791062, 448.5111354791062, 448.6278021457729, 448.74446881243955, 448.8611354791062, 448.9778021457729, 449.0944688124396, 449.21113547910625, 449.3278021457729, 449.4444688124396, 449.56113547910627, 449.67780214577294, 449.7944688124396, 449.9111354791063, 450.02780214577297, 450.14446881243964, 450.2611354791063, 450.377802145773, 450.61113547910634]	2021_Jan_28_1700	59.951687644901334	1	1
13	75	FALSE	NV	v	['C', 'M', 'E', 'B', 'R', 'P', 'A', 'N', 'K', 'Y', 'G', 'J', 'X', 'Z', 'H', 'W']	[829, 1224, 904, 760, 1587, 1456, 697, 1335, 1122, 2670, 944, 1029, 4000, 2911, 986, 2448]	13	Present	NA	NA	PRESENT	0.3206641674041748	452.5954530239105	454.5995919704437	455.766736984253	456.1168270111084	458.71500515937805	4.115413188934326	[452.6136751174927, 452.7303202152252, 453.71495509147644, 453.8815360069275, 454.63266611099243, 454.74917817115784, 454.8660910129547, 454.98274302482605, 455.0994670391083, 455.21627712249756, 455.33337903022766, 455.449933052063, 455.56716418266296, 455.68343210220337, 455.800350189209, 455.91736602783203, 456.0339980125427, 456.1506550312042, 456.26741909980774, 456.38428020477295, 456.50117802619934, 456.71500420570374]	[452.61113547910634, 452.727802145773, 453.710802145773, 453.877502145773, 454.627502145773, 454.7441688124397, 454.86083547910636, 454.97750214577303, 455.0941688124397, 455.2108354791064, 455.32750214577305, 455.4441688124397, 455.5608354791064, 455.6775021457731, 455.79416881243975, 455.9108354791064, 456.0275021457731, 456.1441688124398, 456.26083547910645, 456.3775021457731, 456.4941688124398, 456.72750214577314]	2021_Jan_28_1700	59.951687644901334	1	1
13	76	FALSE	NV	v	['Z', 'S', 'A', 'T', 'C', 'U', 'E', 'H', 'Y', 'G', 'K', 'M', 'W', 'X', 'V', 'B']	[2911, 1731, 697, 1888, 829, 2059, 904, 986, 2670, 944, 1122, 1224, 2448, 4000, 2245, 760]	14	Present	NA	NA	PRESENT	0.2860219478607178	458.71868681907654	460.7160439491272	461.9996819496155	462.35000586509705	464.83137106895447	4.1153271198272705	[458.7369101047516, 458.83687114715576, 459.8214662075043, 459.98806715011597, 460.7555010318756, 460.8555700778961, 460.9724290370941, 461.0892210006714, 461.2060430049896, 461.3227550983429, 461.43957710266113, 461.5564081668854, 461.67319107055664, 461.79000520706177, 461.9069561958313, 462.0235481262207, 462.1405391693115, 462.2571451663971, 462.3739080429077, 462.4907932281494, 462.6076180934906, 462.83137011528015]	[458.72750214577314, 458.8441688124398, 459.8271688124398, 459.9938688124398, 460.7438688124398, 460.8605354791065, 460.97720214577316, 461.09386881243984, 461.2105354791065, 461.3272021457732, 461.44386881243986, 461.56053547910653, 461.6772021457732, 461.7938688124399, 461.91053547910656, 462.02720214577323, 462.1438688124399, 462.2605354791066, 462.37720214577325, 462.4938688124399, 462.6105354791066, 462.84386881243995]	2021_Jan_28_1700	59.951687644901334	1	1
13	77	FALSE	NV	v	['E', 'U', 'N', 'H', 'W', 'J', 'C', 'V', 'B', 'T', 'X', 'K', 'S', 'M', 'A', 'R']	[904, 2059, 1335, 986, 2448, 1029, 829, 2245, 760, 1888, 4000, 1122, 1731, 1224, 697, 1587]	11	Present	NA	NA	ABSENT	0.3628771305084229	464.8251769542694	466.8322899341583	467.7662889957428	468.116171836853	470.9477381706238	4.115448236465454	[464.8434112071991, 464.96004605293274, 465.94473004341125, 466.11132621765137, 466.8620641231537, 466.9788842201233, 467.0958561897278, 467.2123510837555, 467.32946014404297, 467.44607615470886, 467.562979221344, 467.67959117889404, 467.796355009079, 467.9132511615753, 468.02996706962585, 468.1469440460205, 468.2635462284088, 468.38039803504944, 468.497034072876, 468.6138780117035, 468.73065400123596, 468.9477381706238]	[464.84386881243995, 464.9605354791066, 465.94353547910663, 466.1102354791066, 466.8602354791066, 466.9769021457733, 467.09356881243997, 467.21023547910664, 467.3269021457733, 467.44356881244, 467.56023547910667, 467.67690214577334, 467.79356881244, 467.9102354791067, 468.02690214577336, 468.14356881244004, 468.2602354791067, 468.3769021457734, 468.49356881244006, 468.61023547910673, 468.7269021457734, 468.96023547910676]	2021_Jan_28_1700	59.951687644901334	1	1
13	78	FALSE	NA	v	['K', 'C', 'T', 'Z', 'W', 'H', 'G', 'S', 'V', 'U', 'P', 'N', 'X', 'B', 'Y', 'J']	[1122, 829, 1888, 2911, 2448, 986, 944, 1731, 2245, 2059, 1456, 1335, 4000, 760, 2670, 1029]	13	Present	NA	NA	PRESENT	0.6237459182739258	470.94843196868896	472.94844603538513	474.11584281921387	474.4658229351044	477.0641040802002	4.1156580448150635	[470.9666540622711, 471.08335399627686, 472.0678060054779, 472.23459005355835, 472.9852170944214, 473.10226011276245, 473.219190120697, 473.33555006980896, 473.4523961544037, 473.56937313079834, 473.686163187027, 473.80298614501953, 473.9197111129761, 474.0366220474243, 474.153165102005, 474.2699611186981, 474.3868281841278, 474.50351214408875, 474.6202712059021, 474.736985206604, 474.83725118637085, 475.0641040802002]	[470.96023547910676, 471.07690214577343, 472.05990214577344, 472.2266021457734, 472.9766021457734, 473.0932688124401, 473.2099354791068, 473.32660214577345, 473.4432688124401, 473.5599354791068, 473.6766021457735, 473.79326881244015, 473.9099354791068, 474.0266021457735, 474.14326881244017, 474.25993547910684, 474.3766021457735, 474.4932688124402, 474.60993547910687, 474.72660214577354, 474.8432688124402, 475.07660214577356]	2021_Jan_28_1700	59.951687644901334	1	1
13	79	FALSE	NA	v	['G', 'H', 'E', 'B', 'Z', 'N', 'Y', 'C', 'J', 'K', 'R', 'W', 'X', 'T', 'A', 'S']	[944, 986, 904, 760, 2911, 1335, 2670, 829, 1029, 1122, 1587, 2448, 4000, 1888, 697, 1731]	13	Present	NA	NA	PRESENT	0.26062607765197754	477.054664850235	479.0650339126587	480.2322130203247	480.5820870399475	483.1804711818695	4.115437269210815	[477.07288813591003, 477.1898250579834, 478.1743321418762, 478.34100699424744, 479.09166502952576, 479.20859599113464, 479.3252191543579, 479.4421241283417, 479.5590400695801, 479.67566204071045, 479.79265213012695, 479.90932607650757, 480.0261640548706, 480.1427991390228, 480.2598400115967, 480.37652802467346, 480.49320816993713, 480.6100251674652, 480.72701120376587, 480.8436071872711, 480.96080017089844, 481.1804721355438]	[477.07660214577356, 477.19326881244024, 478.17626881244024, 478.34296881244023, 479.09296881244023, 479.2096354791069, 479.3263021457736, 479.44296881244026, 479.55963547910693, 479.6763021457736, 479.7929688124403, 479.90963547910695, 480.0263021457736, 480.1429688124403, 480.259635479107, 480.37630214577365, 480.4929688124403, 480.609635479107, 480.7263021457737, 480.84296881244035, 480.959635479107, 481.19296881244037]	2021_Jan_28_1700	59.951687644901334	1	1
