participant	trial_num	practice	task	condition	RSVP	RAP	probePos	probe_presence	surprise_sound	surprise_img	probe_response	probe_resp_time	first_fixation_time	trial_start_time	surprise_start_time	probe_start_time	trial_end_time	trial_duration	actualEventTimes	plannedEventTimes	date	framerate	marker_vol	RAP_vol
31	1	FALSE	NN	a	['C', 'J', 'H', 'B', 'G', 'Z', 'R', 'P', 'T', 'S', 'V', 'E', 'U', 'W', 'A', 'M']	[829, 1029, 986, 760, 944, 2911, 1587, 1456, 1888, 1731, 2245, 904, 2059, 2448, 697, 1224]	13	Absent	NA	NA	ABSENT	0.21022701263427737	2.1457672119140625e-6	1.9881911277770996	3.154867807957422	3.5048697152860546	6.103869199752808	4.115678071975708	[0.0212860107421875, 0.12133121490478516, 1.087191104888916, 1.2724361419677734, 2.02345609664917, 2.1402320861816406, 2.2570290565490723, 2.3738601207733154, 2.490676164627075, 2.607210159301758, 2.7241640090942383, 2.8409390449523926, 2.957602024078369, 3.074458122253418, 3.1911661624908447, 3.308122158050537, 3.4247920513153076, 3.5416359901428223, 3.6584320068359375, 3.758437156677246, 3.8920881748199463, 4.103870153427124]	[1.1920928955078125e-06, 0.11666785875289551, 1.0996678587528954, 1.2663678587528955, 2.0163678587528953, 2.1330345254128953, 2.2497011920728953, 2.3663678587328953, 2.4830345253928954, 2.5997011920528954, 2.7163678587128954, 2.8330345253728955, 2.9497011920328955, 3.0663678586928955, 3.1830345253528955, 3.2997011920128956, 3.4163678586728956, 3.5330345253328956, 3.6497011919928957, 3.7663678586528957, 3.8830345253128957, 4.116367858646229]	2021_Feb_18_1324	59.86517752007136	1	0.375
31	2	FALSE	NN	a	['T', 'W', 'Z', 'Y', 'V', 'A', 'J', 'K', 'H', 'S', 'R', 'P', 'B', 'N', 'C', 'U']	[1888, 2448, 2911, 2670, 2245, 697, 1029, 1122, 986, 1731, 1587, 1456, 760, 1335, 829, 2059]	11	Absent	NA	NA	PRESENT	1.606368064880371	6.089730978012085	8.10164213180542	9.03498333289853	9.384985478645742	12.220237016677856	4.1185948848724365	[6.111014127731323, 6.22799015045166, 7.203559160232544, 7.379389047622681, 8.12984013557434, 8.246601104736328, 8.363619089126587, 8.48073410987854, 8.59718918800354, 8.713813066482544, 8.830718994140625, 8.947335004806519, 9.064197063446045, 9.180867195129395, 9.297620058059692, 9.414395093917847, 9.53141713142395, 9.648128986358643, 9.765007019042969, 9.881685018539429, 9.998587131500244, 10.22023606300354]	[6.116367858646229, 6.233034525306229, 7.216034525306228, 7.382734525306228, 8.132734525306228, 8.249401191966228, 8.366067858626229, 8.48273452528623, 8.59940119194623, 8.71606785860623, 8.83273452526623, 8.949401191926231, 9.066067858586232, 9.182734525246232, 9.299401191906233, 9.416067858566233, 9.532734525226234, 9.649401191886234, 9.766067858546235, 9.882734525206235, 9.999401191866236, 10.232734525199568]	2021_Feb_18_1324	59.86517752007136	1	0.375
31	3	FALSE	NV	a	['N', 'K', 'E', 'T', 'R', 'P', 'A', 'X', 'C', 'J', 'S', 'Y', 'H', 'M', 'Z', 'B']	[1335, 1122, 904, 1888, 1587, 1456, 697, 4000, 829, 1029, 1731, 2670, 986, 1224, 2911, 760]	8	Present	NA	NA	PRESENT	0.26705002784729004	12.213067054748535	14.217779159545898	14.801119406984691	15.15112250640622	18.33660316467285	4.118824005126953	[12.234350204467773, 12.35094404220581, 13.319924116134644, 13.502310037612915, 14.253084182739258, 14.369868993759155, 14.486608028411865, 14.603538036346436, 14.720208168029785, 14.837032079696655, 14.953692197799683, 15.070518016815186, 15.187355041503906, 15.304068088531494, 15.421003103256226, 15.537787199020386, 15.654555082321167, 15.771406173706055, 15.888033151626587, 16.004953145980835, 16.121777057647705, 16.33660316467285]	[12.232734525199568, 12.349401191859569, 13.332401191859569, 13.49910119185957, 14.24910119185957, 14.36576785851957, 14.48243452517957, 14.599101191839571, 14.715767858499571, 14.832434525159572, 14.949101191819572, 15.065767858479573, 15.182434525139573, 15.299101191799574, 15.415767858459574, 15.532434525119575, 15.649101191779575, 15.765767858439576, 15.882434525099576, 15.999101191759577, 16.115767858419577, 16.34910119175291]	2021_Feb_18_1324	59.86517752007136	1	0.375
31	4	FALSE	VA	a	['G', 'R', 'P', 'W', 'surprise', 'S', 'Y', 'X', 'M', 'B', 'Z', 'C', 'J', 'V', 'E', 'K']	[944, 1587, 1456, 2448, 'stimAuditory/all_stimAuditory/123.wav', 1731, 2670, 4000, 1224, 760, 2911, 829, 1029, 2245, 904, 1122]	8	Present	NA	NA	ABSENT	1.2643508911132812	18.336393117904663	20.334079027175903	20.917420466707593	21.267422374036222	24.452970027923584	4.118891000747681	[18.357678174972534, 18.474114179611206, 19.436290979385376, 19.608549118041992, 20.376336097717285, 20.476407051086426, 20.59315800666809, 20.709760189056396, 20.8267080783844, 20.9433491230011, 21.060341119766235, 21.176907062530518, 21.29383111000061, 21.410516023635864, 21.527390003204346, 21.64406418800354, 21.761059045791626, 21.877723217010498, 21.994675159454346, 22.111430168151855, 22.228228092193604, 22.452969074249268]	[18.34910119175291, 18.46576785841291, 19.44876785841291, 19.61546785841291, 20.36546785841291, 20.482134525072908, 20.598801191732907, 20.715467858392905, 20.832134525052904, 20.948801191712903, 21.0654678583729, 21.1821345250329, 21.2988011916929, 21.415467858352898, 21.532134525012896, 21.648801191672895, 21.765467858332894, 21.882134524992892, 21.99880119165289, 22.11546785831289, 22.23213452497289, 22.465467858306223]	2021_Feb_18_1324	59.86517752007136	1	0.375
31	5	FALSE	NA	a	['Y', 'B', 'Z', 'A', 'T', 'H', 'N', 'V', 'P', 'K', 'S', 'X', 'J', 'W', 'E', 'C']	[2670, 760, 2911, 697, 1888, 986, 1335, 2245, 1456, 1122, 1731, 4000, 1029, 2448, 904, 829]	12	Present	NA	NA	PRESENT	0.228787899017334	24.442606210708615	26.45056700706482	27.500575113236508	27.85057702056514	30.569337129592896	4.118770122528076	[24.463890075683594, 24.580621004104614, 25.552662134170532, 25.731904983520508, 26.4827082157135, 26.599536180496216, 26.716363191604614, 26.83307909965515, 26.949958086013794, 27.066749095916748, 27.183310985565186, 27.300246000289917, 27.41706109046936, 27.533766984939575, 27.65049910545349, 27.76742720603943, 27.884104013442993, 28.000964164733887, 28.11772608757019, 28.23453116416931, 28.351675987243652, 28.56933617591858]	[24.465467858306223, 24.58213452496622, 25.565134524966222, 25.73183452496622, 26.48183452496622, 26.59850119162622, 26.715167858286218, 26.831834524946217, 26.948501191606216, 27.065167858266214, 27.181834524926213, 27.29850119158621, 27.41516785824621, 27.53183452490621, 27.648501191566208, 27.765167858226206, 27.881834524886205, 27.998501191546204, 28.115167858206203, 28.2318345248662, 28.3485011915262, 28.581834524859534]	2021_Feb_18_1324	59.86517752007136	1	0.375
31	6	FALSE	NV	a	['H', 'T', 'K', 'C', 'W', 'V', 'S', 'U', 'P', 'A', 'Y', 'X', 'G', 'Z', 'N', 'B']	[986, 1888, 1122, 829, 2448, 2245, 1731, 2059, 1456, 697, 2670, 4000, 944, 2911, 1335, 760]	12	Present	NA	NA	PRESENT	0.538362979888916	30.565895080566406	32.567131996154785	33.61714105600079	33.967143201748	36.68570303916931	4.118571043014526	[30.587177991867065, 30.70382308959961, 31.66902804374695, 31.855003118515015, 32.605892181396484, 32.72273302078247, 32.83940005302429, 32.9561231136322, 33.072938203811646, 33.18980407714844, 33.30659008026123, 33.423317193984985, 33.54019618034363, 33.65679407119751, 33.75694799423218, 33.87363910675049, 33.99058198928833, 34.10729503631592, 34.224048137664795, 34.340859174728394, 34.457656145095825, 34.68570399284363]	[30.581834524859534, 30.698501191519533, 31.681501191519533, 31.848201191519532, 32.598201191519536, 32.71486785817954, 32.83153452483954, 32.94820119149954, 33.064867858159545, 33.18153452481955, 33.29820119147955, 33.41486785813955, 33.531534524799554, 33.648201191459556, 33.76486785811956, 33.88153452477956, 33.99820119143956, 34.114867858099565, 34.23153452475957, 34.34820119141957, 34.46486785807957, 34.698201191412906]	2021_Feb_18_1324	59.86517752007136	1	0.375
31	7	FALSE	NA	a	['G', 'S', 'E', 'Y', 'B', 'K', 'C', 'A', 'V', 'Z', 'X', 'M', 'T', 'J', 'W', 'U']	[944, 1731, 904, 2670, 760, 1122, 829, 697, 2245, 2911, 4000, 1224, 1888, 1029, 2448, 2059]	11	Present	NA	NA	PRESENT	1.174774169921875	36.67224717140198	38.68344020843506	39.616781409528166	39.966783316856805	42.80207014083862	4.1186299324035645	[36.69353199005127, 36.81015706062317, 37.785391092300415, 37.96149206161499, 38.71266198158264, 38.829095125198364, 38.946027994155884, 39.062772035598755, 39.179609060287476, 39.29623317718506, 39.41312098503113, 39.529792070388794, 39.64644718170166, 39.76343297958374, 39.88009715080261, 39.9969642162323, 40.11368417739868, 40.230693101882935, 40.34732508659363, 40.464309215545654, 40.58106207847595, 40.80207014083862]	[36.698201191412906, 36.81486785807291, 37.797867858072905, 37.964567858072904, 38.714567858072904, 38.831234524732906, 38.94790119139291, 39.06456785805291, 39.18123452471291, 39.297901191372915, 39.41456785803292, 39.53123452469292, 39.64790119135292, 39.764567858012924, 39.88123452467293, 39.99790119133293, 40.11456785799293, 40.23123452465293, 40.347901191312936, 40.46456785797294, 40.58123452463294, 40.814567857966274]	2021_Feb_18_1324	59.86517752007136	1	0.375
31	8	FALSE	NV	a	['B', 'J', 'E', 'C', 'A', 'W', 'R', 'X', 'P', 'M', 'Y', 'Z', 'V', 'H', 'K', 'U']	[760, 1029, 904, 829, 697, 2448, 1587, 4000, 1456, 1224, 2670, 2911, 2245, 986, 1122, 2059]	8	Present	NA	NA	PRESENT	1.4431519508361816	42.79544019699097	44.79951310157776	45.382854541109445	45.73285549476376	48.91843605041504	4.11892294883728	[42.81672406196594, 42.93342709541321, 43.90175819396973, 44.08483600616455, 44.83544206619263, 44.95224714279175, 45.069149017333984, 45.18589401245117, 45.30254912376404, 45.41947603225708, 45.53638219833374, 45.653189182281494, 45.769917011260986, 45.88653111457825, 46.00322699546814, 46.120118141174316, 46.23685812950134, 46.35380411148071, 46.47046899795532, 46.58728504180908, 46.70410513877869, 46.91843605041504]	[42.814567857966274, 42.93123452462628, 43.91423452462627, 44.08093452462627, 44.83093452462627, 44.947601191286275, 45.06426785794628, 45.18093452460628, 45.29760119126628, 45.41426785792628, 45.530934524586286, 45.64760119124629, 45.76426785790629, 45.88093452456629, 45.997601191226295, 46.1142678578863, 46.2309345245463, 46.3476011912063, 46.464267857866304, 46.580934524526306, 46.69760119118631, 46.93093452451964]	2021_Feb_18_1324	59.86517752007136	1	0.375
31	9	FALSE	NN	a	['Y', 'U', 'C', 'R', 'B', 'T', 'N', 'E', 'K', 'S', 'P', 'H', 'V', 'G', 'Z', 'J']	[2670, 2059, 829, 1587, 760, 1888, 1335, 904, 1122, 1731, 1456, 986, 2245, 944, 2911, 1029]	10	Absent	NA	NA	ABSENT	0.5765769481658936	48.91852307319641	50.916054010391235	51.732728783242926	52.08273069057156	55.03480410575867	4.118750095367432	[48.93980813026428, 49.039788007736206, 50.018126010894775, 50.190996170043945, 50.94179105758667, 51.05868315696716, 51.1756010055542, 51.29225206375122, 51.409215211868286, 51.525827169418335, 51.642839193344116, 51.759427070617676, 51.87645220756531, 51.99300408363342, 52.10995411872864, 52.22663617134094, 52.34347200393677, 52.4602952003479, 52.576956033706665, 52.69381499290466, 52.81066298484802, 53.03480410575867]	[48.93093452451964, 49.047601191179645, 50.03060119117964, 50.19730119117964, 50.94730119117964, 51.06396785783964, 51.180634524499645, 51.29730119115965, 51.41396785781965, 51.53063452447965, 51.647301191139654, 51.763967857799656, 51.88063452445966, 51.99730119111966, 52.11396785777966, 52.230634524439665, 52.34730119109967, 52.46396785775967, 52.58063452441967, 52.697301191079674, 52.81396785773968, 53.04730119107301]	2021_Feb_18_1324	59.86517752007136	1	0.375
31	10	FALSE	NA	a	['N', 'P', 'C', 'B', 'Y', 'G', 'U', 'V', 'K', 'R', 'T', 'X', 'H', 'W', 'J', 'A']	[1335, 1456, 829, 760, 2670, 944, 2059, 2245, 1122, 1587, 1888, 4000, 986, 2448, 1029, 697]	12	Present	NA	NA	PRESENT	0.16530203819274902	55.02517104148865	57.03231620788574	58.08232407563885	58.43232598296749	61.15117001533508	4.118853807449341	[55.04646706581116, 55.16309118270874, 56.13449501991272, 56.314470052719116, 57.06521821022034, 57.1819531917572, 57.29889416694641, 57.41557812690735, 57.532188177108765, 57.649219036102295, 57.76602911949158, 57.88275408744812, 57.999383211135864, 58.11632800102234, 58.23289918899536, 58.350131034851074, 58.466517210006714, 58.58328604698181, 58.70009112358093, 58.81704020500183, 58.93380904197693, 59.15117120742798]	[55.04730119107301, 55.16396785773301, 56.14696785773301, 56.31366785773301, 57.06366785773301, 57.18033452439301, 57.29700119105301, 57.413667857713016, 57.53033452437302, 57.64700119103302, 57.76366785769302, 57.880334524353025, 57.99700119101303, 58.11366785767303, 58.23033452433303, 58.34700119099303, 58.463667857653036, 58.58033452431304, 58.69700119097304, 58.81366785763304, 58.930334524293045, 59.16366785762638]	2021_Feb_18_1324	59.86517752007136	1	0.375
31	11	FALSE	AA	a	['V', 'B', 'R', 'E', 'W', 'K', 'J', 'M', 'surprise', 'N', 'H', 'X', 'C', 'G', 'Z', 'Y']	[2245, 760, 1587, 904, 2448, 1122, 1029, 1224, 'stimAuditory/all_stimAuditory/115.wav', 1335, 986, 4000, 829, 944, 2911, 2670]	12	Present	stimAuditory/all_stimAuditory/123.wav	NA	PRESENT	0.274569034576416	61.14826011657715	63.148765087127686	64.19877200120648	64.54877414695369	67.2675371170044	4.118772029876709	[61.16954302787781, 61.286460161209106, 62.250861167907715, 62.43757200241089, 63.188175201416016, 63.30519509315491, 63.42192316055298, 63.538801193237305, 63.638710021972656, 63.75550413131714, 63.87223505973816, 63.98908710479736, 64.10588312149048, 64.22276401519775, 64.33934307098389, 64.45615911483765, 64.57297205924988, 64.6897292137146, 64.80654215812683, 64.92341613769531, 65.0401680469513, 65.26753616333008]	[61.16366785762638, 61.28033452428638, 62.26333452428638, 62.43003452428638, 63.18003452428638, 63.29670119094638, 63.41336785760638, 63.530034524266384, 63.646701190926386, 63.76336785758639, 63.88003452424639, 63.99670119090639, 64.11336785756639, 64.23003452422638, 64.34670119088638, 64.46336785754637, 64.58003452420637, 64.69670119086636, 64.81336785752636, 64.93003452418635, 65.04670119084635, 65.28003452417968]	2021_Feb_18_1324	59.86517752007136	1	0.375
31	12	FALSE	NN	a	['K', 'E', 'U', 'W', 'C', 'N', 'T', 'P', 'A', 'R', 'Y', 'Z', 'V', 'M', 'G', 'B']	[1122, 904, 2059, 2448, 829, 1335, 1888, 1456, 697, 1587, 2670, 2911, 2245, 1224, 944, 760]	14	Absent	NA	NA	ABSENT	1.7992918491363523	67.2547390460968	69.26500821113586	70.54834845853466	70.8983503658633	73.38390302658081	4.118894815444946	[67.27602314949036, 67.39291906356812, 68.36722421646118, 68.54439401626587, 69.29476618766785, 69.41148400306702, 69.52848601341248, 69.64522004127502, 69.76207304000854, 69.87879300117493, 69.99538707733154, 70.11244702339172, 70.22925519943237, 70.34593510627747, 70.46254110336304, 70.57957220077515, 70.69641613960266, 70.81295013427734, 70.92981219291687, 71.04675221443176, 71.16339707374573, 71.38390302658081]	[67.28003452417968, 67.39670119083968, 68.37970119083968, 68.54640119083969, 69.29640119083969, 69.41306785749968, 69.52973452415968, 69.64640119081967, 69.76306785747967, 69.87973452413966, 69.99640119079966, 70.11306785745965, 70.22973452411965, 70.34640119077964, 70.46306785743964, 70.57973452409963, 70.69640119075963, 70.81306785741963, 70.92973452407962, 71.04640119073962, 71.16306785739961, 71.39640119073294]	2021_Feb_18_1324	59.86517752007136	1	0.375
31	13	FALSE	NA	a	['H', 'U', 'M', 'S', 'R', 'E', 'P', 'X', 'J', 'W', 'Y', 'B', 'T', 'Z', 'K', 'C']	[986, 2059, 1224, 1731, 1587, 904, 1456, 4000, 1029, 2448, 2670, 760, 1888, 2911, 1122, 829]	8	Present	NA	NA	PRESENT	0.13948917388916016	73.37798118591309	75.3817491531372	75.965089400576	76.31509154632322	79.50027012825012	4.118520975112915	[73.39926505088806, 73.5159981250763, 74.48359608650208, 74.6672101020813, 75.41795706748962, 75.5347831249237, 75.65142512321472, 75.76848101615906, 75.88506007194519, 76.00199317932129, 76.11872410774231, 76.23548412322998, 76.35231113433838, 76.46924710273743, 76.58586812019348, 76.70267820358276, 76.81953501701355, 76.93632698059082, 77.05318403244019, 77.16988015174866, 77.28679919242859, 77.50027012825012]	[73.39640119073294, 73.51306785739294, 74.49606785739294, 74.66276785739295, 75.41276785739295, 75.52943452405295, 75.64610119071294, 75.76276785737294, 75.87943452403293, 75.99610119069293, 76.11276785735292, 76.22943452401292, 76.34610119067291, 76.4627678573329, 76.5794345239929, 76.6961011906529, 76.81276785731289, 76.92943452397289, 77.04610119063288, 77.16276785729288, 77.27943452395287, 77.5127678572862]	2021_Feb_18_1324	59.86517752007136	1	0.375
31	14	FALSE	NA	a	['Y', 'M', 'A', 'R', 'H', 'Z', 'G', 'P', 'C', 'N', 'T', 'V', 'U', 'X', 'K', 'S']	[2670, 1224, 697, 1587, 986, 2911, 944, 1456, 829, 1335, 1888, 2245, 2059, 4000, 1122, 1731]	14	Present	NA	NA	PRESENT	0.2970569133758545	79.48447012901306	81.49776601791382	82.7811065037312	83.13110841105983	85.61663699150085	4.118870973587036	[79.50575399398804, 79.62237906455994, 80.59996008872986, 80.77376413345337, 81.52428102493286, 81.64119410514832, 81.75812315940857, 81.87473106384277, 81.99176216125488, 82.10839319229126, 82.22528219223022, 82.3421061038971, 82.45876216888428, 82.57568001747131, 82.69223499298096, 82.80904912948608, 82.92576217651367, 83.04273319244385, 83.15962815284729, 83.27635598182678, 83.39300417900085, 83.61663699150085]	[79.5127678572862, 79.6294345239462, 80.6124345239462, 80.77913452394621, 81.52913452394621, 81.6458011906062, 81.7624678572662, 81.8791345239262, 81.99580119058619, 82.11246785724619, 82.22913452390618, 82.34580119056618, 82.46246785722617, 82.57913452388617, 82.69580119054616, 82.81246785720616, 82.92913452386615, 83.04580119052615, 83.16246785718614, 83.27913452384614, 83.39580119050613, 83.62913452383947]	2021_Feb_18_1324	59.86517752007136	1	0.375
31	15	FALSE	AV	a	['R', 'V', 'E', 'U', 'J', 'H', 'surprise', 'C', 'S', 'X', 'P', 'G', 'Z', 'M', 'N', 'A']	[1587, 2245, 904, 2059, 1029, 986, 'stimAuditory/all_stimAuditory/112.wav', 829, 1731, 4000, 1456, 944, 2911, 1224, 1335, 697]	10	Present	stimAuditory/all_stimAuditory/115.wav	NA	PRESENT	0.31736302375793457	85.60762310028076	87.61421608924866	88.43088967000745	88.78089181575466	91.73300409317017	4.118788003921509	[85.62890720367432, 85.7455461025238, 86.71633005142212, 86.89695310592651, 87.64755010604858, 87.76450800895691, 87.88115501403809, 87.99806213378906, 88.11472415924072, 88.23159503936768, 88.34836220741272, 88.46523118019104, 88.58188605308533, 88.69883418083191, 88.81563305854797, 88.93240213394165, 89.04914402961731, 89.1660270690918, 89.28263401985168, 89.39982199668884, 89.5162661075592, 89.73300313949585]	[85.62913452383947, 85.74580119049946, 86.72880119049947, 86.89550119049947, 87.64550119049947, 87.76216785715947, 87.87883452381946, 87.99550119047946, 88.11216785713945, 88.22883452379945, 88.34550119045944, 88.46216785711944, 88.57883452377943, 88.69550119043943, 88.81216785709942, 88.92883452375942, 89.04550119041942, 89.16216785707941, 89.2788345237394, 89.3955011903994, 89.5121678570594, 89.74550119039273]	2021_Feb_18_1324	59.86517752007136	1	0.375
31	16	FALSE	NV	a	['C', 'P', 'J', 'M', 'V', 'S', 'E', 'X', 'H', 'A', 'W', 'Z', 'K', 'U', 'B', 'G']	[829, 1456, 1029, 1224, 2245, 1731, 904, 4000, 986, 697, 2448, 2911, 1122, 2059, 760, 944]	8	Present	NA	NA	PRESENT	0.17069697380065918	91.7308599948883	93.73049712181091	94.31383736924973	94.66384046867124	97.84936904907228	4.1188719272613525	[91.75215411186218, 91.86869215965271, 92.8326940536499, 93.02021312713623, 93.77092504501343, 93.87081098556519, 93.98755598068237, 94.10438203811646, 94.22118520736694, 94.33788919448853, 94.454745054245, 94.57151103019714, 94.68830513954163, 94.80511116981506, 94.92189812660217, 95.03883504867554, 95.15541005134583, 95.27239918708801, 95.38920402526855, 95.50596499443054, 95.62259912490845, 95.84936904907227]	[91.74550119039273, 91.86216785705273, 92.84516785705273, 93.01186785705274, 93.76186785705274, 93.87853452371273, 93.99520119037273, 94.11186785703272, 94.22853452369272, 94.34520119035271, 94.4618678570127, 94.5785345236727, 94.6952011903327, 94.81186785699269, 94.92853452365269, 95.04520119031268, 95.16186785697268, 95.27853452363267, 95.39520119029267, 95.51186785695266, 95.62853452361266, 95.86186785694599]	2021_Feb_18_1324	59.86517752007136	1	0.375
31	17	FALSE	NN	a	['T', 'Y', 'W', 'K', 'E', 'C', 'A', 'V', 'N', 'M', 'P', 'R', 'G', 'Z', 'H', 'U']	[1888, 2670, 2448, 1122, 904, 829, 697, 2245, 1335, 1224, 1456, 1587, 944, 2911, 986, 2059]	12	Absent	NA	NA	ABSENT	0.3432450294494629	97.837229013443	99.84702014923096	100.89702801698408	101.24703016273128	103.96573615074158	4.11871600151062	[97.85851311683655, 97.97517800331116, 98.94906115531921, 99.12661409378052, 99.87756109237671, 99.99401211738586, 100.1107451915741, 100.22774910926819, 100.34455013275146, 100.46133017539978, 100.57799816131592, 100.69485020637512, 100.81157803535461, 100.92834115028381, 101.0450930595398, 101.16192507743835, 101.27872014045715, 101.39553904533386, 101.51224207878113, 101.62925314903259, 101.74583101272583, 101.96573615074158]	[97.86186785694599, 97.97853452360599, 98.96153452360599, 99.128234523606, 99.878234523606, 99.99490119026599, 100.11156785692599, 100.22823452358598, 100.34490119024598, 100.46156785690597, 100.57823452356597, 100.69490119022596, 100.81156785688596, 100.92823452354595, 101.04490119020595, 101.16156785686594, 101.27823452352594, 101.39490119018593, 101.51156785684593, 101.62823452350592, 101.74490119016592, 101.97823452349925]	2021_Feb_18_1324	59.86517752007136	1	0.375
31	18	FALSE	NN	a	['Y', 'C', 'J', 'E', 'P', 'K', 'Z', 'T', 'S', 'B', 'U', 'G', 'W', 'V', 'N', 'M']	[2670, 829, 1029, 904, 1456, 1122, 2911, 1888, 1731, 760, 2059, 944, 2448, 2245, 1335, 1224]	14	Absent	NA	NA	ABSENT	0.4198338985443115	103.96037220954896	105.96333599090576	107.24667743039744	107.59667933772609	110.0821042060852	4.118768215179443	[103.98165607452393, 104.09855198860168, 105.06542921066284, 105.2497661113739, 106.00039505958557, 106.11733913421631, 106.23398208618164, 106.35084414482117, 106.46757817268372, 106.58447909355164, 106.7013189792633, 106.81796312332153, 106.93467020988464, 107.0515730381012, 107.16856718063354, 107.28528618812561, 107.40218305587769, 107.51868200302124, 107.63560914993286, 107.75239706039429, 107.869136095047, 108.08210515975952]	[103.97823452349925, 104.09490119015925, 105.07790119015925, 105.24460119015926, 105.99460119015926, 106.11126785681925, 106.22793452347925, 106.34460119013924, 106.46126785679924, 106.57793452345923, 106.69460119011923, 106.81126785677922, 106.92793452343922, 107.04460119009921, 107.16126785675921, 107.2779345234192, 107.3946011900792, 107.5112678567392, 107.62793452339919, 107.74460119005919, 107.86126785671918, 108.09460119005251]	2021_Feb_18_1324	59.86517752007136	1	0.375
31	19	FALSE	NN	a	['T', 'V', 'P', 'U', 'R', 'G', 'Z', 'E', 'W', 'N', 'C', 'S', 'B', 'M', 'J', 'A']	[1888, 2245, 1456, 2059, 1587, 944, 2911, 904, 2448, 1335, 829, 1731, 760, 1224, 1029, 697]	11	Absent	NA	NA	ABSENT	0.7450859546661377	110.06706714630128	112.07982206344604	113.01316350295774	113.36316541028636	116.19847011566162	4.118648052215576	[110.08835005760193, 110.20483016967773, 111.18179607391357, 111.3561761379242, 112.10681200027466, 112.22374820709229, 112.34057116508484, 112.45732116699219, 112.57405519485474, 112.69085311889648, 112.80760598182678, 112.92445421218872, 113.04136109352112, 113.15814900398254, 113.27487301826477, 113.39180302619934, 113.50836300849915, 113.62531900405884, 113.7418839931488, 113.85882019996643, 113.9754741191864, 114.19847011566162]	[110.09460119005251, 110.21126785671251, 111.19426785671251, 111.36096785671252, 112.11096785671252, 112.22763452337252, 112.34430119003251, 112.4609678566925, 112.5776345233525, 112.6943011900125, 112.81096785667249, 112.92763452333249, 113.04430118999248, 113.16096785665248, 113.27763452331247, 113.39430118997247, 113.51096785663246, 113.62763452329246, 113.74430118995245, 113.86096785661245, 113.97763452327244, 114.21096785660578]	2021_Feb_18_1324	59.86517752007136	1	0.375
31	20	FALSE	NV	a	['K', 'U', 'N', 'C', 'R', 'Z', 'E', 'H', 'P', 'X', 'G', 'S', 'B', 'T', 'M', 'V']	[1122, 2059, 1335, 829, 1587, 2911, 904, 986, 1456, 4000, 944, 1731, 760, 1888, 1224, 2245]	10	Present	NA	NA	PRESENT	0.19768381118774417	116.1898820400238	118.19600105285645	119.01267582570811	119.36267868671108	122.31483697891235	4.118835926055908	[116.21116709709167, 116.3281421661377, 117.29816102981567, 117.47940707206726, 118.23005199432373, 118.3468701839447, 118.46357607841492, 118.5804979801178, 118.69739103317261, 118.81397819519043, 118.93076705932617, 119.04782199859619, 119.16438603401184, 119.28136706352234, 119.39835715293884, 119.51470899581909, 119.63169503211975, 119.74829506874084, 119.86517214775085, 119.98187613487244, 120.09868001937866, 120.31483602523804]	[116.21096785660578, 116.32763452326577, 117.31063452326578, 117.47733452326578, 118.22733452326578, 118.34400118992578, 118.46066785658577, 118.57733452324577, 118.69400118990576, 118.81066785656576, 118.92733452322575, 119.04400118988575, 119.16066785654574, 119.27733452320574, 119.39400118986573, 119.51066785652573, 119.62733452318572, 119.74400118984572, 119.86066785650571, 119.97733452316571, 120.0940011898257, 120.32733452315904]	2021_Feb_18_1324	59.86517752007136	1	0.375
31	21	FALSE	NV	a	['K', 'A', 'Y', 'Z', 'G', 'H', 'U', 'X', 'T', 'N', 'W', 'V', 'B', 'R', 'C', 'M']	[1122, 697, 2670, 2911, 944, 986, 2059, 4000, 1888, 1335, 2448, 2245, 760, 1587, 829, 1224]	8	Present	NA	NA	PRESENT	0.13097000122070312	122.3131251335144	124.31240701675416	124.89574845628584	125.24575036361448	128.43120312690735	4.118796110153198	[122.33440899848938, 122.45130014419556, 123.41452717781067, 123.58568406105042, 124.35333204269409, 124.45321798324585, 124.56999611854553, 124.68683314323425, 124.80377912521362, 124.92042708396912, 125.0372941493988, 125.15411305427551, 125.27082419395447, 125.38774299621582, 125.50438117980957, 125.62137198448181, 125.73801708221436, 125.85499000549316, 125.97152900695801, 126.08858299255371, 126.20520401000977, 126.43120312690735]	[122.32733452315904, 122.44400118981903, 123.42700118981904, 123.59370118981904, 124.34370118981904, 124.46036785647904, 124.57703452313903, 124.69370118979903, 124.81036785645902, 124.92703452311902, 125.04370118977901, 125.16036785643901, 125.277034523099, 125.393701189759, 125.510367856419, 125.62703452307899, 125.74370118973899, 125.86036785639898, 125.97703452305898, 126.09370118971897, 126.21036785637897, 126.4437011897123]	2021_Feb_18_1324	59.86517752007136	1	0.375
31	22	FALSE	NA	a	['T', 'U', 'P', 'S', 'J', 'V', 'N', 'C', 'A', 'X', 'M', 'W', 'E', 'Z', 'Y', 'G']	[1888, 2059, 1456, 1731, 1029, 2245, 1335, 829, 697, 4000, 1224, 2448, 904, 2911, 2670, 944]	10	Present	NA	NA	PRESENT	0.2718651294708252	128.4195671081543	130.42870497703552	131.2453787962129	131.59538070354154	134.54756999015808	4.118865013122559	[128.4408621788025, 128.55772304534912, 129.5308940410614, 129.70939207077026, 130.4598081111908, 130.5765781402588, 130.69327902793884, 130.81018805503845, 130.92680716514587, 131.04374313354492, 131.1606481075287, 131.27739310264587, 131.3940122127533, 131.5109419822693, 131.62780213356018, 131.7445170879364, 131.86135911941528, 131.97806406021118, 132.0949001312256, 132.2116551399231, 132.3284170627594, 132.54756999015808]	[128.4437011897123, 128.5603678563723, 129.5433678563723, 129.7100678563723, 130.4600678563723, 130.5767345230323, 130.69340118969228, 130.81006785635228, 130.92673452301227, 131.04340118967227, 131.16006785633226, 131.27673452299226, 131.39340118965225, 131.51006785631225, 131.62673452297224, 131.74340118963224, 131.86006785629223, 131.97673452295223, 132.09340118961222, 132.21006785627222, 132.3267345229322, 132.56006785626553]	2021_Feb_18_1324	59.86517752007136	1	0.375
31	23	FALSE	VV	a	['N', 'Z', 'H', 'B', 'A', 'C', 'S', 'E', 'J', 'W', 'surprise', 'K', 'M', 'X', 'Y', 'U']	[1335, 2911, 986, 760, 697, 829, 1731, 904, 1029, 2448, 'stimAuditory/all_stimAuditory/213.wav', 1122, 1224, 4000, 2670, 2059]	14	Present	NA	NA	PRESENT	0.34029197692871094	134.54285216331482	136.5451409816742	137.82848146749157	138.1784833748202	140.6639370918274	4.118796110153198	[134.56413507461548, 134.68107199668884, 135.64725708961487, 135.83208918571472, 136.5830361843109, 136.6997790336609, 136.81667113304138, 136.9332640171051, 137.05011200904846, 137.16690707206726, 137.28366112709045, 137.400377035141, 137.51719212532043, 137.63401913642883, 137.75100803375244, 137.86759400367737, 137.9845690727234, 138.1013331413269, 138.2180950641632, 138.33461499214172, 138.45151901245117, 138.6639370918274]	[134.56006785626553, 134.67673452292553, 135.65973452292553, 135.82643452292552, 136.57643452292552, 136.69310118958552, 136.80976785624551, 136.9264345229055, 137.0431011895655, 137.1597678562255, 137.2764345228855, 137.3931011895455, 137.50976785620549, 137.62643452286548, 137.74310118952548, 137.85976785618547, 137.97643452284547, 138.09310118950546, 138.20976785616546, 138.32643452282545, 138.44310118948545, 138.67643452281877]	2021_Feb_18_1324	59.86517752007136	1	0.375
31	24	FALSE	NA	a	['Y', 'S', 'U', 'V', 'P', 'A', 'H', 'J', 'G', 'B', 'R', 'E', 'X', 'Z', 'W', 'N']	[2670, 1731, 2059, 2245, 1456, 697, 986, 1029, 944, 760, 1587, 904, 4000, 2911, 2448, 1335]	13	Present	NA	NA	PRESENT	0.2974519729614258	140.64949107170105	142.6614670753479	143.8281406560867	144.1781428018339	146.7803041934967	4.118837118148804	[140.6707739830017, 140.78732109069824, 141.76362800598145, 141.93850898742676, 142.68933820724487, 142.80616807937622, 142.92285108566284, 143.03968620300293, 143.15665912628174, 143.27342915534973, 143.39019298553467, 143.506991147995, 143.62388801574707, 143.74065804481506, 143.85729503631592, 143.97415399551392, 144.0908830165863, 144.20766305923462, 144.32454013824463, 144.44131803512573, 144.55801510810852, 144.7803030014038]	[140.67643452281877, 140.79310118947876, 141.77610118947877, 141.94280118947876, 142.69280118947876, 142.80946785613875, 142.92613452279875, 143.04280118945874, 143.15946785611874, 143.27613452277873, 143.39280118943873, 143.50946785609872, 143.62613452275872, 143.7428011894187, 143.8594678560787, 143.9761345227387, 144.0928011893987, 144.2094678560587, 144.3261345227187, 144.44280118937868, 144.55946785603868, 144.792801189372]	2021_Feb_18_1324	59.86517752007136	1	0.375
31	25	FALSE	NV	a	['S', 'N', 'U', 'C', 'P', 'H', 'T', 'E', 'V', 'Y', 'M', 'X', 'W', 'B', 'J', 'Z']	[1731, 1335, 2059, 829, 1456, 986, 1888, 904, 2245, 2670, 1224, 4000, 2448, 760, 1029, 2911]	12	Present	NA	NA	PRESENT	1.1819860935211182	146.77237105369568	148.77798700332642	149.82799510949812	150.17799606315242	152.89667010307312	4.118683099746704	[146.79365611076355, 146.910471200943, 147.87999415397644, 148.06177711486816, 148.81247305870056, 148.92948818206787, 149.04611015319824, 149.16307020187378, 149.27988505363464, 149.396625995636, 149.51336812973022, 149.63011598587036, 149.74694514274597, 149.86362600326538, 149.98058915138245, 150.09736800193787, 150.21425604820251, 150.33102416992188, 150.44787406921387, 150.56428217887878, 150.68138003349304, 150.8966691493988]	[146.792801189372, 146.909467856032, 147.892467856032, 148.059167856032, 148.809167856032, 148.92583452269199, 149.04250118935198, 149.15916785601198, 149.27583452267197, 149.39250118933197, 149.50916785599196, 149.62583452265196, 149.74250118931195, 149.85916785597195, 149.97583452263194, 150.09250118929194, 150.20916785595193, 150.32583452261193, 150.44250118927192, 150.55916785593192, 150.6758345225919, 150.90916785592523]	2021_Feb_18_1324	59.86517752007136	1	0.375
31	26	FALSE	VV	a	['H', 'W', 'Z', 'E', 'K', 'M', 'surprise', 'S', 'T', 'X', 'J', 'C', 'A', 'V', 'U', 'N']	[986, 2448, 2911, 904, 1122, 1224, 'stimAuditory/all_stimAuditory/109.wav', 1731, 1888, 4000, 1029, 829, 697, 2245, 2059, 1335]	10	Present	NA	NA	PRESENT	0.7312870025634766	152.89571118354797	154.8942949771881	155.7109707037141	156.06097284946134	159.01303720474243	4.118742227554321	[152.91699409484863, 153.03355717658997, 153.99636220932007, 154.16823720932007, 154.935720205307, 155.03573203086853, 155.15251111984253, 155.26942110061646, 155.38607907295227, 155.5030221939087, 155.61969113349915, 155.7366600036621, 155.85331010818481, 155.9703550338745, 156.0868730545044, 156.20392417907715, 156.32050013542175, 156.4373791217804, 156.55410408973694, 156.6710832118988, 156.78762006759644, 157.01303720474243]	[152.90916785592523, 153.02583452258523, 154.00883452258523, 154.17553452258522, 154.92553452258522, 155.04220118924522, 155.1588678559052, 155.2755345225652, 155.3922011892252, 155.5088678558852, 155.6255345225452, 155.7422011892052, 155.85886785586518, 155.97553452252518, 156.09220118918518, 156.20886785584517, 156.32553452250517, 156.44220118916516, 156.55886785582516, 156.67553452248515, 156.79220118914515, 157.02553452247847]	2021_Feb_18_1324	59.86517752007136	1	0.375
31	27	FALSE	NA	a	['Y', 'A', 'K', 'U', 'M', 'J', 'N', 'H', 'E', 'G', 'T', 'R', 'X', 'C', 'B', 'S']	[2670, 697, 1122, 2059, 1224, 1029, 1335, 986, 904, 944, 1888, 1587, 4000, 829, 760, 1731]	13	Present	NA	NA	PRESENT	0.24764204025268555	159.0019850730896	161.01073002815247	162.17740384730985	162.52740670831278	165.12940311431885	4.118673086166382	[159.02326917648315, 159.1401550769806, 160.1127290725708, 160.29175901412964, 161.04222202301025, 161.15916800498962, 161.27588319778442, 161.39272618293762, 161.50932812690735, 161.6262559890747, 161.74292707443237, 161.85976815223694, 161.97696900367737, 162.09340500831604, 162.2101731300354, 162.32684707641602, 162.4438111782074, 162.56050419807434, 162.6775472164154, 162.79408597946167, 162.91098999977112, 163.12940406799316]	[159.02553452247847, 159.14220118913846, 160.12520118913847, 160.29190118913846, 161.04190118913846, 161.15856785579845, 161.27523452245845, 161.39190118911844, 161.50856785577844, 161.62523452243843, 161.74190118909843, 161.85856785575842, 161.97523452241842, 162.0919011890784, 162.2085678557384, 162.3252345223984, 162.4419011890584, 162.5585678557184, 162.6752345223784, 162.79190118903838, 162.90856785569838, 163.1419011890317]	2021_Feb_18_1324	59.86517752007136	1	0.375
31	28	FALSE	NA	a	['M', 'J', 'E', 'U', 'R', 'G', 'Z', 'X', 'N', 'C', 'H', 'S', 'Y', 'B', 'W', 'K']	[1224, 1029, 904, 2059, 1587, 944, 2911, 4000, 1335, 829, 986, 1731, 2670, 760, 2448, 1122]	8	Present	NA	NA	PRESENT	0.16542315483093262	165.12521600723267	167.12687611579895	167.71021731691206	168.06021946265926	171.24577021598816	4.118894100189209	[165.14650011062622, 165.26351499557495, 166.2290940284729, 166.4147810935974, 167.16537308692932, 167.28205704689026, 167.3991060256958, 167.5159821510315, 167.63259601593018, 167.74945902824402, 167.86630201339722, 167.9831039905548, 168.09973216056824, 168.21640300750732, 168.33346509933472, 168.45011520385742, 168.5671260356903, 168.66694712638855, 168.7837371826172, 168.9005641937256, 169.0172040462494, 169.24576902389526]	[165.1419011890317, 165.2585678556917, 166.2415678556917, 166.4082678556917, 167.1582678556917, 167.27493452235169, 167.39160118901168, 167.50826785567168, 167.62493452233167, 167.74160118899167, 167.85826785565166, 167.97493452231166, 168.09160118897165, 168.20826785563165, 168.32493452229164, 168.44160118895164, 168.55826785561163, 168.67493452227163, 168.79160118893162, 168.90826785559162, 169.0249345222516, 169.25826785558493]	2021_Feb_18_1324	59.86517752007136	1	0.375
31	29	FALSE	NV	a	['P', 'E', 'S', 'B', 'A', 'N', 'R', 'Y', 'H', 'J', 'G', 'V', 'K', 'X', 'M', 'Z']	[1456, 904, 1731, 760, 697, 1335, 1587, 2670, 986, 1029, 944, 2245, 1122, 4000, 1224, 2911]	14	Present	NA	NA	PRESENT	0.2816429138183594	171.2319610118866	173.2434000968933	174.5267403442921	174.8767424900393	177.3621370792389	4.118736982345581	[171.25324416160583, 171.3698751926422, 172.345458984375, 172.52120518684387, 173.27186608314514, 173.3887050151825, 173.50529408454895, 173.62235617637634, 173.73894500732422, 173.85588002204895, 173.9726860523224, 174.0894911289215, 174.2061891555786, 174.32309198379517, 174.43982100486755, 174.5567750930786, 174.67346119880676, 174.79032707214355, 174.90695714950562, 175.02384400367737, 175.1406831741333, 175.36213612556458]	[171.25826785558493, 171.37493452224493, 172.35793452224493, 172.52463452224492, 173.27463452224492, 173.39130118890492, 173.5079678555649, 173.6246345222249, 173.7413011888849, 173.8579678555449, 173.9746345222049, 174.0913011888649, 174.20796785552488, 174.32463452218488, 174.44130118884488, 174.55796785550487, 174.67463452216487, 174.79130118882486, 174.90796785548486, 175.02463452214485, 175.14130118880485, 175.37463452213817]	2021_Feb_18_1324	59.86517752007136	1	0.375
31	30	FALSE	AN	a	['H', 'P', 'R', 'U', 'A', 'E', 'G', 'K', 'B', 'surprise', 'Z', 'Y', 'S', 'N', 'V', 'M']	[986, 1456, 1587, 2059, 697, 904, 944, 1122, 760, 'stimAuditory/all_stimAuditory/220.wav', 2911, 2670, 1731, 1335, 2245, 1224]	13	Absent	stimAuditory/all_stimAuditory/112.wav	NA	ABSENT	0.3582179546356201	177.3548731803894	179.35961604118347	180.52628986034085	180.87629176766947	183.4785041809082	4.1188881397247314	[177.3761579990387, 177.49307417869568, 178.46182703971863, 178.64443111419678, 179.3952121734619, 179.51178216934204, 179.628653049469, 179.745343208313, 179.8622281551361, 179.97905015945435, 180.09569811820984, 180.21251320838928, 180.32978010177612, 180.44609308242798, 180.56304121017456, 180.679790019989, 180.79668307304382, 180.91325306892395, 181.03019404411316, 181.14711499214172, 181.26370906829834, 181.4785041809082]	[177.37463452213817, 177.49130118879816, 178.47430118879817, 178.64100118879816, 179.39100118879816, 179.50766785545815, 179.62433452211815, 179.74100118877814, 179.85766785543814, 179.97433452209813, 180.09100118875813, 180.20766785541812, 180.32433452207812, 180.4410011887381, 180.5576678553981, 180.6743345220581, 180.7910011887181, 180.9076678553781, 181.0243345220381, 181.14100118869808, 181.25766785535808, 181.4910011886914]	2021_Feb_18_1324	59.86517752007136	1	0.375
31	31	FALSE	NV	a	['N', 'Y', 'S', 'U', 'E', 'V', 'Z', 'X', 'K', 'A', 'B', 'W', 'G', 'M', 'H', 'J']	[1335, 2670, 1731, 2059, 904, 2245, 2911, 4000, 1122, 697, 760, 2448, 944, 1224, 986, 1029]	8	Present	NA	NA	PRESENT	0.1954560279846191	183.47814917564392	185.47609901428223	186.0594395001396	186.40944140746825	189.59487009048465	4.118771076202393	[183.4994330406189, 183.61620903015137, 184.57819414138794, 184.7507040500641, 185.51825308799744, 185.6183590888977, 185.73521208763123, 185.85199403762817, 185.96857810020447, 186.08558416366577, 186.20225310325623, 186.31910920143127, 186.43580412864685, 186.55271005630493, 186.6695191860199, 186.7863700389862, 186.90301418304443, 187.01976609230042, 187.13671207427979, 187.25352120399475, 187.37030506134033, 187.59487009048462]	[183.4910011886914, 183.6076678553514, 184.5906678553514, 184.7573678553514, 185.5073678553514, 185.62403452201139, 185.74070118867138, 185.85736785533138, 185.97403452199137, 186.09070118865137, 186.20736785531136, 186.32403452197136, 186.44070118863135, 186.55736785529135, 186.67403452195134, 186.79070118861134, 186.90736785527133, 187.02403452193133, 187.14070118859132, 187.25736785525132, 187.3740345219113, 187.60736785524463]	2021_Feb_18_1324	59.86517752007136	1	0.375
31	32	FALSE	NV	a	['J', 'C', 'U', 'R', 'S', 'H', 'A', 'X', 'M', 'N', 'W', 'P', 'V', 'G', 'T', 'Y']	[1029, 829, 2059, 1587, 1731, 986, 697, 4000, 1224, 1335, 2448, 1456, 2245, 944, 1888, 2670]	8	Present	NA	NA	PRESENT	0.24801206588745117	189.5846211910248	191.5925190448761	192.1758604844078	192.5258623917364	195.71123719215393	4.118718147277832	[189.60590410232544, 189.7226960659027, 190.69456100463867, 190.87421298027039, 191.62468314170837, 191.74149298667908, 191.8581771850586, 191.9751331806183, 192.0917751789093, 192.20869517326355, 192.32543802261353, 192.44209909439087, 192.5591630935669, 192.67593121528625, 192.79273915290833, 192.90952515602112, 193.02639818191528, 193.14316606521606, 193.25996208190918, 193.3767750263214, 193.493390083313, 193.71123600006104]	[189.60736785524463, 189.72403452190463, 190.70703452190463, 190.87373452190462, 191.62373452190462, 191.74040118856462, 191.8570678552246, 191.9737345218846, 192.0904011885446, 192.2070678552046, 192.3237345218646, 192.4404011885246, 192.55706785518458, 192.67373452184458, 192.79040118850457, 192.90706785516457, 193.02373452182457, 193.14040118848456, 193.25706785514456, 193.37373452180455, 193.49040118846455, 193.72373452179787]	2021_Feb_18_1324	59.86517752007136	1	0.375
31	33	FALSE	NV	a	['H', 'V', 'W', 'K', 'A', 'C', 'U', 'N', 'S', 'J', 'E', 'Y', 'X', 'M', 'G', 'B']	[986, 2245, 2448, 1122, 697, 829, 2059, 1335, 1731, 1029, 904, 2670, 4000, 1224, 944, 760]	13	Present	NA	NA	PRESENT	0.3175358772277832	195.70773601531985	197.708820104599	198.875495831105	199.22549678475932	201.82760310173035	4.118782997131348	[195.72902011871338, 195.84599804878235, 196.81092500686646, 196.99709916114807, 197.74779605865479, 197.86458706855774, 197.98182201385498, 198.09817600250244, 198.2151391506195, 198.33179998397827, 198.44879817962646, 198.5653941631317, 198.6821641921997, 198.78220200538635, 198.89894104003906, 199.01582598686218, 199.13255620002747, 199.2493600845337, 199.3661870956421, 199.48302817344666, 199.5998411178589, 199.82760214805603]	[195.72373452179787, 195.84040118845786, 196.82340118845786, 196.99010118845786, 197.74010118845786, 197.85676785511785, 197.97343452177785, 198.09010118843784, 198.20676785509784, 198.32343452175783, 198.44010118841783, 198.55676785507782, 198.67343452173782, 198.7901011883978, 198.9067678550578, 199.0234345217178, 199.1401011883778, 199.2567678550378, 199.3734345216978, 199.49010118835778, 199.60676785501778, 199.8401011883511]	2021_Feb_18_1324	59.86517752007136	1	0.375
31	34	FALSE	NV	a	['Y', 'B', 'N', 'J', 'T', 'H', 'P', 'S', 'V', 'U', 'A', 'X', 'R', 'G', 'M', 'E']	[2670, 760, 1335, 1029, 1888, 986, 1456, 1731, 2245, 2059, 697, 4000, 1587, 944, 1224, 904]	12	Present	NA	NA	PRESENT	0.2978959083557129	201.81454205513	203.8251421451569	204.87515001291	205.2251521586572	207.9439702033997	4.118828058242798	[201.8358280658722, 201.95234203338623, 202.9272940158844, 203.10368609428406, 203.85424304008484, 203.97111701965332, 204.087886095047, 204.2048192024231, 204.32148814201355, 204.43845415115356, 204.55508708953857, 204.6720371246338, 204.78870511054993, 204.90543699264526, 205.02233505249023, 205.13915014266968, 205.25590920448303, 205.37271118164062, 205.48942303657532, 205.60618209838867, 205.72304701805115, 205.94396901130676]	[201.8401011883511, 201.9567678550111, 202.9397678550111, 203.1064678550111, 203.8564678550111, 203.97313452167108, 204.08980118833108, 204.20646785499108, 204.32313452165107, 204.43980118831107, 204.55646785497106, 204.67313452163106, 204.78980118829105, 204.90646785495105, 205.02313452161104, 205.13980118827104, 205.25646785493103, 205.37313452159103, 205.48980118825102, 205.60646785491102, 205.723134521571, 205.95646785490433]	2021_Feb_18_1324	59.86517752007136	1	0.375
31	35	FALSE	NV	a	['T', 'U', 'V', 'W', 'K', 'J', 'M', 'H', 'X', 'S', 'Y', 'Z', 'A', 'R', 'C', 'N']	[1888, 2059, 2245, 2448, 1122, 1029, 1224, 986, 4000, 1731, 2670, 2911, 697, 1587, 829, 1335]	9	Present	NA	NA	PRESENT	0.32642197608947754	207.93739199638367	209.9416060447693	210.64161319728663	210.9916151046153	214.0603370666504	4.1187310218811035	[207.95867609977722, 208.0755410194397, 209.04366207122803, 209.2268431186676, 209.97776913642883, 210.09445810317993, 210.2110321521759, 210.32787418365479, 210.44476199150085, 210.56153321266174, 210.67841601371765, 210.79497003555298, 210.91198110580444, 211.02858018875122, 211.14547109603882, 211.26217603683472, 211.37939715385437, 211.49577403068542, 211.6128170490265, 211.72938108444214, 211.8463191986084, 212.0603370666504]	[207.95646785490433, 208.07313452156433, 209.05613452156433, 209.22283452156432, 209.97283452156432, 210.08950118822432, 210.2061678548843, 210.3228345215443, 210.4395011882043, 210.5561678548643, 210.6728345215243, 210.7895011881843, 210.90616785484428, 211.02283452150428, 211.13950118816427, 211.25616785482427, 211.37283452148426, 211.48950118814426, 211.60616785480426, 211.72283452146425, 211.83950118812425, 212.07283452145757]	2021_Feb_18_1324	59.86517752007136	1	0.375
31	36	FALSE	NA	a	['N', 'E', 'R', 'M', 'Y', 'H', 'C', 'X', 'T', 'G', 'V', 'K', 'U', 'Z', 'W', 'A']	[1335, 904, 1587, 1224, 2670, 986, 829, 4000, 1888, 944, 2245, 1122, 2059, 2911, 2448, 697]	8	Present	NA	NA	PRESENT	0.2835719585418701	214.06082201004028	216.05784106254575	216.64118250207747	216.9911844094061	220.1767041683197	4.118863105773926	[214.08210515975952, 214.18188309669495, 215.16002798080444, 215.33315300941467, 216.08399510383606, 216.20083904266357, 216.3177421092987, 216.43442606925964, 216.55105018615723, 216.66803312301636, 216.78468799591064, 216.90159511566162, 217.01831007003784, 217.13523721694946, 217.25195503234863, 217.36876702308655, 217.4854941368103, 217.60227799415588, 217.71905303001404, 217.83586311340332, 217.9527771472931, 218.1767041683197]	[214.07283452145757, 214.18950118811756, 215.17250118811756, 215.33920118811756, 216.08920118811756, 216.20586785477755, 216.32253452143755, 216.43920118809754, 216.55586785475754, 216.67253452141753, 216.78920118807753, 216.90586785473752, 217.02253452139752, 217.1392011880575, 217.2558678547175, 217.3725345213775, 217.4892011880375, 217.6058678546975, 217.7225345213575, 217.83920118801748, 217.95586785467748, 218.1892011880108]	2021_Feb_18_1324	59.86517752007136	1	0.375
31	37	FALSE	NN	a	['N', 'V', 'M', 'B', 'Z', 'U', 'T', 'S', 'K', 'W', 'G', 'A', 'P', 'E', 'C', 'J']	[1335, 2245, 1224, 760, 2911, 2059, 1888, 1731, 1122, 2448, 944, 697, 1456, 904, 829, 1029]	10	Absent	NA	NA	ABSENT	0.5522820949554443	220.167072057724	222.1743130683899	222.9909878412416	223.34098974857025	226.29307007789612	4.118757009506226	[220.18835616111755, 220.30523419380188, 221.27639508247375, 221.45667219161987, 222.20722103118896, 222.32391810417175, 222.44072008132935, 222.55765199661255, 222.67444014549255, 222.79105710983276, 222.90805006027222, 223.02468013763428, 223.14171314239502, 223.25830698013306, 223.37526202201843, 223.49195218086243, 223.60877299308777, 223.72554111480713, 223.84234619140625, 223.95914506912231, 224.07580018043518, 224.2930691242218]	[220.1892011880108, 220.3058678546708, 221.2888678546708, 221.4555678546708, 222.2055678546708, 222.32223452133078, 222.43890118799078, 222.55556785465077, 222.67223452131077, 222.78890118797077, 222.90556785463076, 223.02223452129076, 223.13890118795075, 223.25556785461075, 223.37223452127074, 223.48890118793074, 223.60556785459073, 223.72223452125073, 223.83890118791072, 223.95556785457072, 224.0722345212307, 224.30556785456403]	2021_Feb_18_1324	59.86517752007136	1	0.375
31	38	FALSE	NV	a	['W', 'G', 'C', 'J', 'H', 'A', 'N', 'Z', 'R', 'V', 'K', 'S', 'E', 'X', 'P', 'M']	[2448, 944, 829, 1029, 986, 697, 1335, 2911, 1587, 2245, 1122, 1731, 904, 4000, 1456, 1224]	14	Present	NA	NA	PRESENT	0.2215361595153809	226.29033613204956	228.29075407981873	229.57409432721752	229.92409647296472	232.40943598747253	4.118681907653809	[226.31161904335022, 226.42851400375366, 227.39276003837585, 227.57970905303955, 228.33047008514404, 228.44712615013123, 228.56408405303955, 228.66383814811707, 228.7806429862976, 228.89747214317322, 229.0142900943756, 229.13109803199768, 229.2478141784668, 229.36469411849976, 229.48151516914368, 229.5982301235199, 229.71502709388733, 229.8318681716919, 229.9485731124878, 230.06568002700806, 230.18242120742798, 230.40943598747253]	[226.30556785456403, 226.42223452122403, 227.40523452122403, 227.57193452122402, 228.32193452122402, 228.43860118788402, 228.555267854544, 228.671934521204, 228.788601187864, 228.905267854524, 229.021934521184, 229.138601187844, 229.25526785450398, 229.37193452116398, 229.48860118782397, 229.60526785448397, 229.72193452114396, 229.83860118780396, 229.95526785446395, 230.07193452112395, 230.18860118778395, 230.42193452111727]	2021_Feb_18_1324	59.86517752007136	1	0.375
31	39	FALSE	NA	a	['S', 'A', 'Z', 'E', 'N', 'K', 'U', 'G', 'B', 'W', 'J', 'M', 'P', 'X', 'V', 'C']	[1731, 697, 2911, 904, 1335, 1122, 2059, 944, 760, 2448, 1029, 1224, 1456, 4000, 2245, 829]	14	Present	NA	NA	PRESENT	0.3699979782104492	232.39699411392212	234.40713810920715	235.69048050237316	236.04048240970175	238.52580404281616	4.118665933609009	[232.41827702522278, 232.5349771976471, 233.50912809371948, 233.6859450340271, 234.4368450641632, 234.55383920669556, 234.67048907279968, 234.7873020172119, 234.90400004386902, 235.02072715759277, 235.13758420944214, 235.25423121452332, 235.3712191581726, 235.48805499076843, 235.6047601699829, 235.7214231491089, 235.83835911750793, 235.95511102676392, 236.0719861984253, 236.1886341571808, 236.30565309524536, 236.52580308914185]	[232.42193452111727, 232.53860118777726, 233.52160118777726, 233.68830118777726, 234.43830118777726, 234.55496785443725, 234.67163452109725, 234.78830118775724, 234.90496785441724, 235.02163452107723, 235.13830118773723, 235.25496785439722, 235.37163452105722, 235.4883011877172, 235.6049678543772, 235.7216345210372, 235.8383011876972, 235.9549678543572, 236.0716345210172, 236.18830118767718, 236.30496785433718, 236.5383011876705]	2021_Feb_18_1324	59.86517752007136	1	0.375
31	40	FALSE	NA	a	['K', 'R', 'S', 'M', 'A', 'H', 'W', 'C', 'X', 'V', 'P', 'Z', 'B', 'T', 'G', 'J']	[1122, 1587, 1731, 1224, 697, 986, 2448, 829, 4000, 2245, 1456, 2911, 760, 1888, 944, 1029]	9	Present	NA	NA	PRESENT	0.5107619762420654	238.51991319656372	240.52332520484924	241.22333307262235	241.573334979951	244.64216899871823	4.1188437938690186	[238.541198015213, 238.65804600715637, 239.6254961490631, 239.80924320220947, 240.5601019859314, 240.67682313919067, 240.7937090396881, 240.9103569984436, 241.02723503112793, 241.1440351009369, 241.26082301139832, 241.377601146698, 241.49437499046326, 241.61110615730286, 241.72810101509094, 241.844642162323, 241.96163320541382, 242.07846021652222, 242.19525003433228, 242.3121781349182, 242.4287440776825, 242.64217019081116]	[238.5383011876705, 238.6549678543305, 239.6379678543305, 239.8046678543305, 240.5546678543305, 240.67133452099048, 240.78800118765048, 240.90466785431047, 241.02133452097047, 241.13800118763046, 241.25466785429046, 241.37133452095046, 241.48800118761045, 241.60466785427045, 241.72133452093044, 241.83800118759044, 241.95466785425043, 242.07133452091043, 242.18800118757042, 242.30466785423042, 242.4213345208904, 242.65466785422373]	2021_Feb_18_1324	59.86517752007136	1	0.375
31	41	FALSE	NV	a	['B', 'T', 'G', 'K', 'S', 'P', 'E', 'R', 'X', 'U', 'W', 'V', 'Y', 'H', 'A', 'Z']	[760, 1888, 944, 1122, 1731, 1456, 904, 1587, 4000, 2059, 2448, 2245, 2670, 986, 697, 2911]	9	Present	NA	NA	PRESENT	0.13193297386169434	244.62630605697632	246.6397910118103	247.33979816432768	247.68980102533064	250.7585370540619	4.118746042251587	[244.64758920669556, 244.76442909240723, 245.7418601512909, 245.91567707061768, 246.66638612747192, 246.78340005874634, 246.9001932144165, 247.01675415039062, 247.1335780620575, 247.25047516822815, 247.36725902557373, 247.48405003547668, 247.60084319114685, 247.71770906448364, 247.83441615104675, 247.95115900039673, 248.06806302070618, 248.18467116355896, 248.3017201423645, 248.4183030128479, 248.53546905517578, 248.7585370540619]	[244.65466785422373, 244.77133452088373, 245.75433452088373, 245.92103452088372, 246.67103452088372, 246.78770118754372, 246.9043678542037, 247.0210345208637, 247.1377011875237, 247.2543678541837, 247.3710345208437, 247.4877011875037, 247.60436785416368, 247.72103452082368, 247.83770118748367, 247.95436785414367, 248.07103452080366, 248.18770118746366, 248.30436785412365, 248.42103452078365, 248.53770118744364, 248.77103452077696]	2021_Feb_18_1324	59.86517752007136	1	0.375
31	42	FALSE	NA	a	['H', 'R', 'T', 'P', 'M', 'W', 'G', 'V', 'J', 'K', 'U', 'B', 'X', 'A', 'N', 'S']	[986, 1587, 1888, 1456, 1224, 2448, 944, 2245, 1029, 1122, 2059, 760, 4000, 697, 1335, 1731]	13	Present	NA	NA	PRESENT	0.5284428596496582	250.74959516525269	252.7560532093048	253.9227267900436	254.27272965104655	256.8749041557312	4.118850946426392	[250.77087807655334, 250.88781118392944, 251.858225107193, 252.0388810634613, 252.79008507728577, 252.90662717819214, 253.02336502075195, 253.14004707336426, 253.2567811012268, 253.37355613708496, 253.49040412902832, 253.60707116127014, 253.72404503822327, 253.84092903137207, 253.95767617225647, 254.07423520088196, 254.19106698036194, 254.30789613723755, 254.4248390197754, 254.54151010513306, 254.65843510627747, 254.87490320205688]	[250.77103452077696, 250.88770118743696, 251.87070118743696, 252.03740118743696, 252.78740118743696, 252.90406785409695, 253.02073452075695, 253.13740118741694, 253.25406785407694, 253.37073452073693, 253.48740118739693, 253.60406785405692, 253.72073452071692, 253.8374011873769, 253.9540678540369, 254.0707345206969, 254.1874011873569, 254.3040678540169, 254.4207345206769, 254.53740118733688, 254.65406785399688, 254.8874011873302]	2021_Feb_18_1324	59.86517752007136	1	0.375
31	43	FALSE	NA	a	['K', 'U', 'V', 'W', 'R', 'P', 'C', 'S', 'G', 'M', 'B', 'X', 'A', 'N', 'E', 'J']	[1122, 2059, 2245, 2448, 1587, 1456, 829, 1731, 944, 1224, 760, 4000, 697, 1335, 904, 1029]	12	Present	NA	NA	ABSENT	1.7417800426483154	256.8727660179138	258.8725571632385	259.9225650309916	260.27256717673885	262.9912691116333	4.118711948394775	[256.89404916763306, 257.0109632015228, 257.97459602355957, 258.16223907470703, 258.91293716430664, 259.0128951072693, 259.1296720504761, 259.24644017219543, 259.3631830215454, 259.4799702167511, 259.5967230796814, 259.71356415748596, 259.83038115501404, 259.9473121166229, 260.06389713287354, 260.180703163147, 260.2976551055908, 260.41450715065, 260.53131198883057, 260.6480371952057, 260.7648730278015, 260.9912700653076]	[256.88740118733017, 257.0040678539902, 257.9870678539902, 258.1537678539902, 258.9037678539902, 259.0204345206502, 259.13710118731024, 259.25376785397026, 259.3704345206303, 259.4871011872903, 259.60376785395033, 259.72043452061035, 259.8371011872704, 259.9537678539304, 260.0704345205904, 260.18710118725045, 260.3037678539105, 260.4204345205705, 260.5371011872305, 260.65376785389054, 260.77043452055057, 261.0037678538839]	2021_Feb_18_1324	59.86517752007136	1	0.375
31	44	FALSE	NA	a	['Z', 'C', 'G', 'A', 'R', 'Y', 'V', 'S', 'H', 'W', 'U', 'T', 'E', 'X', 'N', 'J']	[2911, 829, 944, 697, 1587, 2670, 2245, 1731, 986, 2448, 2059, 1888, 904, 4000, 1335, 1029]	14	Present	NA	NA	PRESENT	0.2503321170806885	262.9792010784149	264.98910212516785	266.2724423725666	266.62244451831384	269.10763716697693	4.118535041809082	[263.0004861354828, 263.1173071861267, 264.0909640789032, 264.26859307289124, 265.0192770957947, 265.1361939907074, 265.2529602050781, 265.3697941303253, 265.48637318611145, 265.60339617729187, 265.7200231552124, 265.8367600440979, 265.95369005203247, 266.0703570842743, 266.18737506866455, 266.3039000034332, 266.4209461212158, 266.53757405281067, 266.6545670032501, 266.77121114730835, 266.88783407211304, 267.1076362133026]	[263.0037678538839, 263.12043452054394, 264.10343452054394, 264.27013452054393, 265.02013452054393, 265.13680118720396, 265.253467853864, 265.370134520524, 265.486801187184, 265.60346785384405, 265.7201345205041, 265.8368011871641, 265.9534678538241, 266.07013452048415, 266.18680118714417, 266.3034678538042, 266.4201345204642, 266.53680118712424, 266.65346785378426, 266.7701345204443, 266.8868011871043, 267.12013452043766]	2021_Feb_18_1324	59.86517752007136	1	0.375
31	45	FALSE	NV	a	['B', 'T', 'G', 'N', 'V', 'Y', 'P', 'W', 'C', 'J', 'Z', 'M', 'K', 'X', 'A', 'R']	[760, 1888, 944, 1335, 2245, 2670, 1456, 2448, 829, 1029, 2911, 1224, 1122, 4000, 697, 1587]	14	Present	NA	NA	PRESENT	0.3509399890899658	269.10241198539734	271.1054060459137	272.3887484390797	272.7387503464083	275.22400403022766	4.118597984313965	[269.1236960887909, 269.2406630516052, 270.20732617378235, 270.3917860984802, 271.14254117012024, 271.2593882083893, 271.37626600265503, 271.4928140640259, 271.6098301410675, 271.72634100914, 271.843346118927, 271.96003103256226, 272.0767390727997, 272.19365906715393, 272.310693025589, 272.42724800109863, 272.5442349910736, 272.66096019744873, 272.7775661945343, 272.8944160938263, 273.0112190246582, 273.22400307655334]	[269.12013452043766, 269.2368011870977, 270.2198011870977, 270.3865011870977, 271.1365011870977, 271.2531678537577, 271.3698345204177, 271.48650118707775, 271.6031678537378, 271.7198345203978, 271.8365011870578, 271.95316785371784, 272.06983452037787, 272.1865011870379, 272.3031678536979, 272.41983452035794, 272.53650118701796, 272.653167853678, 272.769834520338, 272.88650118699803, 273.00316785365806, 273.2365011869914]	2021_Feb_18_1324	59.86517752007136	1	0.375
31	46	FALSE	NA	a	['P', 'Z', 'V', 'R', 'W', 'N', 'J', 'X', 'A', 'K', 'S', 'H', 'G', 'Y', 'M', 'B']	[1456, 2911, 2245, 1587, 2448, 1335, 1029, 4000, 697, 1122, 1731, 986, 944, 2670, 1224, 760]	8	Present	NA	NA	PRESENT	0.08443188667297363	275.20887207984924	277.22151613235474	277.80485637979353	278.15485852554076	281.34037017822266	4.11885404586792	[275.2301561832428, 275.3469121456146, 276.3236939907074, 276.49807620048523, 277.2489070892334, 277.3658301830292, 277.48262214660645, 277.5993571281433, 277.7161982059479, 277.8330659866333, 277.9498031139374, 278.06664204597473, 278.18325209617615, 278.3000271320343, 278.4169511795044, 278.5335969924927, 278.65051007270813, 278.76716899871826, 278.88406705856323, 279.00075817108154, 279.11771512031555, 279.34036898612976]	[275.2365011869914, 275.3531678536514, 276.33616785365143, 276.5028678536514, 277.2528678536514, 277.36953452031145, 277.48620118697147, 277.6028678536315, 277.7195345202915, 277.83620118695154, 277.95286785361156, 278.0695345202716, 278.1862011869316, 278.30286785359164, 278.41953452025166, 278.5362011869117, 278.6528678535717, 278.76953452023173, 278.88620118689175, 279.0028678535518, 279.1195345202118, 279.35286785354515]	2021_Feb_18_1324	59.86517752007136	1	0.375
31	47	FALSE	NV	a	['M', 'C', 'T', 'B', 'P', 'R', 'V', 'U', 'Y', 'X', 'E', 'K', 'J', 'Z', 'G', 'S']	[1224, 829, 1888, 760, 1456, 1587, 2245, 2059, 2670, 4000, 904, 1122, 1029, 2911, 944, 1731]	10	Present	NA	NA	ABSENT	1.5123260021209717	281.33208203315735	283.3380479812622	284.1547227541139	284.50472466144254	287.4567360877991	4.118688106536865	[281.3533670902252, 281.47077918052673, 282.4400591850281, 282.6216561794281, 283.37225103378296, 283.4887549877167, 283.6055510044098, 283.7223641872406, 283.8394751548767, 283.95622420310974, 284.0729742050171, 284.18959617614746, 284.30651021003723, 284.42333602905273, 284.5401041507721, 284.6568720340729, 284.7737581729889, 284.89037013053894, 285.00731921195984, 285.1240680217743, 285.24079418182373, 285.4567360877991]	[281.35286785354515, 281.4695345202052, 282.4525345202052, 282.61923452020517, 283.36923452020517, 283.4859011868652, 283.6025678535252, 283.71923452018524, 283.83590118684526, 283.9525678535053, 284.0692345201653, 284.18590118682533, 284.30256785348536, 284.4192345201454, 284.5359011868054, 284.6525678534654, 284.76923452012545, 284.8859011867855, 285.0025678534455, 285.1192345201055, 285.23590118676555, 285.4692345200989]	2021_Feb_18_1324	59.86517752007136	1	0.375
31	48	FALSE	AA	a	['A', 'M', 'P', 'J', 'S', 'C', 'surprise', 'Y', 'G', 'X', 'N', 'R', 'T', 'E', 'K', 'Z']	[697, 1224, 1456, 1029, 1731, 829, 'stimAuditory/all_stimAuditory/219.wav', 2670, 944, 4000, 1335, 1587, 1888, 904, 1122, 2911]	10	Present	stimAuditory/all_stimAuditory/213.wav	NA	PRESENT	1.1499700546264648	287.45532608032227	289.4542691707611	290.2709437051942	290.62094585094144	293.5731031894684	4.118834018707275	[287.4766101837158, 287.5934040546417, 288.55642914772034, 288.7276711463928, 289.49535298347473, 289.5954020023346, 289.71215200424194, 289.82893919944763, 289.9458010196686, 290.06254720687866, 290.17929911613464, 290.29604601860046, 290.4129581451416, 290.52961015701294, 290.6466381549835, 290.76320219039917, 290.88024616241455, 290.9967679977417, 291.1137671470642, 291.2304730415344, 291.3473482131958, 291.573105096817]	[287.4692345200989, 287.5859011867589, 288.5689011867589, 288.7356011867589, 289.4856011867589, 289.60226785341894, 289.71893452007896, 289.835601186739, 289.952267853399, 290.06893452005903, 290.18560118671905, 290.3022678533791, 290.4189345200391, 290.5356011866991, 290.65226785335915, 290.7689345200192, 290.8856011866792, 291.0022678533392, 291.11893451999924, 291.23560118665927, 291.3522678533193, 291.58560118665264]	2021_Feb_18_1324	59.86517752007136	1	0.375
31	49	FALSE	NN	a	['B', 'P', 'S', 'K', 'M', 'N', 'A', 'C', 'R', 'Z', 'V', 'H', 'G', 'E', 'U', 'T']	[760, 1456, 1731, 1122, 1224, 1335, 697, 829, 1587, 2911, 2245, 986, 944, 904, 2059, 1888]	8	Absent	NA	NA	ABSENT	0.25887298583984375	293.5617661476135	295.57073402404785	296.15407450990523	296.5040764172339	299.6894700527191	4.118736028671265	[293.5830490589142, 293.69995498657227, 294.67279505729675, 294.85105204582214, 295.6018180847168, 295.71857810020447, 295.835410118103, 295.9522399902344, 296.0691251754761, 296.1857759952545, 296.3026170730591, 296.41924715042114, 296.5362620353699, 296.6528990268707, 296.7698040008545, 296.8864769935608, 297.0031690597534, 297.120001077652, 297.23702907562256, 297.35364603996277, 297.4705100059509, 297.6894690990448]	[293.58560118665264, 293.70226785331266, 294.68526785331267, 294.85196785331266, 295.60196785331266, 295.7186345199727, 295.8353011866327, 295.95196785329273, 296.06863451995275, 296.1853011866128, 296.3019678532728, 296.4186345199328, 296.53530118659285, 296.65196785325287, 296.7686345199129, 296.8853011865729, 297.00196785323294, 297.11863451989296, 297.235301186553, 297.351967853213, 297.46863451987304, 297.7019678532064]	2021_Feb_18_1324	59.86517752007136	1	0.375
31	50	FALSE	NN	a	['M', 'W', 'R', 'J', 'S', 'H', 'P', 'G', 'U', 'E', 'C', 'T', 'V', 'B', 'Z', 'A']	[1224, 2448, 1587, 1029, 1731, 986, 1456, 944, 2059, 904, 829, 1888, 2245, 760, 2911, 697]	9	Absent	NA	NA	ABSENT	0.2801821231842041	299.6850211620331	301.68704199790955	302.38705010410126	302.73705201142985	305.8058371543884	4.118795156478882	[299.7063159942627, 299.822879076004, 300.78916215896606, 300.974561214447, 301.7250831127167, 301.841952085495, 301.95875906944275, 302.07541513442993, 302.19226717948914, 302.3093991279602, 302.42561411857605, 302.54248118400574, 302.6593611240387, 302.77617621421814, 302.8928689956665, 303.0098559856415, 303.12646412849426, 303.24335408210754, 303.3601760864258, 303.4769060611725, 303.59362602233887, 303.8058362007141]	[299.7019678532064, 299.8186345198664, 300.8016345198664, 300.9683345198664, 301.7183345198664, 301.8350011865264, 301.95166785318645, 302.0683345198465, 302.1850011865065, 302.3016678531665, 302.41833451982654, 302.53500118648657, 302.6516678531466, 302.7683345198066, 302.88500118646664, 303.00166785312666, 303.1183345197867, 303.2350011864467, 303.35166785310673, 303.46833451976676, 303.5850011864268, 303.8183345197601]	2021_Feb_18_1324	59.86517752007136	1	0.375
31	51	FALSE	NV	a	['B', 'T', 'Z', 'P', 'C', 'J', 'V', 'E', 'H', 'U', 'X', 'N', 'A', 'M', 'W', 'G']	[760, 1888, 2911, 1456, 829, 1029, 2245, 904, 986, 2059, 4000, 1335, 697, 1224, 2448, 944]	11	Present	NA	NA	PRESENT	0.05261898040771484	305.7913670539856	307.8036081790924	308.7369484265112	309.0869503338398	311.92220401763916	4.118595838546753	[305.81265020370483, 305.9296040534973, 306.90552711486816, 307.0806601047516, 307.8314220905304, 307.9481911659241, 308.0651512145996, 308.18182706832886, 308.29871106147766, 308.41541600227356, 308.5323669910431, 308.6488881111145, 308.7658610343933, 308.88248205184937, 308.9993541240692, 309.1160180568695, 309.23297810554504, 309.3497381210327, 309.4666540622711, 309.5834150314331, 309.69999718666077, 309.92220306396484]	[305.8183345197601, 305.93500118642015, 306.91800118642016, 307.08470118642015, 307.83470118642015, 307.95136785308017, 308.0680345197402, 308.1847011864002, 308.30136785306024, 308.41803451972027, 308.5347011863803, 308.6513678530403, 308.76803451970034, 308.88470118636036, 309.0013678530204, 309.1180345196804, 309.23470118634043, 309.35136785300045, 309.4680345196605, 309.5847011863205, 309.7013678529805, 309.9347011863139]	2021_Feb_18_1324	59.86517752007136	1	0.375
31	52	FALSE	NV	a	['T', 'C', 'S', 'N', 'G', 'U', 'V', 'J', 'K', 'H', 'E', 'W', 'A', 'X', 'R', 'B']	[1888, 829, 1731, 1335, 944, 2059, 2245, 1029, 1122, 986, 904, 2448, 697, 4000, 1587, 760]	14	Present	NA	NA	PRESENT	0.2809469699859619	311.9146361351013	313.919771194458	315.2031114418568	315.5531133491854	318.03857016563416	4.1187989711761475	[311.9359211921692, 312.0527241230011, 313.0218970775604, 313.20421409606934, 313.9546000957489, 314.0714340209961, 314.18810200691223, 314.3049921989441, 314.42182898521423, 314.5385160446167, 314.65533208847046, 314.7722351551056, 314.88904213905334, 315.00576615333557, 315.12245512008667, 315.2394001483917, 315.35618710517883, 315.4731991291046, 315.5895891189575, 315.7065370082855, 315.8232171535492, 316.03857016563416]	[311.9347011863139, 312.0513678529739, 313.0343678529739, 313.2010678529739, 313.9510678529739, 314.0677345196339, 314.18440118629394, 314.30106785295396, 314.417734519614, 314.534401186274, 314.65106785293403, 314.76773451959406, 314.8844011862541, 315.0010678529141, 315.1177345195741, 315.23440118623415, 315.3510678528942, 315.4677345195542, 315.5844011862142, 315.70106785287425, 315.81773451953427, 316.0510678528676]	2021_Feb_18_1324	59.86517752007136	1	0.375
31	53	FALSE	NN	a	['W', 'U', 'Y', 'M', 'N', 'Z', 'J', 'R', 'T', 'K', 'V', 'S', 'E', 'C', 'G', 'B']	[2448, 2059, 2670, 1224, 1335, 2911, 1029, 1587, 1888, 1122, 2245, 1731, 904, 829, 944, 760]	10	Absent	NA	NA	ABSENT	1.014289140701294	318.03775906562805	320.0362319946289	320.8529077211549	321.20290986690213	324.1549370288849	4.1187050342559814	[318.0590422153473, 318.1758041381836, 319.13826298713684, 319.3101670742035, 320.07803320884705, 320.1780071258545, 320.2947051525116, 320.4116110801697, 320.52817606925964, 320.6449861526489, 320.76196098327637, 320.8787581920624, 320.9954299926758, 321.11237716674805, 321.2290110588074, 321.3457670211792, 321.46260118484497, 321.5792770385742, 321.6963300704956, 321.8129081726074, 321.9299371242523, 322.15493607521057]	[318.0510678528676, 318.16773451952764, 319.15073451952765, 319.31743451952764, 320.06743451952764, 320.18410118618766, 320.3007678528477, 320.4174345195077, 320.53410118616773, 320.65076785282776, 320.7674345194878, 320.8841011861478, 321.0007678528078, 321.11743451946785, 321.2341011861279, 321.3507678527879, 321.4674345194479, 321.58410118610794, 321.70076785276797, 321.817434519428, 321.934101186088, 322.16743451942136]	2021_Feb_18_1324	59.86517752007136	1	0.375
31	54	FALSE	NN	a	['H', 'T', 'V', 'J', 'C', 'Y', 'B', 'Z', 'W', 'M', 'U', 'G', 'S', 'R', 'P', 'E']	[986, 1888, 2245, 1029, 829, 2670, 760, 2911, 2448, 1224, 2059, 944, 1731, 1587, 1456, 904]	11	Absent	NA	NA	ABSENT	0.1310269832611084	324.1442000865936	326.15252900123596	327.08587044074767	327.43587234807626	330.2713041305542	4.118775129318237	[324.1654841899872, 324.28223609924316, 325.2546269893646, 325.4335491657257, 326.1843750476837, 326.30098009109497, 326.41803908348083, 326.53477811813354, 326.65150213241577, 326.76815700531006, 326.88520908355713, 327.00177121162415, 327.1184802055359, 327.23532605171204, 327.35224318504333, 327.4694170951843, 327.58584809303284, 327.70258116722107, 327.8194191455841, 327.9361970424652, 328.0528450012207, 328.2713031768799]	[324.16743451942136, 324.2841011860814, 325.2671011860814, 325.4338011860814, 326.1838011860814, 326.3004678527414, 326.41713451940143, 326.53380118606145, 326.6504678527215, 326.7671345193815, 326.8838011860415, 327.00046785270155, 327.11713451936157, 327.2338011860216, 327.3504678526816, 327.46713451934164, 327.58380118600166, 327.7004678526617, 327.8171345193217, 327.93380118598174, 328.05046785264176, 328.2838011859751]	2021_Feb_18_1324	59.86517752007136	1	0.375
31	55	FALSE	NA	a	['N', 'C', 'E', 'P', 'U', 'M', 'H', 'J', 'K', 'X', 'R', 'V', 'B', 'Z', 'G', 'W']	[1335, 829, 904, 1456, 2059, 1224, 986, 1029, 1122, 4000, 1587, 2245, 760, 2911, 944, 2448]	10	Present	NA	NA	PRESENT	0.22435688972473145	330.26746010780334	332.2687690258026	333.08544284498	333.43544570598294	336.3876700401306	4.118901014328003	[330.288743019104, 330.4055600166321, 331.37099409103394, 331.5565481185913, 332.3078751564026, 332.42427802085876, 332.54119205474854, 332.6579620838165, 332.77482509613037, 332.89141511917114, 333.0082881450653, 333.1249601840973, 333.2417821884155, 333.3586091995239, 333.47558999061584, 333.5923321247101, 333.69204211235046, 333.80887818336487, 333.9256851673126, 334.04248118400574, 334.15938806533813, 334.3876690864563]	[330.2838011859751, 330.40046785263513, 331.38346785263514, 331.5501678526351, 332.3001678526351, 332.41683451929515, 332.5335011859552, 332.6501678526152, 332.7668345192752, 332.88350118593524, 333.00016785259527, 333.1168345192553, 333.2335011859153, 333.35016785257534, 333.46683451923536, 333.5835011858954, 333.7001678525554, 333.81683451921543, 333.93350118587546, 334.0501678525355, 334.1668345191955, 334.40016785252885]	2021_Feb_18_1324	59.86517752007136	1	0.375
31	56	FALSE	VA	a	['Y', 'E', 'A', 'U', 'J', 'B', 'P', 'R', 'surprise', 'C', 'N', 'X', 'M', 'Z', 'S', 'G']	[2670, 904, 697, 2059, 1029, 760, 1456, 1587, 'stimAuditory/all_stimAuditory/107.wav', 829, 1335, 4000, 1224, 2911, 1731, 944]	12	Present	NA	NA	PRESENT	1.004694938659668	336.37382912635803	338.38524413108826	339.43525104516704	339.78525319091426	342.5040371417999	4.11879301071167	[336.395112991333, 336.51193714141846, 337.48736214637756, 337.6630961894989, 338.4139862060547, 338.5308110713959, 338.64759612083435, 338.7644371986389, 338.8812131881714, 338.9978470802307, 339.1148111820221, 339.2315340042114, 339.34839606285095, 339.4649841785431, 339.58200120925903, 339.6986310482025, 339.81554412841797, 339.932293176651, 340.0489640235901, 340.1658351421356, 340.28274416923523, 340.5040371417999]	[336.40016785252885, 336.5168345191889, 337.4998345191889, 337.6665345191889, 338.4165345191889, 338.5332011858489, 338.6498678525089, 338.76653451916894, 338.88320118582897, 338.999867852489, 339.116534519149, 339.23320118580904, 339.34986785246906, 339.4665345191291, 339.5832011857891, 339.69986785244913, 339.81653451910915, 339.9332011857692, 340.0498678524292, 340.1665345190892, 340.28320118574925, 340.5165345190826]	2021_Feb_18_1324	59.86517752007136	1	0.375
31	57	FALSE	NN	a	['P', 'M', 'Y', 'A', 'E', 'K', 'G', 'N', 'U', 'V', 'W', 'H', 'J', 'B', 'C', 'R']	[1456, 1224, 2670, 697, 904, 1122, 944, 1335, 2059, 2245, 2448, 986, 1029, 760, 829, 1587]	8	Absent	NA	NA	ABSENT	0.3374180793762207	342.49731612205505	344.50160002708435	345.0849405129417	345.4349424202704	348.62040400505066	4.118803977966309	[342.5185990333557, 342.63528299331665, 343.603728055954, 343.78643918037415, 344.536984205246, 344.6538681983948, 344.77076601982117, 344.88758516311646, 345.0044221878052, 345.12105107307434, 345.2380290031433, 345.3547601699829, 345.4716441631317, 345.58817315101624, 345.70499420166016, 345.82174015045166, 345.938499212265, 346.05566215515137, 346.17229318618774, 346.2889621257782, 346.40571117401123, 346.62040400505066]	[342.5165345190826, 342.6332011857426, 343.6162011857426, 343.7829011857426, 344.5329011857426, 344.64956785240264, 344.76623451906266, 344.8829011857227, 344.9995678523827, 345.11623451904273, 345.23290118570276, 345.3495678523628, 345.4662345190228, 345.58290118568283, 345.69956785234285, 345.8162345190029, 345.9329011856629, 346.0495678523229, 346.16623451898295, 346.28290118564297, 346.399567852303, 346.63290118563634]	2021_Feb_18_1324	59.86517752007136	1	0.375
31	58	FALSE	NA	a	['B', 'U', 'P', 'K', 'C', 'A', 'Z', 'T', 'M', 'G', 'J', 'H', 'X', 'W', 'N', 'V']	[760, 2059, 1456, 1122, 829, 697, 2911, 1888, 1224, 944, 1029, 986, 4000, 2448, 1335, 2245]	13	Present	NA	NA	PRESENT	0.20650100708007812	348.6201910972595	350.6179311275482	351.78460566196134	352.13460780770856	354.73677015304565	4.1188390254974365	[348.6414752006531, 348.7582731246948, 349.720094203949, 349.8927330970764, 350.6603651046753, 350.7605140209198, 350.8772280216217, 350.9939110279083, 351.1108121871948, 351.22768211364746, 351.3444011211395, 351.4612150192261, 351.5780930519104, 351.6946830749512, 351.8115990161896, 351.9282531738281, 352.045193195343, 352.16183614730835, 352.2787489891052, 352.3957140445709, 352.51232409477234, 352.73676919937134]	[348.63290118563634, 348.74956785229637, 349.73256785229637, 349.89926785229636, 350.64926785229636, 350.7659345189564, 350.8826011856164, 350.99926785227643, 351.11593451893646, 351.2326011855965, 351.3492678522565, 351.4659345189165, 351.58260118557655, 351.6992678522366, 351.8159345188966, 351.9326011855566, 352.04926785221664, 352.16593451887667, 352.2826011855367, 352.3992678521967, 352.51593451885674, 352.7492678521901]	2021_Feb_18_1324	59.86517752007136	1	0.375
31	59	FALSE	NN	a	['A', 'C', 'V', 'N', 'E', 'S', 'K', 'J', 'G', 'R', 'P', 'U', 'H', 'Y', 'T', 'B']	[697, 829, 2245, 1335, 904, 1731, 1122, 1029, 944, 1587, 1456, 2059, 986, 2670, 1888, 760]	9	Absent	NA	NA	ABSENT	1.1230449676513672	354.72675704956055	356.7343990802765	357.4344071864682	357.7844090937968	360.8531370162964	4.1187379360198975	[354.7480411529541, 354.8646731376648, 355.8364591598511, 356.01602506637573, 356.766832113266, 356.88356018066406, 357.0002911090851, 357.11715602874756, 357.2341511249542, 357.35064601898193, 357.4676561355591, 357.5843040943146, 357.7011981010437, 357.81798815727234, 357.9347012042999, 358.05145621299744, 358.1681890487671, 358.28512501716614, 358.40187907218933, 358.51865911483765, 358.6353871822357, 358.85313606262207]	[354.7492678521901, 354.8659345188501, 355.8489345188501, 356.0156345188501, 356.7656345188501, 356.88230118551013, 356.99896785217015, 357.1156345188302, 357.2323011854902, 357.3489678521502, 357.46563451881025, 357.58230118547027, 357.6989678521303, 357.8156345187903, 357.93230118545034, 358.04896785211037, 358.1656345187704, 358.2823011854304, 358.39896785209044, 358.51563451875046, 358.6323011854105, 358.86563451874383]	2021_Feb_18_1324	59.86517752007136	1	0.375
31	60	FALSE	NA	a	['W', 'T', 'E', 'G', 'A', 'C', 'U', 'Z', 'J', 'V', 'Y', 'H', 'B', 'X', 'R', 'M']	[2448, 1888, 904, 944, 697, 829, 2059, 2911, 1029, 2245, 2670, 986, 760, 4000, 1587, 1224]	14	Present	NA	NA	PRESENT	0.2884359359741211	360.84996604919434	362.8507001399994	364.1340413410725	364.4840434868197	366.9695041179657	4.118803977966309	[360.8712501525879, 360.98790311813354, 361.95282912254333, 362.13923811912537, 362.8902599811554, 363.0068910121918, 363.12371015548706, 363.24053621292114, 363.35716104507446, 363.47413206100464, 363.59070110321045, 363.7076561450958, 363.80751514434814, 363.92424416542053, 364.0411150455475, 364.1578061580658, 364.27466917037964, 364.3913791179657, 364.5082461833954, 364.62504601478577, 364.7418541908264, 364.9695041179657]	[360.86563451874383, 360.98230118540386, 361.96530118540386, 362.13200118540385, 362.88200118540385, 362.9986678520639, 363.1153345187239, 363.2320011853839, 363.34866785204395, 363.46533451870397, 363.582001185364, 363.698667852024, 363.81533451868404, 363.93200118534406, 364.0486678520041, 364.1653345186641, 364.28200118532413, 364.39866785198416, 364.5153345186442, 364.6320011853042, 364.7486678519642, 364.9820011852976]	2021_Feb_18_1324	59.86517752007136	1	0.375
31	61	FALSE	AV	a	['G', 'J', 'T', 'Z', 'surprise', 'A', 'W', 'X', 'R', 'V', 'P', 'E', 'K', 'H', 'C', 'U']	[944, 1029, 1888, 2911, 'stimAuditory/all_stimAuditory/101.wav', 697, 2448, 4000, 1587, 2245, 1456, 904, 1122, 986, 829, 2059]	8	Present	stimAuditory/all_stimAuditory/109.wav	NA	PRESENT	0.1569809913635254	366.9563992023468	368.9671800136566	369.5505214531883	369.90052336051696	373.0858700275421	4.118690013885498	[366.9776830673218, 367.09428310394287, 368.0691931247711, 368.24570202827454, 368.9963381290436, 369.1131360530853, 369.2300670146942, 369.3468279838562, 369.46367716789246, 369.5803380012512, 369.6971220970154, 369.81399416923523, 369.93091011047363, 370.0475881099701, 370.16432905197144, 370.2811381816864, 370.3978080749512, 370.51461005210876, 370.63137316703796, 370.748291015625, 370.8649001121521, 371.0858700275421]	[366.9820011852976, 367.0986678519576, 368.0816678519576, 368.2483678519576, 368.9983678519576, 369.1150345186176, 369.23170118527764, 369.34836785193767, 369.4650345185977, 369.5817011852577, 369.69836785191774, 369.81503451857776, 369.9317011852378, 370.0483678518978, 370.16503451855783, 370.28170118521786, 370.3983678518779, 370.5150345185379, 370.6317011851979, 370.74836785185795, 370.865034518518, 371.0983678518513]	2021_Feb_18_1324	59.86517752007136	1	0.375
31	62	FALSE	NV	a	['M', 'K', 'A', 'E', 'S', 'R', 'Z', 'W', 'P', 'X', 'G', 'Y', 'U', 'N', 'T', 'B']	[1224, 1122, 697, 904, 1731, 1587, 2911, 2448, 1456, 4000, 944, 2670, 2059, 1335, 1888, 760]	10	Present	NA	NA	PRESENT	0.20961689949035645	373.0799660682678	375.08340311050415	375.90007764493726	376.2500797906845	379.2022371292114	4.118834018707275	[373.1012501716614, 373.21765899658203, 374.18556213378906, 374.3688311576843, 375.11957812309265, 375.2364671230316, 375.35332798957825, 375.4700791835785, 375.5868670940399, 375.70367217063904, 375.8204300403595, 375.9371449947357, 376.0539650917053, 376.17081809043884, 376.28748202323914, 376.40433406829834, 376.52117109298706, 376.6379210948944, 376.7546260356903, 376.8713791370392, 376.98817706108093, 377.2022361755371]	[373.0983678518513, 373.21503451851135, 374.19803451851135, 374.36473451851134, 375.11473451851134, 375.23140118517136, 375.3480678518314, 375.4647345184914, 375.58140118515144, 375.69806785181146, 375.8147345184715, 375.9314011851315, 376.04806785179153, 376.16473451845155, 376.2814011851116, 376.3980678517716, 376.5147345184316, 376.63140118509165, 376.74806785175167, 376.8647345184117, 376.9814011850717, 377.21473451840507]	2021_Feb_18_1324	59.86517752007136	1	0.375
31	63	FALSE	NN	a	['U', 'A', 'G', 'P', 'S', 'E', 'H', 'C', 'B', 'R', 'K', 'J', 'T', 'Y', 'W', 'V']	[2059, 697, 944, 1456, 1731, 904, 986, 829, 760, 1587, 1122, 1029, 1888, 2670, 2448, 2245]	11	Absent	NA	NA	ABSENT	0.4228498935699463	379.202581167221	381.1999981403351	382.1333393414282	382.4833414871754	385.31860399246216	4.118605852127075	[379.22386503219604, 379.3240191936493, 380.3019301891327, 380.4752550125122, 381.22589802742004, 381.3427321910858, 381.45982098579407, 381.57639718055725, 381.69339513778687, 381.8099901676178, 381.9269971847534, 382.04360914230347, 382.16048216819763, 382.27712416648865, 382.394366979599, 382.5107340812683, 382.6276650428772, 382.7442841529846, 382.86122703552246, 382.97786808013916, 383.0948450565338, 383.31860303878784]	[379.21473451840507, 379.3314011850651, 380.3144011850651, 380.4811011850651, 381.2311011850651, 381.3477678517251, 381.46443451838513, 381.58110118504516, 381.6977678517052, 381.8144345183652, 381.9311011850252, 382.04776785168525, 382.1644345183453, 382.2811011850053, 382.3977678516653, 382.51443451832534, 382.63110118498537, 382.7477678516454, 382.8644345183054, 382.98110118496544, 383.09776785162546, 383.3311011849588]	2021_Feb_18_1324	59.86517752007136	1	0.375
31	64	FALSE	NV	a	['R', 'B', 'M', 'Y', 'Z', 'P', 'W', 'C', 'V', 'U', 'N', 'J', 'E', 'X', 'K', 'S']	[1587, 760, 1224, 2670, 2911, 1456, 2448, 829, 2245, 2059, 1335, 1029, 904, 4000, 1122, 1731]	14	Present	NA	NA	PRESENT	0.2513449192047119	385.3092441558838	387.3162360191345	388.5995774586262	388.9495793659548	391.4349701404571	4.118734121322632	[385.33052706718445, 385.4472360610962, 386.4182951450348, 386.5986371040344, 387.3493580818176, 387.4661340713501, 387.58294916152954, 387.699609041214, 387.81631302833557, 387.9332740306854, 388.0499210357666, 388.1667511463165, 388.2837481498718, 388.40037202835083, 388.5173680782318, 388.63410115242004, 388.75067019462585, 388.8675220012665, 388.98432207107544, 389.10124111175537, 389.2178750038147, 389.43496918678284]	[385.3311011849588, 385.44776785161883, 386.43076785161884, 386.59746785161883, 387.34746785161883, 387.46413451827885, 387.5808011849389, 387.6974678515989, 387.8141345182589, 387.93080118491895, 388.047467851579, 388.164134518239, 388.280801184899, 388.39746785155904, 388.51413451821907, 388.6308011848791, 388.7474678515391, 388.86413451819914, 388.98080118485916, 389.0974678515192, 389.2141345181792, 389.44746785151256]	2021_Feb_18_1324	59.86517752007136	1	0.375
31	65	FALSE	NA	a	['Z', 'P', 'K', 'N', 'Y', 'W', 'J', 'X', 'R', 'U', 'G', 'M', 'T', 'S', 'E', 'B']	[2911, 1456, 1122, 1335, 2670, 2448, 1029, 4000, 1587, 2059, 944, 1224, 1888, 1731, 904, 760]	8	Present	NA	NA	PRESENT	0.03272390365600586	391.43241119384766	393.4324340820313	394.01577552156294	394.3657774288916	397.5513370037079	4.118902921676636	[391.4536941051483, 391.5705580711365, 392.5346610546112, 392.7219669818878, 393.47245621681213, 393.58936405181885, 393.68912410736084, 393.80595111846924, 393.92277216911316, 394.03954911231995, 394.1564040184021, 394.27324509620667, 394.3899600505829, 394.5067491531372, 394.62353014945984, 394.74043011665344, 394.857075214386, 394.9739282131195, 395.09068298339844, 395.20753502845764, 395.3242812156677, 395.55133605003357]	[391.44746785151256, 391.5641345181726, 392.5471345181726, 392.7138345181726, 393.4638345181726, 393.5805011848326, 393.6971678514926, 393.81383451815265, 393.93050118481267, 394.0471678514727, 394.1638345181327, 394.28050118479274, 394.39716785145276, 394.5138345181128, 394.6305011847728, 394.74716785143283, 394.86383451809286, 394.9805011847529, 395.0971678514129, 395.21383451807293, 395.33050118473295, 395.5638345180663]	2021_Feb_18_1324	59.86517752007136	1	0.375
31	66	FALSE	NV	a	['N', 'V', 'Z', 'M', 'J', 'A', 'P', 'S', 'X', 'G', 'K', 'B', 'U', 'Y', 'E', 'R']	[1335, 2245, 2911, 1224, 1029, 697, 1456, 1731, 4000, 944, 1122, 760, 2059, 2670, 904, 1587]	9	Present	NA	NA	PRESENT	0.11719298362731934	397.53885102272034	399.5488750934601	400.2488820075589	400.5988841533061	403.6677041053772	4.118829011917114	[397.5601360797882, 397.6768321990967, 398.6510272026062, 398.8283030986786, 399.578889131546, 399.69576501846313, 399.81256103515625, 399.92928099632263, 400.0461480617523, 400.1628940105438, 400.27963304519653, 400.39646220207214, 400.5131800174713, 400.6300961971283, 400.74695205688477, 400.8636441230774, 400.98054099082947, 401.09723806381226, 401.21382999420166, 401.33081698417664, 401.4476490020752, 401.6677041053772]	[397.5638345180663, 397.6805011847263, 398.66350118472633, 398.8302011847263, 399.5802011847263, 399.69686785138634, 399.81353451804637, 399.9302011847064, 400.0468678513664, 400.16353451802644, 400.28020118468646, 400.3968678513465, 400.5135345180065, 400.63020118466653, 400.74686785132656, 400.8635345179866, 400.9802011846466, 401.0968678513066, 401.21353451796665, 401.3302011846267, 401.4468678512867, 401.68020118462005]	2021_Feb_18_1324	59.86517752007136	1	0.375
31	67	FALSE	NV	a	['K', 'G', 'U', 'C', 'S', 'Y', 'P', 'A', 'R', 'V', 'N', 'T', 'E', 'X', 'J', 'H']	[1122, 944, 2059, 829, 1731, 2670, 1456, 697, 1587, 2245, 1335, 1888, 904, 4000, 1029, 986]	14	Present	NA	NA	PRESENT	0.19383883476257324	403.66241908073425	405.66518115997314	406.9485214073719	407.29852331470056	409.7840700149536	4.118888854980469	[403.6837031841278, 403.8000330924988, 404.767391204834, 404.95142912864685, 405.7021391391754, 405.81896018981934, 405.9356770515442, 406.0525062084198, 406.1693181991577, 406.2861590385437, 406.40291118621826, 406.5197260379791, 406.63648319244385, 406.75332021713257, 406.8701181411743, 406.98688101768494, 407.1038022041321, 407.2203869819641, 407.33729314804077, 407.45387601852417, 407.5706570148468, 407.7840690612793]	[403.68020118462005, 403.79686785128007, 404.7798678512801, 404.94656785128007, 405.69656785128007, 405.8132345179401, 405.9299011846001, 406.04656785126014, 406.16323451792016, 406.2799011845802, 406.3965678512402, 406.51323451790023, 406.62990118456025, 406.7465678512203, 406.8632345178803, 406.9799011845403, 407.09656785120035, 407.21323451786037, 407.3299011845204, 407.4465678511804, 407.56323451784044, 407.7965678511738]	2021_Feb_18_1324	59.86517752007136	1	0.375
31	68	FALSE	AV	a	['Y', 'Z', 'M', 'B', 'G', 'H', 'C', 'surprise', 'E', 'K', 'X', 'R', 'V', 'J', 'T', 'P']	[2670, 2911, 1224, 760, 944, 986, 829, 'stimAuditory/all_stimAuditory/206.wav', 904, 1122, 4000, 1587, 2245, 1029, 1888, 1456]	11	Present	stimAuditory/all_stimAuditory/220.wav	NA	PRESENT	0.16712498664855957	409.76836609840393	411.7816560268402	412.7149965126776	413.0649984200062	415.9004371166229	4.118781089782715	[409.7896502017975, 409.9065191745758, 410.88375902175903, 411.05783009529114, 411.80847120285034, 411.92532205581665, 412.04230213165283, 412.1588761806488, 412.27573800086975, 412.3924150466919, 412.5094151496887, 412.62603306770325, 412.7430181503296, 412.8597571849823, 412.9766662120819, 413.0933721065521, 413.2101721763611, 413.32725715637207, 413.4435360431671, 413.56050205230713, 413.6773331165314, 413.9004361629486]	[409.7965678511738, 409.9132345178338, 410.8962345178338, 411.0629345178338, 411.8129345178338, 411.92960118449383, 412.04626785115386, 412.1629345178139, 412.2796011844739, 412.3962678511339, 412.51293451779395, 412.629601184454, 412.746267851114, 412.862934517774, 412.97960118443405, 413.09626785109407, 413.2129345177541, 413.3296011844141, 413.44626785107414, 413.56293451773416, 413.6796011843942, 413.91293451772754]	2021_Feb_18_1324	59.86517752007136	1	0.375
31	69	FALSE	NV	a	['B', 'Y', 'H', 'M', 'Z', 'V', 'E', 'T', 'P', 'G', 'J', 'K', 'C', 'X', 'N', 'W']	[760, 2670, 986, 1224, 2911, 2245, 904, 1888, 1456, 944, 1029, 1122, 829, 4000, 1335, 2448]	14	Present	NA	NA	PRESENT	1.043815851211548	415.8916800022125	417.89814019203186	419.18148043943063	419.5314823467593	422.01680302619934	4.1186628341674805	[415.9129641056061, 416.02961015701294, 417.0001311302185, 417.1810359954834, 417.93169498443604, 418.04850006103516, 418.1653790473938, 418.28208899497986, 418.3988552093506, 418.5157661437988, 418.63245820999146, 418.7494041919708, 418.86616611480713, 418.98297810554504, 419.0996000766754, 419.2165939807892, 419.333291053772, 419.44997811317444, 419.5669231414795, 419.6836700439453, 419.800329208374, 420.01680397987366]	[415.91293451772754, 416.02960118438756, 417.01260118438756, 417.17930118438755, 417.92930118438755, 418.0459678510476, 418.1626345177076, 418.2793011843676, 418.39596785102765, 418.5126345176877, 418.6293011843477, 418.7459678510077, 418.86263451766774, 418.97930118432777, 419.0959678509878, 419.2126345176478, 419.32930118430784, 419.44596785096786, 419.5626345176279, 419.6793011842879, 419.79596785094793, 420.0293011842813]	2021_Feb_18_1324	59.86517752007136	1	0.375
31	70	FALSE	NN	a	['S', 'N', 'V', 'B', 'K', 'Z', 'P', 'M', 'Y', 'C', 'H', 'G', 'J', 'A', 'R', 'U']	[1731, 1335, 2245, 760, 1122, 2911, 1456, 1224, 2670, 829, 986, 944, 1029, 697, 1587, 2059]	10	Absent	NA	NA	ABSENT	0.6329870223999023	422.0147500038147	424.0145251750946	424.831200663202	425.1812028089493	428.13317012786865	4.118644952774048	[422.03603410720825, 422.1530120372772, 423.116494178772, 423.30441308021545, 424.05478715896606, 424.15494203567505, 424.27166199684143, 424.3884880542755, 424.5052900314331, 424.62212800979614, 424.73886799812317, 424.8556561470032, 424.9726700782776, 425.0892131328583, 425.2060191631317, 425.32294511795044, 425.4396800994873, 425.5565130710602, 425.6731719970703, 425.7900221347809, 425.90700101852417, 426.13316917419434]	[422.0293011842813, 422.1459678509413, 423.1289678509413, 423.2956678509413, 424.0456678509413, 424.1623345176013, 424.27900118426135, 424.39566785092137, 424.5123345175814, 424.6290011842414, 424.74566785090144, 424.86233451756146, 424.9790011842215, 425.0956678508815, 425.21233451754154, 425.32900118420156, 425.4456678508616, 425.5623345175216, 425.67900118418163, 425.79566785084165, 425.9123345175017, 426.145667850835]	2021_Feb_18_1324	59.86517752007136	1	0.375
31	71	FALSE	NA	a	['R', 'H', 'U', 'N', 'J', 'K', 'V', 'G', 'W', 'X', 'C', 'M', 'Y', 'B', 'A', 'P']	[1587, 986, 2059, 1335, 1029, 1122, 2245, 944, 2448, 4000, 829, 1224, 2670, 760, 697, 1456]	10	Present	NA	NA	PRESENT	0.3496718406677246	428.1213140487671	430.13060998916626	430.9472838083436	431.2972857156723	434.2495369911194	4.118927001953125	[428.14259815216064, 428.2593050003052, 429.2328631877899, 429.4107611179352, 430.1614520549774, 430.27808117866516, 430.3949100971222, 430.5116991996765, 430.6285140514374, 430.745304107666, 430.86225605010986, 430.9790530204773, 431.09560799598694, 431.21255016326904, 431.3293490409851, 431.44616198539734, 431.5630440711975, 431.679790019989, 431.79664301872253, 431.91330313682556, 432.029981136322, 432.24953603744507]	[428.145667850835, 428.26233451749505, 429.24533451749505, 429.41203451749504, 430.16203451749504, 430.27870118415507, 430.3953678508151, 430.5120345174751, 430.62870118413514, 430.74536785079516, 430.8620345174552, 430.9787011841152, 431.09536785077523, 431.21203451743526, 431.3287011840953, 431.4453678507553, 431.5620345174153, 431.67870118407535, 431.7953678507354, 431.9120345173954, 432.0287011840554, 432.26203451738877]	2021_Feb_18_1324	59.86517752007136	1	0.375
31	72	FALSE	NV	a	['A', 'Z', 'G', 'P', 'B', 'E', 'C', 'V', 'R', 'N', 'K', 'X', 'H', 'M', 'J', 'W']	[697, 2911, 944, 1456, 760, 904, 829, 2245, 1587, 1335, 1122, 4000, 986, 1224, 1029, 2448]	12	Present	NA	NA	PRESENT	0.1780550479888916	434.2448971271515	436.2470672130585	437.2970750808116	437.6470769881402	440.3659040927887	4.118836879730225	[434.26618218421936, 434.3825240135193, 435.349228143692, 435.53366017341614, 436.2847981452942, 436.4014501571655, 436.5181441307068, 436.63502407073975, 436.7518210411072, 436.86860513687134, 436.9853060245514, 437.10222816467285, 437.2188801765442, 437.33572006225586, 437.45249104499817, 437.56940507888794, 437.6859760284424, 437.8028681278229, 437.9198410511017, 438.03629302978516, 438.1533930301666, 438.3659031391144]	[434.26203451738877, 434.3787011840488, 435.3617011840488, 435.5284011840488, 436.2784011840488, 436.3950678507088, 436.51173451736884, 436.62840118402886, 436.7450678506889, 436.8617345173489, 436.97840118400893, 437.09506785066895, 437.211734517329, 437.328401183989, 437.445067850649, 437.56173451730905, 437.6784011839691, 437.7950678506291, 437.9117345172891, 438.02840118394914, 438.14506785060917, 438.3784011839425]	2021_Feb_18_1324	59.86517752007136	1	0.375
31	73	FALSE	VN	a	['T', 'J', 'Y', 'E', 'A', 'surprise', 'W', 'U', 'C', 'K', 'N', 'H', 'P', 'V', 'Z', 'S']	[1888, 1029, 2670, 904, 697, 'stimAuditory/all_stimAuditory/203.wav', 2448, 2059, 829, 1122, 1335, 986, 1456, 2245, 2911, 1731]	9	Absent	NA	NA	ABSENT	0.09546589851379396	440.3508100509643	442.36337208747864	443.06337900157746	443.4133811473246	446.4822700023651	4.118897914886475	[440.3720932006836, 440.48894810676575, 441.46559619903564, 441.64039301872253, 442.3909921646118, 442.5077691078186, 442.6247022151947, 442.74125814437866, 442.85831117630005, 442.97496604919434, 443.09194898605347, 443.2086601257324, 443.32556200027466, 443.44229221343994, 443.5589530467987, 443.67581605911255, 443.7924439907074, 443.90940713882446, 444.026328086853, 444.1429080963135, 444.2596061229706, 444.4822700023651]	[440.3784011839425, 440.49506785060254, 441.47806785060254, 441.64476785060253, 442.39476785060253, 442.51143451726256, 442.6281011839226, 442.7447678505826, 442.8614345172426, 442.97810118390265, 443.0947678505627, 443.2114345172227, 443.3281011838827, 443.44476785054275, 443.56143451720277, 443.6781011838628, 443.7947678505228, 443.91143451718284, 444.02810118384286, 444.1447678505029, 444.2614345171629, 444.49476785049626]	2021_Feb_18_1324	59.86517752007136	1	0.375
31	74	FALSE	NN	a	['Z', 'M', 'E', 'Y', 'C', 'P', 'U', 'J', 'G', 'N', 'W', 'V', 'B', 'S', 'T', 'A']	[2911, 1224, 904, 2670, 829, 1456, 2059, 1029, 944, 1335, 2448, 2245, 760, 1731, 1888, 697]	10	Absent	NA	NA	ABSENT	0.4198591709136963	446.4746241569519	448.47986698150635	449.296541754358	449.6465436616867	452.5986371040344	4.118770122528076	[446.4959080219269, 446.61220121383667, 447.5819602012634, 447.76352310180664, 448.5141260623932, 448.63109517097473, 448.74784207344055, 448.8647210597992, 448.98161721229553, 449.0983030796051, 449.21483516693115, 449.3319411277771, 449.44850301742554, 449.5655071735382, 449.6822249889374, 449.79900598526, 449.91581106185913, 450.0324010848999, 450.14929699897766, 450.26601910591125, 450.3829131126404, 450.5986361503601]	[446.49476785049626, 446.6114345171563, 447.5944345171563, 447.7611345171563, 448.5111345171563, 448.6278011838163, 448.7444678504763, 448.86113451713635, 448.9778011837964, 449.0944678504564, 449.2111345171164, 449.32780118377644, 449.44446785043647, 449.5611345170965, 449.6778011837565, 449.79446785041654, 449.91113451707656, 450.0278011837366, 450.1444678503966, 450.26113451705663, 450.37780118371666, 450.61113451705]	2021_Feb_18_1324	59.86517752007136	1	0.375
31	75	FALSE	NA	a	['N', 'M', 'C', 'E', 'Y', 'B', 'Z', 'X', 'G', 'P', 'T', 'U', 'W', 'J', 'S', 'R']	[1335, 1224, 829, 904, 2670, 760, 2911, 4000, 944, 1456, 1888, 2059, 2448, 1029, 1731, 1587]	8	Present	NA	NA	PRESENT	0.4892308712005615	452.5974061489105	454.5961151123047	455.1794553597435	455.5294575054907	458.7150130271912	4.118897914886475	[452.6186890602112, 452.73541617393494, 453.6983280181885, 453.87013721466064, 454.6373281478882, 454.73737120628357, 454.8544111251831, 454.97099900245667, 455.0877251625061, 455.2045810222626, 455.3213469982147, 455.4382441043854, 455.5550060272217, 455.6718192100525, 455.7886691093445, 455.9054341316223, 456.0220890045166, 456.13907408714294, 456.25592398643494, 456.37264609336853, 456.4894070625305, 456.71500301361084]	[452.61113451705, 452.72780118371, 453.71080118371003, 453.87750118371, 454.62750118371, 454.74416785037005, 454.86083451703007, 454.9775011836901, 455.0941678503501, 455.21083451701014, 455.32750118367017, 455.4441678503302, 455.5608345169902, 455.67750118365024, 455.79416785031026, 455.9108345169703, 456.0275011836303, 456.14416785029033, 456.26083451695035, 456.3775011836104, 456.4941678502704, 456.72750118360375]	2021_Feb_18_1324	59.86517752007136	1	0.375
31	76	FALSE	NN	a	['B', 'S', 'Z', 'P', 'Y', 'K', 'U', 'A', 'J', 'V', 'R', 'W', 'E', 'T', 'H', 'M']	[760, 1731, 2911, 1456, 2670, 1122, 2059, 697, 1029, 2245, 1587, 2448, 904, 1888, 986, 1224]	10	Absent	NA	NA	ABSENT	0.8779211044311523	458.70393109321594	460.7126750946045	461.5293498674562	461.8793517747848	464.83136916160583	4.118694067001343	[458.7252151966095, 458.8416690826416, 459.81469106674194, 459.99323201179504, 460.74387407302856, 460.8606810569763, 460.9773600101471, 461.0942552089691, 461.21095299720764, 461.32792115211487, 461.4446620941162, 461.56149911880493, 461.6781220436096, 461.7950711250305, 461.91177320480347, 462.02867817878723, 462.1454710960388, 462.26230907440186, 462.37899899482727, 462.49588418006897, 462.61254501342773, 462.83136916160583]	[458.72750118360375, 458.8441678502638, 459.8271678502638, 459.99386785026377, 460.74386785026377, 460.8605345169238, 460.9772011835838, 461.09386785024384, 461.21053451690386, 461.3272011835639, 461.4438678502239, 461.56053451688393, 461.67720118354396, 461.793867850204, 461.910534516864, 462.027201183524, 462.14386785018405, 462.2605345168441, 462.3772011835041, 462.4938678501641, 462.61053451682415, 462.8438678501575]	2021_Feb_18_1324	59.86517752007136	1	0.375
31	77	FALSE	NV	a	['E', 'H', 'U', 'C', 'Z', 'R', 'N', 'G', 'X', 'Y', 'S', 'A', 'J', 'T', 'V', 'W']	[904, 986, 2059, 829, 2911, 1587, 1335, 944, 4000, 2670, 1731, 697, 1029, 1888, 2245, 2448]	9	Present	NA	NA	PRESENT	0.16328716278076172	464.8270211219787	466.8288230895996	467.5288300036984	467.8788321494456	470.94773602485657	4.118912935256958	[464.84830498695374, 464.9650499820709, 465.93105816841125, 466.1162312030792, 466.866895198822, 466.9836959838867, 467.10077714920044, 467.21745014190674, 467.33429408073425, 467.4510931968689, 467.5677101612091, 467.6846430301666, 467.80149817466736, 467.9181342124939, 468.0349371433258, 468.1517450809479, 468.268657207489, 468.38531398773193, 468.502051115036, 468.61890411376953, 468.7188880443573, 468.94773602485657]	[464.8438678501575, 464.9605345168175, 465.9435345168175, 466.1102345168175, 466.8602345168175, 466.97690118347754, 467.09356785013756, 467.2102345167976, 467.3269011834576, 467.44356785011763, 467.56023451677765, 467.6769011834377, 467.7935678500977, 467.9102345167577, 468.02690118341775, 468.1435678500778, 468.2602345167378, 468.3769011833978, 468.49356785005784, 468.61023451671787, 468.7269011833779, 468.96023451671124]	2021_Feb_18_1324	59.86517752007136	1	0.375
31	78	FALSE	VA	a	['P', 'H', 'E', 'M', 'surprise', 'A', 'G', 'X', 'B', 'K', 'Y', 'W', 'N', 'T', 'S', 'J']	[1456, 986, 904, 1224, 'stimAuditory/all_stimAuditory/121.wav', 697, 944, 4000, 760, 1122, 2670, 2448, 1335, 1888, 1731, 1029]	8	Present	NA	NA	PRESENT	0.1917240619659424	470.9336950778961	472.9453561306	473.5286973317131	473.8786994774603	477.0641040802002	4.11874794960022	[470.9549791812897, 471.07145500183105, 472.04742312431335, 472.22278118133545, 472.9734790325165, 473.090341091156, 473.206995010376, 473.3241810798645, 473.44063806533813, 473.55753803253174, 473.67422819137573, 473.79107308387756, 473.90778613090515, 474.0247302055359, 474.1414179801941, 474.2583270072937, 474.37503004074097, 474.49203419685364, 474.6086721420288, 474.7253370285034, 474.8423399925232, 475.0641040802002]	[470.96023451671124, 471.07690118337126, 472.05990118337127, 472.22660118337126, 472.97660118337126, 473.0932678500313, 473.2099345166913, 473.32660118335133, 473.44326785001135, 473.5599345166714, 473.6766011833314, 473.7932678499914, 473.90993451665145, 474.02660118331147, 474.1432678499715, 474.2599345166315, 474.37660118329154, 474.49326784995156, 474.6099345166116, 474.7266011832716, 474.84326784993164, 475.076601183265]	2021_Feb_18_1324	59.86517752007136	1	0.375
31	79	FALSE	NA	a	['H', 'S', 'N', 'A', 'T', 'Z', 'W', 'G', 'U', 'B', 'X', 'R', 'J', 'M', 'K', 'E']	[986, 1731, 1335, 697, 1888, 2911, 2448, 944, 2059, 760, 4000, 1587, 1029, 1224, 1122, 904]	11	Present	NA	NA	PRESENT	0.11632990837097168	477.0564980506897	479.06161403656006	479.99495547607177	480.3449573834003	483.1804690361023	4.118854999542236	[477.07778215408325, 477.1947910785675, 478.16379404067993, 478.3457701206207, 479.0966091156006, 479.2134861946106, 479.3303802013397, 479.44705605506897, 479.5638201236725, 479.68059611320496, 479.79747700691223, 479.9142200946808, 480.03096199035645, 480.1476831436157, 480.2646200656891, 480.3815062046051, 480.49842619895935, 480.6151041984558, 480.73169803619385, 480.8485372066498, 480.9654312133789, 481.1804690361023]	[477.076601183265, 477.193267849925, 478.176267849925, 478.342967849925, 479.092967849925, 479.209634516585, 479.32630118324505, 479.4429678499051, 479.5596345165651, 479.6763011832251, 479.79296784988514, 479.90963451654517, 480.0263011832052, 480.1429678498652, 480.25963451652524, 480.37630118318526, 480.4929678498453, 480.6096345165053, 480.72630118316533, 480.84296784982536, 480.9596345164854, 481.19296784981873]	2021_Feb_18_1324	59.86517752007136	1	0.375
