participant	trial_num	practice	task	condition	RSVP	RAP	probePos	probe_presence	surprise_sound	surprise_img	probe_response	probe_resp_time	first_fixation_time	trial_start_time	surprise_start_time	probe_start_time	trial_end_time	trial_duration	actualEventTimes	plannedEventTimes	date	framerate	marker_vol	RAP_vol
31	1	FALSE	NA	v	['V', 'K', 'Z', 'S', 'E', 'P', 'M', 'C', 'H', 'B', 'X', 'U', 'A', 'G', 'R', 'T']	[2245, 1122, 2911, 1731, 904, 1456, 1224, 829, 986, 760, 4000, 2059, 697, 944, 1587, 1888]	11	Present	NA	NA	PRESENT	0.37468886375427246	3.814697265625e-6	2.0022339820861816	2.933663845062256	3.2839279174804688	6.103869915008545	4.101635932922363	[0.007623910903930664, 0.12435388565063477, 1.1088759899139404, 1.2588560581207275, 2.0264978408813477, 2.1433088779449463, 2.260171890258789, 2.3768310546875, 2.493556022644043, 2.610477924346924, 2.7271180152893066, 2.8439688682556152, 2.9606728553771973, 3.0775299072265625, 3.1943719387054443, 3.3112058639526367, 3.4280269145965576, 3.5446949005126953, 3.6618850231170654, 3.778228998184204, 3.8784019947052, 4.103870868682861]	[1.9073486328125e-06, 0.11666857401529947, 1.0996685740152994, 1.2663685740152995, 2.0163685740152992, 2.133035240681966, 2.2497019073486326, 2.3663685740152993, 2.483035240681966, 2.5997019073486327, 2.7163685740152994, 2.833035240681966, 2.949701907348633, 3.0663685740152995, 3.183035240681966, 3.299701907348633, 3.4163685740152996, 3.5330352406819663, 3.649701907348633, 3.7663685740152997, 3.8830352406819664, 4.1163685740153]	2021_Feb_18_1259	59.937979976392384	1	1
31	2	FALSE	NN	v	['C', 'J', 'B', 'W', 'A', 'P', 'V', 'G', 'N', 'U', 'T', 'Z', 'K', 'H', 'R', 'M']	[829, 1029, 760, 2448, 697, 1456, 2245, 944, 1335, 2059, 1888, 2911, 1122, 986, 1587, 1224]	9	Absent	NA	NA	ABSENT	0.5313210487365723	6.106427907943726	8.115144968032837	8.815756797790527	9.165607929229736	12.220237016677856	4.1050920486450195	[6.114048004150391, 6.230949878692627, 7.215322017669678, 7.382077932357788, 8.132818937301636, 8.249790906906128, 8.366437911987305, 8.483428001403809, 8.600121021270752, 8.716810941696167, 8.83367395401001, 8.95038890838623, 9.06731104850769, 9.18417501449585, 9.300946950912476, 9.41756796836853, 9.534453868865967, 9.651362895965576, 9.767879962921143, 9.884741067886353, 10.001581907272339, 10.220237016677856]	[6.1163685740153, 6.233035240681966, 7.216035240681966, 7.382735240681965, 8.132735240681965, 8.249401907348632, 8.3660685740153, 8.482735240681967, 8.599401907348634, 8.716068574015301, 8.832735240681968, 8.949401907348635, 9.066068574015302, 9.18273524068197, 9.299401907348637, 9.416068574015304, 9.532735240681971, 9.649401907348638, 9.766068574015305, 9.882735240681972, 9.99940190734864, 10.232735240681972]	2021_Feb_18_1259	59.937979976392384	1	1
31	3	FALSE	NA	v	['S', 'P', 'U', 'R', 'K', 'Z', 'H', 'V', 'J', 'M', 'X', 'Y', 'C', 'W', 'T', 'A']	[1731, 1456, 2059, 1587, 1122, 2911, 986, 2245, 1029, 1224, 4000, 2670, 829, 2448, 1888, 697]	11	Present	NA	NA	PRESENT	0.34481191635131836	12.229638814926147	14.231637001037598	15.165446996688845	15.516007900238035	18.33660387992859	4.104966878890991	[12.23725700378418, 12.354140043258667, 13.338660955429077, 13.505411863327026, 14.256424903869629, 14.372767925262451, 14.489735841751099, 14.606596946716309, 14.723330020904541, 14.840191841125488, 14.956997871398926, 15.07359790802002, 15.190574884414673, 15.307239055633545, 15.424120903015137, 15.540843963623047, 15.657495021820068, 15.774340867996216, 15.891371965408325, 16.008023977279663, 16.10789704322815, 16.336602926254272]	[12.232735240681972, 12.34940190734864, 13.33240190734864, 13.49910190734864, 14.24910190734864, 14.365768574015307, 14.482435240681975, 14.599101907348642, 14.715768574015309, 14.832435240681976, 14.949101907348643, 15.06576857401531, 15.182435240681977, 15.299101907348645, 15.415768574015312, 15.532435240681979, 15.649101907348646, 15.765768574015313, 15.88243524068198, 15.999101907348647, 16.115768574015313, 16.349101907348647]	2021_Feb_18_1259	59.937979976392384	1	1
31	4	FALSE	NV	v	['H', 'S', 'T', 'G', 'P', 'N', 'B', 'U', 'E', 'X', 'K', 'R', 'Z', 'C', 'M', 'W']	[986, 1731, 1888, 944, 1456, 1335, 760, 2059, 904, 4000, 1122, 1587, 2911, 829, 1224, 2448]	10	Present	NA	NA	PRESENT	0.6291890144348145	18.33622097969055	20.347901821136475	21.165019989013672	21.51519799232483	24.4529709815979	4.105069160461426	[18.34383988380432, 18.460527896881104, 19.444999933242798, 19.611703872680664, 20.379124879837036, 20.479259967803955, 20.596116065979004, 20.713055849075317, 20.829710960388184, 20.946624040603638, 21.063493013381958, 21.180088996887207, 21.297045946121216, 21.413641929626465, 21.53062891960144, 21.647207021713257, 21.764127016067505, 21.880883932113647, 21.997638940811157, 22.114343881607056, 22.231225967407227, 22.4529709815979]	[18.349101907348647, 18.465768574015314, 19.448768574015315, 19.615468574015313, 20.365468574015313, 20.48213524068198, 20.598801907348648, 20.715468574015315, 20.832135240681982, 20.94880190734865, 21.065468574015316, 21.182135240681983, 21.29880190734865, 21.415468574015318, 21.532135240681985, 21.648801907348652, 21.76546857401532, 21.882135240681986, 21.998801907348653, 22.11546857401532, 22.232135240681988, 22.465468574015322]	2021_Feb_18_1259	59.937979976392384	1	1
31	5	FALSE	NA	v	['M', 'C', 'U', 'Y', 'G', 'P', 'R', 'Z', 'V', 'B', 'S', 'A', 'N', 'X', 'E', 'H']	[1224, 829, 2059, 2670, 944, 1456, 1587, 2911, 2245, 760, 1731, 697, 1335, 4000, 904, 986]	14	Present	NA	NA	PRESENT	0.3376960754394531	24.459604024887085	26.46438980102539	27.748152017593384	28.099485874176025	30.569337844848633	4.104948043823242	[24.467222929000854, 24.583783864974976, 25.568028926849365, 25.734973907470703, 26.485713958740234, 26.60248589515686, 26.719418048858643, 26.836251974105835, 26.953081846237183, 27.06986403465271, 27.186558961868286, 27.303247928619385, 27.42011785507202, 27.536972999572754, 27.653852939605713, 27.77043890953064, 27.88712191581726, 28.003907918930054, 28.1208279132843, 28.237714052200317, 28.354524850845337, 28.569337844848633]	[24.465468574015322, 24.58213524068199, 25.56513524068199, 25.73183524068199, 26.48183524068199, 26.598501907348655, 26.715168574015323, 26.83183524068199, 26.948501907348657, 27.065168574015324, 27.18183524068199, 27.29850190734866, 27.415168574015325, 27.531835240681993, 27.64850190734866, 27.765168574015327, 27.881835240681994, 27.99850190734866, 28.11516857401533, 28.231835240681995, 28.348501907348663, 28.581835240681997]	2021_Feb_18_1259	59.937979976392384	1	1
31	6	FALSE	NA	v	['Z', 'T', 'K', 'S', 'P', 'H', 'M', 'U', 'A', 'Y', 'N', 'X', 'W', 'B', 'R', 'V']	[2911, 1888, 1122, 1731, 1456, 986, 1224, 2059, 697, 2670, 1335, 4000, 2448, 760, 1587, 2245]	12	Present	NA	NA	PRESENT	0.32695508003234863	30.58262586593628	32.58070397377014	33.6311469078064	33.98115801811218	36.685704946517944	4.105000972747803	[30.59024405479431, 30.706804990768433, 31.674566984176636, 31.84141993522644, 32.60892200469971, 32.7258038520813, 32.84270787239075, 32.95929789543152, 33.07594585418701, 33.192893981933594, 33.30957102775574, 33.42662787437439, 33.526490926742554, 33.6432569026947, 33.76034688949585, 33.87691903114319, 33.99355101585388, 34.110419034957886, 34.22716403007507, 34.34395503997803, 34.46094989776611, 34.685704946517944]	[30.581835240681997, 30.698501907348664, 31.681501907348665, 31.848201907348663, 32.59820190734867, 32.714868574015334, 32.831535240682, 32.94820190734867, 33.064868574015335, 33.181535240682, 33.29820190734867, 33.41486857401534, 33.531535240682004, 33.64820190734867, 33.76486857401534, 33.881535240682005, 33.99820190734867, 34.11486857401534, 34.23153524068201, 34.348201907348674, 34.46486857401534, 34.698201907348675]	2021_Feb_18_1259	59.937979976392384	1	1
31	7	FALSE	NV	v	['P', 'N', 'T', 'K', 'R', 'V', 'C', 'B', 'A', 'M', 'X', 'U', 'G', 'Z', 'E', 'W']	[1456, 1335, 1888, 1122, 1587, 2245, 829, 760, 697, 1224, 4000, 2059, 944, 2911, 904, 2448]	11	Present	NA	NA	PRESENT	0.34769201278686523	36.68896985054016	38.69715690612793	39.630759954452515	39.98081994056702	42.80206990242005	4.104912996292114	[36.69658803939819, 36.813474893569946, 37.797991037368774, 37.96462798118591, 38.71540093421936, 38.832090854644775, 38.9490020275116, 39.06583905220032, 39.18256402015686, 39.299278020858765, 39.416022062301636, 39.53308987617493, 39.64974498748779, 39.7666289806366, 39.88350486755371, 40.00006985664368, 40.116803884506226, 40.23364591598511, 40.350507974624634, 40.467180013656616, 40.58415699005127, 40.80206894874573]	[36.698201907348675, 36.81486857401534, 37.79786857401534, 37.96456857401534, 38.71456857401534, 38.831235240682005, 38.94790190734867, 39.06456857401534, 39.18123524068201, 39.297901907348674, 39.41456857401534, 39.53123524068201, 39.647901907348675, 39.76456857401534, 39.88123524068201, 39.99790190734868, 40.114568574015344, 40.23123524068201, 40.34790190734868, 40.464568574015345, 40.58123524068201, 40.81456857401535]	2021_Feb_18_1259	59.937979976392384	1	1
31	8	FALSE	VA	v	['V', 'J', 'U', 'A', 'T', 'M', 'P', 'Y', 'G', 'W', 'surprise', 'K', 'E', 'X', 'S', 'R']	[2245, 1029, 2059, 697, 1888, 1224, 1456, 2670, 944, 2448, 'stimAuditory/all_stimAuditory/215.wav', 1122, 904, 4000, 1731, 1587]	14	Present	NA	stimVisual/all_stimVisual/207.jpg	ABSENT	1.328996181488037	42.81222486495972	44.8133909702301	46.09716486930847	46.4472279548645	48.91843795776367	4.105046987533569	[42.819844007492065, 42.93641400337219, 43.92121887207031, 44.08771085739136, 44.838584899902344, 44.95535087585449, 45.07231593132019, 45.188941955566406, 45.30568885803223, 45.42262005805969, 45.539511919021606, 45.656172037124634, 45.773066997528076, 45.889747858047485, 46.0063910484314, 46.123175859451294, 46.240171909332275, 46.35696601867676, 46.47351384162903, 46.59058403968811, 46.690398931503296, 46.918437004089355]	[42.81456857401535, 42.931235240682014, 43.91423524068201, 44.08093524068201, 44.83093524068201, 44.94760190734868, 45.064268574015344, 45.18093524068201, 45.29760190734868, 45.414268574015345, 45.53093524068201, 45.64760190734868, 45.76426857401535, 45.880935240682014, 45.99760190734868, 46.11426857401535, 46.230935240682015, 46.34760190734868, 46.46426857401535, 46.58093524068202, 46.697601907348684, 46.93093524068202]	2021_Feb_18_1259	59.937979976392384	1	1
31	9	FALSE	NV	v	['Z', 'E', 'N', 'U', 'Y', 'J', 'M', 'W', 'X', 'R', 'K', 'G', 'H', 'V', 'B', 'A']	[2911, 904, 1335, 2059, 2670, 1029, 1224, 2448, 4000, 1587, 1122, 944, 986, 2245, 760, 697]	9	Present	NA	NA	PRESENT	0.3572530746459961	48.91850781440735	50.92984080314636	51.63034987449646	51.98031187057495	55.03480386734009	4.104963064193726	[48.92612600326538, 49.043123960494995, 50.02736806869507, 50.194467067718506, 50.94488501548767, 51.06170296669006, 51.178650856018066, 51.29533004760742, 51.41219091415405, 51.52920198440552, 51.64592504501343, 51.76255989074707, 51.8794379234314, 51.99605584144592, 52.11308193206787, 52.229740858078, 52.34665393829346, 52.463369846343994, 52.58019399642944, 52.696823835372925, 52.81360602378845, 53.03480505943298]	[48.93093524068202, 49.047601907348685, 50.03060190734868, 50.19730190734868, 50.94730190734868, 51.06396857401535, 51.180635240682015, 51.29730190734868, 51.41396857401535, 51.53063524068202, 51.647301907348684, 51.76396857401535, 51.88063524068202, 51.997301907348685, 52.11396857401535, 52.23063524068202, 52.34730190734869, 52.463968574015354, 52.58063524068202, 52.69730190734869, 52.813968574015355, 53.04730190734869]	2021_Feb_18_1259	59.937979976392384	1	1
31	10	FALSE	NA	v	['A', 'U', 'B', 'J', 'Y', 'V', 'C', 'X', 'W', 'P', 'G', 'S', 'E', 'N', 'K', 'Z']	[697, 2059, 760, 1029, 2670, 2245, 829, 4000, 2448, 1456, 944, 1731, 904, 1335, 1122, 2911]	8	Present	NA	NA	PRESENT	0.4420139789581299	55.04204201698303	57.04612398147583	57.62988996505737	57.98008489608765	61.1511709690094	4.105046987533569	[55.049663066864014, 55.16631603240967, 56.150744915008545, 56.31745386123657, 57.06814384460449, 57.1850860118866, 57.301854848861694, 57.41849088668823, 57.53541398048401, 57.65228199958801, 57.76907992362976, 57.885823011398315, 58.00268006324768, 58.11953401565552, 58.2363018989563, 58.3530478477478, 58.469701051712036, 58.58659386634827, 58.703397035598755, 58.82003998756409, 58.93687701225281, 59.15117001533508]	[55.04730190734869, 55.16396857401536, 56.146968574015354, 56.31366857401535, 57.06366857401535, 57.18033524068202, 57.29700190734869, 57.413668574015354, 57.53033524068202, 57.64700190734869, 57.763668574015355, 57.88033524068202, 57.99700190734869, 58.11366857401536, 58.230335240682024, 58.34700190734869, 58.46366857401536, 58.580335240682025, 58.69700190734869, 58.81366857401536, 58.93033524068203, 59.16366857401536]	2021_Feb_18_1259	59.937979976392384	1	1
31	11	FALSE	NN	v	['P', 'G', 'Z', 'T', 'Y', 'A', 'W', 'B', 'H', 'V', 'K', 'J', 'E', 'U', 'R', 'M']	[1456, 944, 2911, 1888, 2670, 697, 2448, 760, 986, 2245, 1122, 1029, 904, 2059, 1587, 1224]	14	Absent	NA	NA	ABSENT	0.9991910457611084	61.165114879608154	63.16264200210571	64.44651079177856	64.79641699790955	67.26753687858582	4.1048948764801025	[61.17273306846619, 61.27259802818298, 62.25700783729553, 62.42388606071472, 63.19133901596069, 63.29135584831238, 63.408185958862305, 63.524924993515015, 63.64175796508789, 63.758548974990845, 63.87538290023804, 63.992143869400024, 64.10892605781555, 64.22579884529114, 64.3425920009613, 64.45934891700745, 64.57617998123169, 64.69329786300659, 64.80968594551086, 64.92652106285095, 65.04345989227295, 65.2675359249115]	[61.16366857401536, 61.28033524068203, 62.263335240682025, 62.430035240682024, 63.180035240682024, 63.29670190734869, 63.41336857401536, 63.530035240682025, 63.64670190734869, 63.76336857401536, 63.88003524068203, 63.996701907348694, 64.11336857401535, 64.23003524068201, 64.34670190734867, 64.46336857401533, 64.580035240682, 64.69670190734865, 64.81336857401531, 64.93003524068197, 65.04670190734863, 65.28003524068197]	2021_Feb_18_1259	59.937979976392384	1	1
31	12	FALSE	NA	v	['B', 'R', 'T', 'Z', 'W', 'S', 'U', 'E', 'V', 'C', 'X', 'H', 'Y', 'G', 'M', 'P']	[760, 1587, 1888, 2911, 2448, 1731, 2059, 904, 2245, 829, 4000, 986, 2670, 944, 1224, 1456]	11	Present	NA	NA	PRESENT	0.3478250503540039	67.27138996124268	69.27888083457947	70.21261787414551	70.5638198852539	73.38390493392944	4.105024099349976	[67.27900886535645, 67.39590692520142, 68.38026690483093, 68.54710984230042, 69.29781103134155, 69.41468691825867, 69.53155183792114, 69.64838600158691, 69.76519989967346, 69.88186502456665, 69.99879598617554, 70.11542201042175, 70.23233389854431, 70.34902691841125, 70.46591591835022, 70.58258891105652, 70.69946503639221, 70.81632804870605, 70.93292903900146, 71.04974484443665, 71.16637897491455, 71.38390493392944]	[67.28003524068197, 67.39670190734863, 68.37970190734863, 68.54640190734864, 69.29640190734864, 69.4130685740153, 69.52973524068196, 69.64640190734862, 69.76306857401528, 69.87973524068194, 69.9964019073486, 70.11306857401526, 70.22973524068192, 70.34640190734858, 70.46306857401524, 70.5797352406819, 70.69640190734856, 70.81306857401522, 70.92973524068188, 71.04640190734854, 71.1630685740152, 71.39640190734853]	2021_Feb_18_1259	59.937979976392384	1	1
31	13	FALSE	AA	v	['R', 'E', 'B', 'P', 'M', 'A', 'surprise', 'W', 'Z', 'X', 'Y', 'T', 'H', 'K', 'N', 'V']	[1587, 904, 760, 1456, 1224, 697, 'stimAuditory/all_stimAuditory/210.wav', 2448, 2911, 4000, 2670, 1888, 986, 1122, 1335, 2245]	10	Present	stimAuditory/all_stimAuditory/215.wav	stimVisual/all_stimVisual/250.jpg	NONE	-1	73.39509582519531	75.39547991752625	76.21233797073364	76.56250190734863	79.50876092910767	4.113281011581421	[73.40271401405334, 73.5189139842987, 74.50358390808105, 74.67065000534058, 75.42103290557861, 75.53781485557556, 75.65451693534851, 75.77147388458252, 75.93832898139954, 76.00497388839722, 76.12179493904114, 76.23863291740417, 76.35550999641418, 76.47211194038391, 76.58911299705505, 76.70595002174377, 76.82246804237366, 76.93942904472351, 77.05612993240356, 77.17303991317749, 77.27287101745605, 77.50027203559875]	[73.39640190734853, 73.5130685740152, 74.4960685740152, 74.6627685740152, 75.4127685740152, 75.52943524068186, 75.64610190734852, 75.76276857401518, 75.87943524068184, 75.9961019073485, 76.11276857401516, 76.22943524068182, 76.34610190734848, 76.46276857401514, 76.5794352406818, 76.69610190734846, 76.81276857401512, 76.92943524068178, 77.04610190734844, 77.1627685740151, 77.27943524068176, 77.5127685740151]	2021_Feb_18_1259	59.937979976392384	1	1
31	14	FALSE	NV	v	['S', 'H', 'P', 'T', 'J', 'U', 'W', 'E', 'R', 'A', 'Y', 'G', 'K', 'X', 'M', 'N']	[1731, 986, 1456, 1888, 1029, 2059, 2448, 904, 1587, 697, 2670, 944, 1122, 4000, 1224, 1335]	14	Present	NA	NA	PRESENT	0.33364391326904297	79.51767897605896	81.51168584823608	82.79541301727295	83.14544987678528	85.61663794517517	4.104952096939087	[79.52529692649841, 79.62541890144348, 80.61001801490784, 80.77671098709106, 81.52735900878906, 81.64426589012146, 81.76114201545715, 81.87784194946289, 81.99471306800842, 82.11162495613098, 82.2283239364624, 82.34503197669983, 82.4619209766388, 82.57857394218445, 82.69553089141846, 82.81218099594116, 82.92910599708557, 83.04583096504211, 83.16276383399963, 83.27931594848633, 83.39605402946472, 83.61663794517517]	[79.5127685740151, 79.62943524068176, 80.61243524068176, 80.77913524068177, 81.52913524068177, 81.64580190734843, 81.76246857401509, 81.87913524068175, 81.99580190734841, 82.11246857401507, 82.22913524068173, 82.34580190734839, 82.46246857401505, 82.57913524068171, 82.69580190734837, 82.81246857401503, 82.92913524068169, 83.04580190734835, 83.16246857401501, 83.27913524068167, 83.39580190734833, 83.62913524068166]	2021_Feb_18_1259	59.937979976392384	1	1
31	15	FALSE	NA	v	['U', 'R', 'Z', 'Y', 'E', 'N', 'A', 'X', 'M', 'V', 'K', 'B', 'S', 'W', 'J', 'G']	[2059, 1587, 2911, 2670, 904, 1335, 697, 4000, 1224, 2245, 1122, 760, 1731, 2448, 1029, 944]	8	Present	NA	NA	ABSENT	0.6502420902252197	85.62456798553467	87.62800288200378	88.21219396591187	88.56178593635559	91.7330038547516	4.105000972747803	[85.63218593597412, 85.7487440109253, 86.73322892189026, 86.89996790885925, 87.65072298049927, 87.76741695404053, 87.88442587852478, 88.00101685523987, 88.1179530620575, 88.2346248626709, 88.35151290893555, 88.46823501586914, 88.58507585525513, 88.70187401771545, 88.81869101524353, 88.9353859424591, 89.05238795280457, 89.16911888122559, 89.2857780456543, 89.4029529094696, 89.51930594444275, 89.73300290107727]	[85.62913524068166, 85.74580190734832, 86.72880190734833, 86.89550190734833, 87.64550190734833, 87.76216857401499, 87.87883524068165, 87.99550190734831, 88.11216857401497, 88.22883524068163, 88.3455019073483, 88.46216857401495, 88.57883524068161, 88.69550190734827, 88.81216857401493, 88.9288352406816, 89.04550190734825, 89.16216857401491, 89.27883524068157, 89.39550190734823, 89.5121685740149, 89.74550190734823]	2021_Feb_18_1259	59.937979976392384	1	1
31	16	FALSE	NA	v	['E', 'U', 'N', 'G', 'K', 'Y', 'V', 'P', 'M', 'B', 'H', 'X', 'Z', 'C', 'W', 'J']	[904, 2059, 1335, 944, 1122, 2670, 2245, 1456, 1224, 760, 986, 4000, 2911, 829, 2448, 1029]	12	Present	NA	NA	PRESENT	0.2554938793182373	91.73056387901306	93.74437189102171	94.7949550151825	95.14479279518127	97.8493709564209	4.10499906539917	[91.73818302154541, 91.85499405860901, 92.83947896957397, 93.0063579082489, 93.77390694618225, 93.87382102012634, 93.99059891700745, 94.10747504234314, 94.22422099113464, 94.34101486206055, 94.45783805847168, 94.57458090782166, 94.6916868686676, 94.80821990966797, 94.92503094673157, 95.04184794425964, 95.15874099731445, 95.27543902397156, 95.39243698120117, 95.50904083251953, 95.62593388557434, 95.84936904907227]	[91.74550190734823, 91.86216857401489, 92.84516857401489, 93.0118685740149, 93.7618685740149, 93.87853524068156, 93.99520190734822, 94.11186857401488, 94.22853524068154, 94.3452019073482, 94.46186857401486, 94.57853524068152, 94.69520190734818, 94.81186857401484, 94.9285352406815, 95.04520190734816, 95.16186857401482, 95.27853524068148, 95.39520190734814, 95.5118685740148, 95.62853524068146, 95.86186857401479]	2021_Feb_18_1259	59.937979976392384	1	1
31	17	FALSE	NA	v	['J', 'P', 'H', 'G', 'M', 'S', 'V', 'E', 'T', 'C', 'A', 'Z', 'X', 'W', 'B', 'N']	[1029, 1456, 986, 944, 1224, 1731, 2245, 904, 1888, 829, 697, 2911, 4000, 2448, 760, 1335]	13	Present	NA	NA	ABSENT	0.7480928897857666	97.85397601127625	99.8607349395752	101.02796983718872	101.37805795669556	103.9657380580902	4.105003118515015	[97.86159491539001, 97.97826886177063, 98.962651014328, 99.12970399856567, 99.88037204742432, 99.99709105491638, 100.11408805847168, 100.23071002960205, 100.34753704071045, 100.46432685852051, 100.58110094070435, 100.6978440284729, 100.81473803520203, 100.93140506744385, 101.04829692840576, 101.16507983207703, 101.28181004524231, 101.39874196052551, 101.51561188697815, 101.63234686851501, 101.74899101257324, 101.96573805809021]	[97.86186857401479, 97.97853524068145, 98.96153524068146, 99.12823524068146, 99.87823524068146, 99.99490190734812, 100.11156857401478, 100.22823524068144, 100.3449019073481, 100.46156857401476, 100.57823524068142, 100.69490190734808, 100.81156857401474, 100.9282352406814, 101.04490190734806, 101.16156857401472, 101.27823524068138, 101.39490190734804, 101.5115685740147, 101.62823524068136, 101.74490190734802, 101.97823524068136]	2021_Feb_18_1259	59.937979976392384	1	1
31	18	FALSE	NV	v	['U', 'J', 'G', 'P', 'W', 'Z', 'T', 'K', 'X', 'S', 'V', 'H', 'M', 'C', 'A', 'B']	[2059, 1029, 944, 1456, 2448, 2911, 1888, 1122, 4000, 1731, 2245, 986, 1224, 829, 697, 760]	9	Present	NA	NA	PRESENT	0.3693099021911621	103.97721481323242	105.97714495658876	106.6774787902832	107.02752089500429	110.08210396766664	4.104959011077881	[103.98483300209045, 104.10159802436829, 105.08608603477478, 105.25295090675354, 106.00342988967896, 106.12046384811401, 106.23713302612305, 106.35394501686096, 106.47077584266663, 106.58764600753784, 106.70438885688782, 106.82111287117004, 106.937814950943, 107.05479884147644, 107.17153906822205, 107.28821802139282, 107.40500497817993, 107.5217969417572, 107.63868284225464, 107.75561690330505, 107.85549092292786, 108.08210492134094]	[103.97823524068136, 104.09490190734802, 105.07790190734802, 105.24460190734803, 105.99460190734803, 106.11126857401469, 106.22793524068135, 106.34460190734801, 106.46126857401467, 106.57793524068133, 106.69460190734799, 106.81126857401465, 106.92793524068131, 107.04460190734797, 107.16126857401463, 107.27793524068129, 107.39460190734795, 107.51126857401461, 107.62793524068127, 107.74460190734793, 107.86126857401459, 108.09460190734792]	2021_Feb_18_1259	59.937979976392384	1	1
31	19	FALSE	NV	v	['E', 'H', 'Z', 'V', 'A', 'R', 'K', 'M', 'X', 'G', 'B', 'Y', 'T', 'W', 'U', 'C']	[904, 986, 2911, 2245, 697, 1587, 1122, 1224, 4000, 944, 760, 2670, 1888, 2448, 2059, 829]	9	Present	NA	NA	ABSENT	0.6779141426086426	110.08357501029968	112.09357786178587	112.7938838005066	113.1449580192566	116.19846987724304	4.104892015457153	[110.09119391441345, 110.2080569267273, 111.19232988357544, 111.3593180179596, 112.10989594459534, 112.2266640663147, 112.34373092651367, 112.4604320526123, 112.5772500038147, 112.69391894340515, 112.81082487106323, 112.92745184898376, 113.04439687728882, 113.1611258983612, 113.27786993980408, 113.39467287063599, 113.51146984100342, 113.62838101387024, 113.7452290058136, 113.86194491386414, 113.97865200042725, 114.19846987724304]	[110.09460190734792, 110.21126857401458, 111.19426857401459, 111.36096857401459, 112.11096857401459, 112.22763524068125, 112.34430190734791, 112.46096857401457, 112.57763524068123, 112.69430190734789, 112.81096857401455, 112.92763524068121, 113.04430190734787, 113.16096857401453, 113.27763524068119, 113.39430190734785, 113.51096857401451, 113.62763524068117, 113.74430190734783, 113.86096857401449, 113.97763524068115, 114.21096857401449]	2021_Feb_18_1259	59.937979976392384	1	1
31	20	FALSE	NN	v	['J', 'P', 'W', 'S', 'N', 'E', 'C', 'Z', 'G', 'V', 'T', 'B', 'Y', 'U', 'H', 'K']	[1029, 1456, 2448, 1731, 1335, 904, 829, 2911, 944, 2245, 1888, 760, 2670, 2059, 986, 1122]	8	Absent	NA	NA	ABSENT	0.45060086250305176	116.2068018913269	118.2098867893219	118.7937319278717	119.1436529159546	122.31483793258668	4.1049511432647705	[116.21442103385925, 116.33121395111084, 117.31546688079834, 117.48237895965576, 118.232990026474, 118.34995698928833, 118.46668100357056, 118.58362889289856, 118.7003538608551, 118.81726384162903, 118.93409585952759, 119.05062985420227, 119.16748189926147, 119.28441500663757, 119.40120387077332, 119.51806902885437, 119.63455700874329, 119.75168800354004, 119.86841297149658, 119.98515295982361, 120.10193204879761, 120.31483697891235]	[116.21096857401449, 116.32763524068115, 117.31063524068115, 117.47733524068116, 118.22733524068116, 118.34400190734782, 118.46066857401448, 118.57733524068114, 118.6940019073478, 118.81066857401446, 118.92733524068112, 119.04400190734778, 119.16066857401444, 119.2773352406811, 119.39400190734776, 119.51066857401442, 119.62733524068108, 119.74400190734774, 119.8606685740144, 119.97733524068106, 120.09400190734772, 120.32733524068105]	2021_Feb_18_1259	59.937979976392384	1	1
31	21	FALSE	NN	v	['G', 'Z', 'S', 'P', 'E', 'V', 'H', 'K', 'W', 'B', 'M', 'J', 'Y', 'N', 'C', 'U']	[944, 2911, 1731, 1456, 904, 2245, 986, 1122, 2448, 760, 1224, 1029, 2670, 1335, 829, 2059]	12	Absent	NA	NA	ABSENT	0.31163501739501953	122.31313586235046	124.32614588737488	125.37669491767883	125.72667479515076	128.4312038421631	4.105057954788208	[122.3207540512085, 122.43751692771912, 123.42215394973755, 123.5889630317688, 124.35617685317993, 124.45637202262878, 124.57318592071533, 124.69022798538208, 124.80675387382507, 124.92353200912476, 125.0404999256134, 125.15709400177002, 125.2741379737854, 125.39076399803162, 125.50761485099792, 125.62429904937744, 125.74105787277222, 125.85810089111328, 125.97487092018127, 126.09154200553894, 126.20839595794678, 126.43120384216309]	[122.32733524068105, 122.44400190734771, 123.42700190734772, 123.59370190734772, 124.34370190734772, 124.46036857401438, 124.57703524068104, 124.6937019073477, 124.81036857401436, 124.92703524068102, 125.04370190734768, 125.16036857401434, 125.277035240681, 125.39370190734766, 125.51036857401432, 125.62703524068098, 125.74370190734764, 125.8603685740143, 125.97703524068096, 126.09370190734762, 126.21036857401428, 126.44370190734762]	2021_Feb_18_1259	59.937979976392384	1	1
31	22	FALSE	NA	v	['C', 'K', 'U', 'H', 'A', 'J', 'P', 'S', 'V', 'T', 'R', 'G', 'X', 'N', 'E', 'Z']	[829, 1122, 2059, 986, 697, 1029, 1456, 1731, 2245, 1888, 1587, 944, 4000, 1335, 904, 2911]	13	Present	NA	NA	PRESENT	0.33274412155151367	128.4364538192749	130.44259786605835	131.60984802246094	131.9596619606018	134.5475709438324	4.104973077774048	[128.44407296180725, 128.5607500076294, 129.54520797729492, 129.71204900741577, 130.46285390853882, 130.57965087890625, 130.69648599624634, 130.81311893463135, 130.92983984947205, 131.04663705825806, 131.1635239124298, 131.2803659439087, 131.3973250389099, 131.51389002799988, 131.63086700439453, 131.74766087532043, 131.86430501937866, 131.98127698898315, 132.0980269908905, 132.21488690376282, 132.3315088748932, 132.5475718975067]	[128.44370190734762, 128.5603685740143, 129.5433685740143, 129.7100685740143, 130.4600685740143, 130.57673524068096, 130.69340190734763, 130.8100685740143, 130.92673524068098, 131.04340190734766, 131.16006857401433, 131.276735240681, 131.39340190734768, 131.51006857401435, 131.62673524068103, 131.7434019073477, 131.86006857401438, 131.97673524068105, 132.09340190734773, 132.2100685740144, 132.32673524068107, 132.5600685740144]	2021_Feb_18_1259	59.937979976392384	1	1
31	23	FALSE	AV	v	['E', 'T', 'J', 'H', 'P', 'C', 'V', 'surprise', 'N', 'A', 'X', 'Z', 'R', 'W', 'U', 'B']	[904, 1888, 1029, 986, 1456, 829, 2245, 'stimAuditory/all_stimAuditory/116.wav', 1335, 697, 4000, 2911, 1587, 2448, 2059, 760]	11	Present	stimAuditory/all_stimAuditory/210.wav	stimVisual/all_stimVisual/216.jpg	PRESENT	0.2575840950012207	134.55965399742126	136.55901980400083	137.4927909374237	137.8428440093994	140.6639380455017	4.1049182415008545	[134.56727290153503, 134.68442606925964, 135.66836404800415, 135.83527088165283, 136.58592987060547, 136.70269203186035, 136.81954503059387, 136.93638491630554, 137.05323886871338, 137.17012000083923, 137.28670191764832, 137.40380191802979, 137.52042984962463, 137.63712191581726, 137.75405406951904, 137.8708209991455, 137.9874918460846, 138.10421299934387, 138.22099685668945, 138.33774089813232, 138.43822598457336, 138.6639368534088]	[134.5600685740144, 134.67673524068107, 135.65973524068107, 135.82643524068106, 136.57643524068106, 136.69310190734774, 136.8097685740144, 136.9264352406811, 137.04310190734776, 137.15976857401444, 137.2764352406811, 137.39310190734778, 137.50976857401446, 137.62643524068113, 137.7431019073478, 137.85976857401448, 137.97643524068116, 138.09310190734783, 138.2097685740145, 138.32643524068118, 138.44310190734785, 138.67643524068117]	2021_Feb_18_1259	59.937979976392384	1	1
31	24	FALSE	NA	v	['V', 'T', 'A', 'C', 'Y', 'B', 'G', 'K', 'Z', 'P', 'W', 'H', 'N', 'X', 'U', 'E']	[2245, 1888, 697, 829, 2670, 760, 944, 1122, 2911, 1456, 2448, 986, 1335, 4000, 2059, 904]	14	Present	NA	NA	ABSENT	0.597844123840332	140.66603589057922	142.67527794837952	143.95951581001282	144.30920481681824	146.78030395507812	4.105026006698608	[140.6736559867859, 140.79044890403748, 141.77489805221558, 141.94169187545776, 142.69251799583435, 142.80935406684875, 142.92614698410034, 143.0427589416504, 143.1598129272461, 143.27636790275574, 143.39312100410461, 143.51002287864685, 143.62689304351807, 143.74371099472046, 143.86051392555237, 143.9771409034729, 144.09411883354187, 144.2108919620514, 144.32763290405273, 144.44438004493713, 144.5610978603363, 144.78030490875244]	[140.67643524068117, 140.79310190734785, 141.77610190734785, 141.94280190734784, 142.69280190734784, 142.80946857401452, 142.9261352406812, 143.04280190734787, 143.15946857401454, 143.2761352406812, 143.3928019073479, 143.50946857401456, 143.62613524068124, 143.7428019073479, 143.85946857401458, 143.97613524068126, 144.09280190734793, 144.2094685740146, 144.32613524068128, 144.44280190734796, 144.55946857401463, 144.79280190734795]	2021_Feb_18_1259	59.937979976392384	1	1
31	25	FALSE	NV	v	['T', 'Z', 'C', 'J', 'K', 'Y', 'P', 'N', 'H', 'X', 'U', 'M', 'A', 'R', 'B', 'G']	[1888, 2911, 829, 1029, 1122, 2670, 1456, 1335, 986, 4000, 2059, 1224, 697, 1587, 760, 944]	10	Present	NA	NA	PRESENT	1.0266828536987305	146.78945994377136	148.7917778491974	149.60881090164185	149.95877695083618	152.89667105674744	4.104893207550049	[146.79707884788513, 146.9136369228363, 147.89790105819702, 148.06504487991333, 148.81560897827148, 148.93239402770996, 149.04913592338562, 149.1660439968109, 149.2829749584198, 149.4001350402832, 149.51642394065857, 149.63336896896362, 149.7499759197235, 149.86685991287231, 149.98364901542664, 150.10044503211975, 150.21717500686646, 150.33404684066772, 150.45085287094116, 150.567724943161, 150.6843180656433, 150.89667105674744]	[146.79280190734795, 146.90946857401462, 147.89246857401463, 148.05916857401462, 148.80916857401462, 148.9258352406813, 149.04250190734797, 149.15916857401464, 149.27583524068132, 149.392501907348, 149.50916857401467, 149.62583524068134, 149.74250190734801, 149.8591685740147, 149.97583524068136, 150.09250190734804, 150.2091685740147, 150.32583524068139, 150.44250190734806, 150.55916857401473, 150.6758352406814, 150.90916857401473]	2021_Feb_18_1259	59.937979976392384	1	1
31	26	FALSE	NA	v	['K', 'B', 'P', 'G', 'N', 'R', 'H', 'C', 'T', 'A', 'Y', 'X', 'E', 'U', 'S', 'W']	[1122, 760, 1456, 944, 1335, 1587, 986, 829, 1888, 697, 2670, 4000, 904, 2059, 1731, 2448]	12	Present	NA	NA	PRESENT	0.311892032623291	152.89572286605835	154.90820288658142	155.95846796035767	156.30846691131592	159.01303791999817	4.104835033416748	[152.90334105491638, 153.02012395858765, 154.00444793701172, 154.17137789726257, 154.9390799999237, 155.03895497322083, 155.15578889846802, 155.27237606048584, 155.38938689231873, 155.5060498714447, 155.62278485298157, 155.73958802223206, 155.85657906532288, 155.97316598892212, 156.08992886543274, 156.20682787895203, 156.3235239982605, 156.4404170513153, 156.5573239326477, 156.67411088943481, 156.7909288406372, 157.01303887367249]	[152.90916857401473, 153.0258352406814, 154.0088352406814, 154.1755352406814, 154.9255352406814, 155.04220190734807, 155.15886857401475, 155.27553524068142, 155.3922019073481, 155.50886857401477, 155.62553524068144, 155.74220190734812, 155.8588685740148, 155.97553524068147, 156.09220190734814, 156.20886857401482, 156.3255352406815, 156.44220190734816, 156.55886857401484, 156.6755352406815, 156.7922019073482, 157.0255352406815]	2021_Feb_18_1259	59.937979976392384	1	1
31	27	FALSE	VV	v	['S', 'G', 'V', 'E', 'surprise', 'M', 'J', 'X', 'Y', 'C', 'P', 'A', 'K', 'W', 'T', 'R']	[1731, 944, 2245, 904, 'stimAuditory/all_stimAuditory/120.wav', 1224, 1029, 4000, 2670, 829, 1456, 697, 1122, 2448, 1888, 1587]	8	Present	NA	stimVisual/all_stimVisual/115.jpg	PRESENT	0.30852293968200684	159.01898884773254	161.02427983283997	161.60847687721252	161.95817589759827	165.12940406799316	4.105124235153198	[159.0266079902649, 159.14347100257874, 160.12761998176575, 160.2946150302887, 161.04531002044678, 161.16209483146667, 161.27889704704285, 161.3960268497467, 161.51247787475586, 161.6293020248413, 161.7459168434143, 161.86300492286682, 161.9795880317688, 162.09647297859192, 162.21337485313416, 162.33001399040222, 162.4467899799347, 162.5637810230255, 162.68038702011108, 162.7972948551178, 162.9139699935913, 163.12940406799316]	[159.0255352406815, 159.14220190734818, 160.12520190734818, 160.29190190734818, 161.04190190734818, 161.15856857401485, 161.27523524068152, 161.3919019073482, 161.50856857401487, 161.62523524068155, 161.74190190734822, 161.8585685740149, 161.97523524068157, 162.09190190734824, 162.20856857401492, 162.3252352406816, 162.44190190734827, 162.55856857401494, 162.67523524068162, 162.7919019073483, 162.90856857401496, 163.14190190734828]	2021_Feb_18_1259	59.937979976392384	1	1
31	28	FALSE	NN	v	['H', 'J', 'Z', 'G', 'C', 'V', 'S', 'T', 'B', 'K', 'Y', 'E', 'W', 'M', 'N', 'U']	[986, 1029, 2911, 944, 829, 2245, 1731, 1888, 760, 1122, 2670, 904, 2448, 1224, 1335, 2059]	14	Absent	NA	NA	ABSENT	0.48968005180358887	165.14236688613892	167.1407368183136	168.4249358177185	168.77451181411743	171.24576997756958	4.1050331592559814	[165.14998698234558, 165.2665719985962, 166.2341229915619, 166.40094304084778, 167.1684229373932, 167.28545904159546, 167.4021589756012, 167.5189709663391, 167.63562083244324, 167.752543926239, 167.86932802200317, 167.9860818386078, 168.10275888442993, 168.21966695785522, 168.3196120262146, 168.4531228542328, 168.5532350540161, 168.6699559688568, 168.78674292564392, 168.9036090373993, 169.02062392234802, 169.24576997756958]	[165.14190190734828, 165.25856857401496, 166.24156857401496, 166.40826857401495, 167.15826857401495, 167.27493524068163, 167.3916019073483, 167.50826857401498, 167.62493524068165, 167.74160190734833, 167.858268574015, 167.97493524068167, 168.09160190734835, 168.20826857401502, 168.3249352406817, 168.44160190734837, 168.55826857401505, 168.67493524068172, 168.7916019073484, 168.90826857401507, 169.02493524068174, 169.25826857401506]	2021_Feb_18_1259	59.937979976392384	1	1
31	29	FALSE	NA	v	['V', 'C', 'Y', 'J', 'G', 'B', 'P', 'T', 'E', 'N', 'Z', 'X', 'A', 'M', 'W', 'H']	[2245, 829, 2670, 1029, 944, 760, 1456, 1888, 904, 1335, 2911, 4000, 697, 1224, 2448, 986]	12	Present	NA	NA	PRESENT	0.32638001441955566	171.24868893623352	173.25719785690308	174.30764985084534	174.65763092041016	177.3621380329132	4.104940176010132	[171.2563078403473, 171.37293601036072, 172.35729789733887, 172.52429103851318, 173.27487301826477, 173.39176392555237, 173.50855493545532, 173.62527298927307, 173.7422480583191, 173.85901498794556, 173.97562789916992, 174.0925989151001, 174.20924496650696, 174.32617592811584, 174.4431929588318, 174.55976104736328, 174.67666888237, 174.79333305358887, 174.91002893447876, 175.0269649028778, 175.14357900619507, 175.3621380329132]	[171.25826857401506, 171.37493524068174, 172.35793524068174, 172.52463524068173, 173.27463524068173, 173.3913019073484, 173.50796857401508, 173.62463524068176, 173.74130190734843, 173.8579685740151, 173.97463524068178, 174.09130190734845, 174.20796857401513, 174.3246352406818, 174.44130190734847, 174.55796857401515, 174.67463524068182, 174.7913019073485, 174.90796857401517, 175.02463524068185, 175.14130190734852, 175.37463524068184]	2021_Feb_18_1259	59.937979976392384	1	1
31	30	FALSE	NA	v	['U', 'R', 'J', 'T', 'Z', 'H', 'E', 'X', 'P', 'B', 'S', 'N', 'V', 'G', 'W', 'A']	[2059, 1587, 1029, 1888, 2911, 986, 904, 4000, 1456, 760, 1731, 1335, 2245, 944, 2448, 697]	8	Present	NA	NA	PRESENT	0.2437889575958252	177.37184882164	179.37351179122925	179.95728087425232	180.3072338104248	183.4785039424896	4.104992151260376	[177.37946796417236, 177.4961678981781, 178.48066401481628, 178.64729285240173, 179.39862394332886, 179.51511406898499, 179.6317789554596, 179.74873685836792, 179.86541986465454, 179.9821400642395, 180.0988278388977, 180.21567392349243, 180.33237099647522, 180.44924998283386, 180.566015958786, 180.68299198150635, 180.79954504966736, 180.91660499572754, 181.03326892852783, 181.1501169204712, 181.24998903274536, 181.47850489616394]	[177.37463524068184, 177.49130190734851, 178.47430190734852, 178.6410019073485, 179.3910019073485, 179.50766857401518, 179.62433524068186, 179.74100190734853, 179.8576685740152, 179.97433524068188, 180.09100190734856, 180.20766857401523, 180.3243352406819, 180.44100190734858, 180.55766857401525, 180.67433524068193, 180.7910019073486, 180.90766857401528, 181.02433524068195, 181.14100190734862, 181.2576685740153, 181.49100190734862]	2021_Feb_18_1259	59.937979976392384	1	1
31	31	FALSE	NV	v	['M', 'P', 'Z', 'G', 'J', 'W', 'U', 'A', 'B', 'Y', 'R', 'E', 'X', 'S', 'K', 'V']	[1224, 1456, 2911, 944, 1029, 2448, 2059, 697, 760, 2670, 1587, 904, 4000, 1731, 1122, 2245]	13	Present	NA	NA	PRESENT	0.29633402824401855	183.4783070087433	185.49011301994324	186.65696096420288	187.00719094276428	189.59486985206604	4.104756832122803	[183.48592686653137, 183.60278487205505, 184.58710193634033, 184.75427794456482, 185.52125191688538, 185.62139987945557, 185.7381148338318, 185.85492587089539, 185.97181606292725, 186.08849096298218, 186.2053349018097, 186.3221080303192, 186.43885397911072, 186.55563592910767, 186.6724328994751, 186.78933191299438, 186.90600895881653, 187.02299094200134, 187.1396849155426, 187.2566258907318, 187.37328696250916, 187.59487104415894]	[183.49100190734862, 183.6076685740153, 184.5906685740153, 184.7573685740153, 185.5073685740153, 185.62403524068196, 185.74070190734864, 185.8573685740153, 185.97403524068199, 186.09070190734866, 186.20736857401533, 186.324035240682, 186.44070190734868, 186.55736857401536, 186.67403524068203, 186.7907019073487, 186.90736857401538, 187.02403524068205, 187.14070190734873, 187.2573685740154, 187.37403524068208, 187.6073685740154]	2021_Feb_18_1259	59.937979976392384	1	1
31	32	FALSE	NV	v	['P', 'K', 'V', 'B', 'T', 'Z', 'A', 'R', 'X', 'N', 'H', 'U', 'Y', 'S', 'E', 'C']	[1456, 1122, 2245, 760, 1888, 2911, 697, 1587, 4000, 1335, 986, 2059, 2670, 1731, 904, 829]	9	Present	NA	NA	PRESENT	0.3487529754638672	189.60131692886353	191.60635685920715	192.3066189289093	192.65665197372437	195.71123695373535	4.104880094528198	[189.6089370250702, 189.72588205337524, 190.7101809978485, 190.87693095207214, 191.62768006324768, 191.74472284317017, 191.86149883270264, 191.9783170223236, 192.0949649810791, 192.21177792549133, 192.32848691940308, 192.4454209804535, 192.56219387054443, 192.67903304100037, 192.79568099975586, 192.91255688667297, 193.0293459892273, 193.14617085456848, 193.26287984848022, 193.3797059059143, 193.4964098930359, 193.71123886108398]	[189.6073685740154, 189.72403524068207, 190.70703524068207, 190.87373524068207, 191.62373524068207, 191.74040190734874, 191.85706857401541, 191.9737352406821, 192.09040190734876, 192.20706857401544, 192.3237352406821, 192.4404019073488, 192.55706857401546, 192.67373524068213, 192.7904019073488, 192.90706857401548, 193.02373524068216, 193.14040190734883, 193.2570685740155, 193.37373524068218, 193.49040190734885, 193.72373524068217]	2021_Feb_18_1259	59.937979976392384	1	1
31	33	FALSE	NN	v	['W', 'E', 'S', 'V', 'T', 'G', 'A', 'K', 'B', 'Z', 'H', 'R', 'C', 'Y', 'J', 'P']	[2448, 904, 1731, 2245, 1888, 944, 697, 1122, 760, 2911, 986, 1587, 829, 2670, 1029, 1456]	10	Absent	NA	NA	ABSENT	0.5300478935241699	195.7248408794403	197.72279691696167	198.53978896141052	198.8897259235382	201.82760405540463	4.104807138442993	[195.73246097564697, 195.8490400314331, 196.81652402877808, 196.9834339618683, 197.75104904174805, 197.86772894859314, 197.98453187942505, 198.1015820503235, 198.21807885169983, 198.3348250389099, 198.45155596733093, 198.56840896606445, 198.6683509349823, 198.78523993492126, 198.90210700035095, 199.01891899108887, 199.13567090034485, 199.25254487991333, 199.36924290657043, 199.48606204986572, 199.60299706459045, 199.82760286331177]	[195.72373524068217, 195.84040190734885, 196.82340190734885, 196.99010190734884, 197.74010190734884, 197.85676857401552, 197.9734352406822, 198.09010190734887, 198.20676857401554, 198.32343524068222, 198.4401019073489, 198.55676857401556, 198.67343524068224, 198.7901019073489, 198.9067685740156, 199.02343524068226, 199.14010190734894, 199.2567685740156, 199.37343524068228, 199.49010190734896, 199.60676857401563, 199.84010190734895]	2021_Feb_18_1259	59.937979976392384	1	1
31	34	FALSE	NV	v	['K', 'T', 'N', 'Z', 'V', 'E', 'U', 'H', 'X', 'S', 'J', 'M', 'A', 'C', 'W', 'R']	[1122, 1888, 1335, 2911, 2245, 904, 2059, 986, 4000, 1731, 1029, 1224, 697, 829, 2448, 1587]	9	Present	NA	NA	PRESENT	0.25464510917663574	201.8311779499054	203.8390338420868	204.53952383995056	204.88971281051636	207.9439709186554	4.1049370765686035	[201.83879590034485, 201.95543098449707, 202.93990993499756, 203.10670399665833, 203.8574879169464, 203.9742729663849, 204.09120202064514, 204.2077808380127, 204.32453894615173, 204.4414279460907, 204.558012008667, 204.67506098747253, 204.79183101654053, 204.90856385231018, 205.02531099319458, 205.14222884178162, 205.25885796546936, 205.3756458759308, 205.49269104003906, 205.60942006111145, 205.72652006149292, 205.94396996498108]	[201.84010190734895, 201.95676857401563, 202.93976857401563, 203.10646857401562, 203.85646857401562, 203.9731352406823, 204.08980190734897, 204.20646857401564, 204.32313524068232, 204.439801907349, 204.55646857401567, 204.67313524068234, 204.78980190734902, 204.9064685740157, 205.02313524068236, 205.13980190734904, 205.2564685740157, 205.3731352406824, 205.48980190734906, 205.60646857401574, 205.7231352406824, 205.95646857401573]	2021_Feb_18_1259	59.937979976392384	1	1
31	35	FALSE	NV	v	['T', 'P', 'S', 'G', 'N', 'R', 'H', 'Z', 'M', 'X', 'C', 'W', 'A', 'B', 'E', 'V']	[1888, 1456, 1731, 944, 1335, 1587, 986, 2911, 1224, 4000, 829, 2448, 697, 760, 904, 2245]	10	Present	NA	NA	PRESENT	0.25208187103271484	207.95413994789124	209.95544600486755	210.7731068134308	211.1226749420166	214.0603370666504	4.104891061782837	[207.961758852005, 208.07857584953308, 209.0630738735199, 209.2297718524933, 209.98058605194092, 210.0976870059967, 210.21437096595764, 210.33113193511963, 210.44782996177673, 210.56448888778687, 210.68132185935974, 210.79822206497192, 210.91485691070557, 211.03185892105103, 211.1486039161682, 211.26545095443726, 211.38211798667908, 211.49885201454163, 211.61577701568604, 211.7323648929596, 211.83248496055603, 212.0603380203247]	[207.95646857401573, 208.0731352406824, 209.0561352406824, 209.2228352406824, 209.9728352406824, 210.08950190734907, 210.20616857401575, 210.32283524068242, 210.4395019073491, 210.55616857401577, 210.67283524068245, 210.78950190734912, 210.9061685740158, 211.02283524068247, 211.13950190734914, 211.25616857401582, 211.3728352406825, 211.48950190734917, 211.60616857401584, 211.7228352406825, 211.8395019073492, 212.0728352406825]	2021_Feb_18_1259	59.937979976392384	1	1
31	36	FALSE	NV	v	['P', 'G', 'Z', 'S', 'R', 'A', 'B', 'X', 'Y', 'C', 'J', 'M', 'V', 'U', 'W', 'E']	[1456, 944, 2911, 1731, 1587, 697, 760, 4000, 2670, 829, 1029, 1224, 2245, 2059, 2448, 904]	8	Present	NA	NA	PRESENT	0.4324450492858886	214.0607249736786	216.07163190841675	216.65541696548465	217.0054488182068	220.1767029762268	4.105071067810059	[214.06834292411804, 214.18499302864075, 215.1693480014801, 215.33633184432983, 216.08723092079163, 216.2038459777832, 216.32080698013306, 216.4374179840088, 216.55445289611816, 216.67104291915894, 216.7877230644226, 216.9046709537506, 217.0213599205017, 217.13813996315002, 217.25487399101257, 217.37189102172852, 217.4887158870697, 217.60548496246338, 217.72212386131287, 217.8390588760376, 217.95563387870789, 218.17670392990112]	[214.0728352406825, 214.18950190734918, 215.1725019073492, 215.33920190734918, 216.08920190734918, 216.20586857401585, 216.32253524068253, 216.4392019073492, 216.55586857401588, 216.67253524068255, 216.78920190734922, 216.9058685740159, 217.02253524068257, 217.13920190734925, 217.25586857401592, 217.3725352406826, 217.48920190734927, 217.60586857401594, 217.72253524068262, 217.8392019073493, 217.95586857401597, 218.1892019073493]	2021_Feb_18_1259	59.937979976392384	1	1
31	37	FALSE	NN	v	['M', 'N', 'U', 'V', 'T', 'G', 'C', 'R', 'B', 'S', 'A', 'W', 'P', 'Y', 'E', 'K']	[1224, 1335, 2059, 2245, 1888, 944, 829, 1587, 760, 1731, 697, 2448, 1456, 2670, 904, 1122]	8	Absent	NA	NA	ABSENT	0.8289968967437744	220.18380689620972	222.18795490264893	222.77179098129272	223.1218090057373	226.29307103157043	4.105116128921509	[220.19142699241638, 220.30832386016846, 221.29274892807007, 221.45966386795044, 222.21014404296875, 222.3272349834442, 222.44382405281067, 222.56076097488403, 222.6775619983673, 222.79443192481995, 222.9108910560608, 223.027734041214, 223.14449906349182, 223.26154494285583, 223.37810397148132, 223.49504399299622, 223.61174392700195, 223.72856903076172, 223.84545397758484, 223.96202993392944, 224.0789749622345, 224.29307103157043]	[220.1892019073493, 220.30586857401596, 221.28886857401596, 221.45556857401596, 222.20556857401596, 222.32223524068263, 222.4389019073493, 222.55556857401598, 222.67223524068265, 222.78890190734933, 222.905568574016, 223.02223524068268, 223.13890190734935, 223.25556857401602, 223.3722352406827, 223.48890190734937, 223.60556857401605, 223.72223524068272, 223.8389019073494, 223.95556857401607, 224.07223524068274, 224.30556857401606]	2021_Feb_18_1259	59.937979976392384	1	1
31	38	FALSE	NV	v	['Y', 'B', 'K', 'A', 'S', 'W', 'H', 'V', 'U', 'X', 'Z', 'J', 'R', 'C', 'G', 'P']	[2670, 760, 1122, 697, 1731, 2448, 986, 2245, 2059, 4000, 2911, 1029, 1587, 829, 944, 1456]	10	Present	NA	NA	PRESENT	0.32241106033325195	226.3072099685669	228.3045330047607	229.1215147972107	229.47173690795896	232.40943789482117	4.104904890060425	[226.31482887268066, 226.4146819114685, 227.39906001091003, 227.5659818649292, 228.33359789848328, 228.4503378868103, 228.55021595954895, 228.66711497306824, 228.78380489349365, 228.90073704719543, 229.01741003990173, 229.13417792320251, 229.25100898742676, 229.36768102645874, 229.48455500602722, 229.60132789611816, 229.7180938720703, 229.83491396903992, 229.95175290107727, 230.06873297691345, 230.18553686141968, 230.40943884849548]	[226.30556857401606, 226.42223524068274, 227.40523524068274, 227.57193524068273, 228.32193524068273, 228.4386019073494, 228.55526857401608, 228.67193524068276, 228.78860190734943, 228.9052685740161, 229.02193524068278, 229.13860190734945, 229.25526857401613, 229.3719352406828, 229.48860190734948, 229.60526857401615, 229.72193524068282, 229.8386019073495, 229.95526857401617, 230.07193524068285, 230.18860190734952, 230.42193524068284]	2021_Feb_18_1259	59.937979976392384	1	1
31	39	FALSE	NV	v	['Y', 'Z', 'P', 'J', 'E', 'S', 'U', 'T', 'M', 'G', 'X', 'N', 'K', 'R', 'A', 'V']	[2670, 2911, 1456, 1029, 904, 1731, 2059, 1888, 1224, 944, 4000, 1335, 1122, 1587, 697, 2245]	11	Present	NA	NA	PRESENT	0.32700014114379883	232.41334080696103	234.42105984687805	235.3545758724213	235.7046627998352	238.52580499649048	4.104745149612427	[232.4209599494934, 232.53790092468262, 233.52222204208374, 233.68921184539795, 234.4398648738861, 234.55671000480652, 234.67357087135315, 234.79044795036316, 234.9070179462433, 235.02383303642273, 235.14079594612122, 235.25748205184937, 235.37433195114136, 235.49115991592407, 235.60781598091125, 235.72502398490906, 235.841481924057, 235.95815706253052, 236.07501602172852, 236.1919949054718, 236.30862402915955, 236.52580404281616]	[232.42193524068284, 232.53860190734952, 233.52160190734952, 233.6883019073495, 234.4383019073495, 234.5549685740162, 234.67163524068286, 234.78830190734953, 234.9049685740162, 235.02163524068288, 235.13830190734956, 235.25496857401623, 235.3716352406829, 235.48830190734958, 235.60496857401625, 235.72163524068293, 235.8383019073496, 235.95496857401628, 236.07163524068295, 236.18830190734963, 236.3049685740163, 236.53830190734962]	2021_Feb_18_1259	59.937979976392384	1	1
31	40	FALSE	VV	v	['U', 'K', 'N', 'C', 'surprise', 'B', 'R', 'X', 'E', 'A', 'T', 'W', 'Z', 'S', 'Y', 'V']	[2059, 1122, 1335, 829, 'stimAuditory/all_stimAuditory/115.wav', 760, 1587, 4000, 904, 697, 1888, 2448, 2911, 1731, 2670, 2245]	8	Present	NA	stimVisual/all_stimVisual/213.jpg	NONE	-1	238.53676795959473	240.53712582588196	241.12109184265137	241.47114491462708	244.65091490745544	4.113789081573486	[238.5443880558014, 238.66116905212402, 239.645525932312, 239.81242203712463, 240.56305694580078, 240.68005084991455, 240.7967369556427, 240.9135398864746, 241.0303020477295, 241.1472179889679, 241.26399087905884, 241.38050889968872, 241.49730706214905, 241.61408185958862, 241.73118591308594, 241.8478660583496, 241.96472883224487, 242.08140206336975, 242.19823503494263, 242.31504797935486, 242.41500997543335, 242.6421709060669]	[238.53830190734962, 238.6549685740163, 239.6379685740163, 239.8046685740163, 240.5546685740163, 240.67133524068296, 240.78800190734964, 240.9046685740163, 241.021335240683, 241.13800190734966, 241.25466857401634, 241.371335240683, 241.48800190734968, 241.60466857401636, 241.72133524068303, 241.8380019073497, 241.95466857401638, 242.07133524068306, 242.18800190734973, 242.3046685740164, 242.42133524068308, 242.6546685740164]	2021_Feb_18_1259	59.937979976392384	1	1
31	41	FALSE	NV	v	['W', 'P', 'N', 'T', 'K', 'C', 'U', 'A', 'B', 'Y', 'M', 'S', 'X', 'H', 'R', 'Z']	[2448, 1456, 1335, 1888, 1122, 829, 2059, 697, 760, 2670, 1224, 1731, 4000, 986, 1587, 2911]	13	Present	NA	NA	PRESENT	0.30481791496276855	244.6598699092865	246.65359783172607	247.8207528591156	248.17062997817993	250.7585380077362	4.104940176010132	[244.66748905181885, 244.76755285263062, 245.75226187705994, 245.91889595985413, 246.66943192481995, 246.78651785850525, 246.90329003334045, 247.02000093460083, 247.1367838382721, 247.25373196601868, 247.3703248500824, 247.48721194267273, 247.60386490821838, 247.72080993652344, 247.83740997314453, 247.95440006256104, 248.07116293907166, 248.1879370212555, 248.30452799797058, 248.42129802703857, 248.53819704055786, 248.7585380077362]	[244.6546685740164, 244.77133524068307, 245.75433524068308, 245.92103524068307, 246.67103524068307, 246.78770190734974, 246.90436857401642, 247.0210352406831, 247.13770190734976, 247.25436857401644, 247.3710352406831, 247.4877019073498, 247.60436857401646, 247.72103524068314, 247.8377019073498, 247.95436857401648, 248.07103524068316, 248.18770190734983, 248.3043685740165, 248.42103524068318, 248.53770190734986, 248.77103524068318]	2021_Feb_18_1259	59.937979976392384	1	1
31	42	FALSE	NV	v	['N', 'H', 'K', 'S', 'P', 'Y', 'M', 'U', 'E', 'C', 'Z', 'T', 'A', 'X', 'V', 'J']	[1335, 986, 1122, 1731, 1456, 2670, 1224, 2059, 904, 829, 2911, 1888, 697, 4000, 2245, 1029]	14	Present	NA	NA	PRESENT	0.3249189853668213	250.76631498336792	252.76987981796265	254.05382585525513	254.40380883216855	256.8749039173126	4.105024099349976	[250.77395606040955, 250.8907949924469, 251.8752748966217, 252.04183292388916, 252.79270792007446, 252.9096999168396, 253.02641987800598, 253.14331102371216, 253.25997185707092, 253.3768608570099, 253.49351406097412, 253.61035895347595, 253.7270848751068, 253.84394884109497, 253.96063089370728, 254.0773148536682, 254.19428706169128, 254.31119585037231, 254.42793703079224, 254.54472303390503, 254.66140604019165, 254.8749029636383]	[250.77103524068318, 250.88770190734985, 251.87070190734985, 252.03740190734985, 252.78740190734985, 252.90406857401652, 253.0207352406832, 253.13740190734987, 253.25406857401654, 253.37073524068322, 253.4874019073499, 253.60406857401657, 253.72073524068324, 253.8374019073499, 253.9540685740166, 254.07073524068326, 254.18740190734994, 254.3040685740166, 254.42073524068329, 254.53740190734996, 254.65406857401663, 254.88740190734995]	2021_Feb_18_1259	59.937979976392384	1	1
31	43	FALSE	NA	v	['E', 'C', 'B', 'K', 'R', 'J', 'P', 'U', 'V', 'W', 'Y', 'A', 'T', 'X', 'G', 'N']	[904, 829, 760, 1122, 1587, 1029, 1456, 2059, 2245, 2448, 2670, 697, 1888, 4000, 944, 1335]	14	Present	NA	NA	PRESENT	0.35460591316223145	256.88985896110535	258.88620591163635	260.17003893852234	260.5201909542084	262.99127101898193	4.105065107345581	[256.8974778652191, 256.9971408843994, 257.9815640449524, 258.148313999176, 258.9159948825836, 259.0159909725189, 259.13281989097595, 259.2495348453522, 259.36638283729553, 259.48315501213074, 259.5998749732971, 259.71683502197266, 259.83339285850525, 259.95039987564087, 260.067076921463, 260.1837348937988, 260.3005528450012, 260.41771483421326, 260.5344009399414, 260.65115094184875, 260.76792883872986, 260.99127101898193]	[256.88740190734995, 257.0040685740166, 257.98706857401663, 258.1537685740166, 258.9037685740166, 259.0204352406833, 259.13710190735, 259.25376857401665, 259.3704352406833, 259.48710190735, 259.60376857401667, 259.72043524068334, 259.83710190735, 259.9537685740167, 260.07043524068337, 260.18710190735004, 260.3037685740167, 260.4204352406834, 260.53710190735006, 260.65376857401674, 260.7704352406834, 261.00376857401676]	2021_Feb_18_1259	59.937979976392384	1	1
31	44	FALSE	VA	v	['A', 'R', 'P', 'H', 'K', 'B', 'surprise', 'S', 'N', 'X', 'C', 'T', 'W', 'Z', 'G', 'U']	[697, 1587, 1456, 986, 1122, 760, 'stimAuditory/all_stimAuditory/114.wav', 1731, 1335, 4000, 829, 1888, 2448, 2911, 944, 2059]	10	Present	NA	stimVisual/all_stimVisual/118.jpg	PRESENT	0.28725504875183105	262.9960069656372	265.00258898735046	265.8197100162506	266.1696619987488	269.10763788223267	4.105048894882202	[263.003625869751, 263.1203398704529, 264.10484790802, 264.2715148925781, 265.02231884002686, 265.13938784599304, 265.25598883628845, 265.372652053833, 265.4895370006561, 265.6063439846039, 265.72307991981506, 265.8401310443878, 265.9567639827728, 266.0735960006714, 266.19032192230225, 266.3072409629822, 266.42383193969727, 266.5406069755554, 266.6578109264374, 266.77417397499084, 266.89158391952515, 267.10763788223267]	[263.00376857401676, 263.12043524068343, 264.10343524068344, 264.27013524068343, 265.02013524068343, 265.1368019073501, 265.2534685740168, 265.37013524068345, 265.4868019073501, 265.6034685740168, 265.7201352406835, 265.83680190735015, 265.9534685740168, 266.0701352406835, 266.1868019073502, 266.30346857401685, 266.4201352406835, 266.5368019073502, 266.65346857401687, 266.77013524068354, 266.8868019073502, 267.12013524068357]	2021_Feb_18_1259	59.937979976392384	1	1
31	45	FALSE	NN	v	['U', 'R', 'G', 'Y', 'B', 'M', 'N', 'J', 'W', 'V', 'Z', 'S', 'P', 'E', 'H', 'T']	[2059, 1587, 944, 2670, 760, 1224, 1335, 1029, 2448, 2245, 2911, 1731, 1456, 904, 986, 1888]	12	Absent	NA	NA	ABSENT	0.3006248474121094	269.1191258430481	271.1190629005432	272.1694178581238	272.5194399356842	275.224004983902	4.104942083358765	[269.12674593925476, 269.24354696273804, 270.2280788421631, 270.3949749469757, 271.1455638408661, 271.2625138759613, 271.37927293777466, 271.4959578514099, 271.61282205581665, 271.72983288764954, 271.8464050292969, 271.96309089660645, 272.0800428390503, 272.19666385650635, 272.31358098983765, 272.43012499809265, 272.5472068786621, 272.6640079021454, 272.78075885772705, 272.89736890792847, 272.99742889404297, 273.224004983902]	[269.12013524068357, 269.23680190735024, 270.21980190735025, 270.38650190735024, 271.13650190735024, 271.2531685740169, 271.3698352406836, 271.48650190735026, 271.60316857401693, 271.7198352406836, 271.8365019073503, 271.95316857401696, 272.06983524068363, 272.1865019073503, 272.303168574017, 272.41983524068365, 272.5365019073503, 272.653168574017, 272.7698352406837, 272.88650190735035, 273.003168574017, 273.2365019073504]	2021_Feb_18_1259	59.937979976392384	1	1
31	46	FALSE	NV	v	['V', 'A', 'Y', 'C', 'H', 'U', 'S', 'K', 'T', 'W', 'X', 'P', 'G', 'E', 'M', 'B']	[2245, 697, 2670, 829, 986, 2059, 1731, 1122, 1888, 2448, 4000, 1456, 944, 904, 1224, 760]	11	Present	NA	NA	PRESENT	0.23299002647399905	275.2256510257721	277.2353529930115	278.1691257953644	278.51913189888	281.3403708934784	4.105017900466919	[275.23326992988586, 275.3500168323517, 276.3344988822937, 276.501179933548, 277.2522180080414, 277.369029045105, 277.48562383651733, 277.60261583328247, 277.7191970348358, 277.83622193336487, 277.95278787612915, 278.0697250366211, 278.18631887435913, 278.3032488822937, 278.41985988616943, 278.53674483299255, 278.65352988243103, 278.77047085762024, 278.8871169090271, 279.0038568973541, 279.12083292007446, 279.3403699398041]	[275.2365019073504, 275.35316857401705, 276.33616857401705, 276.50286857401704, 277.25286857401704, 277.3695352406837, 277.4862019073504, 277.60286857401707, 277.71953524068374, 277.8362019073504, 277.9528685740171, 278.06953524068376, 278.18620190735044, 278.3028685740171, 278.4195352406838, 278.53620190735046, 278.65286857401713, 278.7695352406838, 278.8862019073505, 279.00286857401716, 279.11953524068383, 279.3528685740172]	2021_Feb_18_1259	59.937979976392384	1	1
31	47	FALSE	NV	v	['U', 'R', 'S', 'Z', 'N', 'T', 'M', 'G', 'V', 'X', 'Y', 'E', 'H', 'K', 'W', 'J']	[2059, 1587, 1731, 2911, 1335, 1888, 1224, 944, 2245, 4000, 2670, 904, 986, 1122, 2448, 1029]	10	Present	NA	NA	PRESENT	0.3177511692047119	281.348828792572	283.3515980243683	284.16899394989014	284.5188720226288	287.4567379951477	4.105139970779419	[281.35644793510437, 281.473317861557, 282.4577660560608, 282.6245288848877, 283.37507700920105, 283.4919250011444, 283.608815908432, 283.7256429195404, 283.84240794181824, 283.9591238498688, 284.07606291770935, 284.1927559375763, 284.3096640110016, 284.42666888237, 284.5432279109955, 284.65985584259033, 284.77684903144836, 284.89383602142334, 285.01045298576355, 285.12716603279114, 285.2440309524536, 285.456738948822]	[281.3528685740172, 281.46953524068385, 282.45253524068386, 282.61923524068385, 283.36923524068385, 283.4859019073505, 283.6025685740172, 283.7192352406839, 283.83590190735055, 283.9525685740172, 284.0692352406839, 284.18590190735057, 284.30256857401724, 284.4192352406839, 284.5359019073506, 284.65256857401727, 284.76923524068394, 284.8859019073506, 285.0025685740173, 285.11923524068396, 285.23590190735064, 285.469235240684]	2021_Feb_18_1259	59.937979976392384	1	1
31	48	FALSE	NN	v	['H', 'Y', 'P', 'E', 'W', 'Z', 'A', 'J', 'V', 'M', 'K', 'R', 'G', 'B', 'C', 'S']	[986, 2670, 1456, 904, 2448, 2911, 697, 1029, 2245, 1224, 1122, 1587, 944, 760, 829, 1731]	9	Absent	NA	NA	PRESENT	0.43483710289001465	287.45544600486755	289.46803998947144	290.16854786872864	290.5186789035797	293.5731029510498	4.105062961578369	[287.4630630016327, 287.57957792282104, 288.56405806541443, 288.7307679653168, 289.4985179901123, 289.5985279083252, 289.71518993377686, 289.8321259021759, 289.9487679004669, 290.06558084487915, 290.1823799610138, 290.2993848323822, 290.41597986221313, 290.5330300331116, 290.64956188201904, 290.76653599739075, 290.88307785987854, 290.99988985061646, 291.1167230606079, 291.2337498664856, 291.3503658771515, 291.5731029510498]	[287.469235240684, 287.58590190735066, 288.56890190735066, 288.73560190735066, 289.48560190735066, 289.60226857401733, 289.718935240684, 289.8356019073507, 289.95226857401735, 290.068935240684, 290.1856019073507, 290.3022685740174, 290.41893524068405, 290.5356019073507, 290.6522685740174, 290.7689352406841, 290.88560190735075, 291.0022685740174, 291.1189352406841, 291.23560190735077, 291.35226857401744, 291.5856019073508]	2021_Feb_18_1259	59.937979976392384	1	1
31	49	FALSE	NA	v	['K', 'H', 'J', 'R', 'U', 'E', 'B', 'C', 'Z', 'T', 'P', 'X', 'Y', 'G', 'N', 'M']	[1122, 986, 1029, 1587, 2059, 904, 760, 829, 2911, 1888, 1456, 4000, 2670, 944, 1335, 1224]	12	Present	NA	NA	PRESENT	0.2314908504486084	293.57841086387634	295.584303855896	296.6349449157715	296.98509788513184	299.68947100639343	4.1051671504974365	[293.5860290527344, 293.70295906066895, 294.6874158382416, 294.8540289402008, 295.60495591163635, 295.72178292274475, 295.8384449481964, 295.9552218914032, 296.07208490371704, 296.1890299320221, 296.30570793151855, 296.422523021698, 296.53924894332886, 296.6565639972687, 296.77281284332275, 296.8902668952942, 297.0064129829407, 297.12314200401306, 297.240051984787, 297.3566679954529, 297.4736669063568, 297.68947100639343]	[293.5856019073508, 293.70226857401747, 294.68526857401747, 294.85196857401746, 295.60196857401746, 295.71863524068414, 295.8353019073508, 295.9519685740175, 296.06863524068416, 296.18530190735083, 296.3019685740175, 296.4186352406842, 296.53530190735086, 296.65196857401753, 296.7686352406842, 296.8853019073509, 297.00196857401755, 297.1186352406842, 297.2353019073509, 297.3519685740176, 297.46863524068425, 297.7019685740176]	2021_Feb_18_1259	59.937979976392384	1	1
31	50	FALSE	AA	v	['U', 'M', 'Z', 'S', 'Y', 'surprise', 'T', 'P', 'X', 'K', 'N', 'R', 'G', 'E', 'V', 'H']	[2059, 1224, 2911, 1731, 2670, 'stimAuditory/all_stimAuditory/223.wav', 1888, 1456, 4000, 1122, 1335, 1587, 944, 904, 2245, 986]	9	Present	stimAuditory/all_stimAuditory/116.wav	stimVisual/all_stimVisual/224.jpg	PRESENT	0.3167281150817871	299.70157194137573	301.7008578777313	302.4014549255371	302.75123500823975	305.80583786964417	4.104979991912842	[299.7091908454895, 299.8260350227356, 300.79363203048706, 300.96044087409973, 301.7281868457794, 301.8447389602661, 301.9618890285492, 302.07834005355835, 302.19514989852905, 302.3119740486145, 302.42895698547363, 302.5457890033722, 302.66241693496704, 302.7793278694153, 302.8961229324341, 303.012717962265, 303.1295039653778, 303.24632501602173, 303.36320400238037, 303.4800159931183, 303.5799958705902, 303.80583786964417]	[299.7019685740176, 299.8186352406843, 300.8016352406843, 300.96833524068427, 301.71833524068427, 301.83500190735094, 301.9516685740176, 302.0683352406843, 302.18500190735097, 302.30166857401764, 302.4183352406843, 302.535001907351, 302.65166857401766, 302.76833524068434, 302.885001907351, 303.0016685740177, 303.11833524068436, 303.23500190735103, 303.3516685740177, 303.4683352406844, 303.58500190735106, 303.8183352406844]	2021_Feb_18_1259	59.937979976392384	1	1
31	51	FALSE	NN	v	['G', 'R', 'U', 'A', 'W', 'P', 'B', 'V', 'Z', 'K', 'Y', 'H', 'C', 'J', 'E', 'M']	[944, 1587, 2059, 697, 2448, 1456, 760, 2245, 2911, 1122, 2670, 986, 829, 1029, 904, 1224]	13	Absent	NA	NA	ABSENT	0.4333682060241699	305.8082559108734	307.8174419403076	308.9843180179596	309.33432388305664	311.9222049713135	4.104763031005859	[305.81587505340576, 305.93245792388916, 306.917289018631, 307.0836009979248, 307.83443689346313, 307.95152592658997, 308.0680739879608, 308.1849479675293, 308.3016698360443, 308.41857290267944, 308.5353000164032, 308.6519808769226, 308.76899003982544, 308.8857159614563, 309.00255703926086, 309.11929392814636, 309.2359399795532, 309.3529498577118, 309.46962904930115, 309.5863130092621, 309.7031579017639, 309.9222059249878]	[305.8183352406844, 305.9350019073511, 306.9180019073511, 307.0847019073511, 307.8347019073511, 307.95136857401775, 308.0680352406844, 308.1847019073511, 308.3013685740178, 308.41803524068445, 308.5347019073511, 308.6513685740178, 308.76803524068447, 308.88470190735114, 309.0013685740178, 309.1180352406845, 309.23470190735117, 309.35136857401784, 309.4680352406845, 309.5847019073512, 309.70136857401786, 309.9347019073512]	2021_Feb_18_1259	59.937979976392384	1	1
31	52	FALSE	NV	v	['M', 'B', 'P', 'S', 'A', 'Y', 'Z', 'T', 'E', 'X', 'H', 'J', 'V', 'G', 'K', 'N']	[1224, 760, 1456, 1731, 697, 2670, 2911, 1888, 904, 4000, 986, 1029, 2245, 944, 1122, 1335]	10	Present	NA	NA	PRESENT	0.7508220672607422	311.93124294281006	313.9340388774872	314.75063395500183	315.1008348464966	318.0385708808899	4.10453200340271	[311.93887400627136, 312.05581283569336, 313.0402898788452, 313.2069809436798, 313.95759201049805, 314.07441806793213, 314.19132685661316, 314.30821800231934, 314.4249470233917, 314.5417149066925, 314.6585729122162, 314.775377035141, 314.8927240371704, 315.008829832077, 315.12563586235046, 315.24239802360535, 315.359375, 315.4760398864746, 315.5929009914398, 315.7094979286194, 315.82628989219666, 316.0385699272156]	[311.9347019073512, 312.0513685740179, 313.0343685740179, 313.2010685740179, 313.9510685740179, 314.06773524068456, 314.18440190735123, 314.3010685740179, 314.4177352406846, 314.53440190735125, 314.6510685740179, 314.7677352406846, 314.8844019073513, 315.00106857401795, 315.1177352406846, 315.2344019073513, 315.351068574018, 315.46773524068465, 315.5844019073513, 315.701068574018, 315.81773524068467, 316.051068574018]	2021_Feb_18_1259	59.937979976392384	1	1
31	53	FALSE	NA	v	['G', 'Y', 'P', 'S', 'R', 'V', 'N', 'E', 'H', 'M', 'T', 'C', 'X', 'Z', 'A', 'K']	[944, 2670, 1456, 1731, 1587, 2245, 1335, 904, 986, 1224, 1888, 829, 4000, 2911, 697, 1122]	13	Present	NA	NA	PRESENT	0.24322080612182617	318.0377039909363	320.04991388320923	321.2187588214874	321.5670208930969	324.1549379825592	4.105024099349976	[318.04532194137573, 318.16210103034973, 319.1465229988098, 319.3133568763733, 320.0808279514313, 320.18087697029114, 320.297847032547, 320.4145610332489, 320.5314989089966, 320.6483428478241, 320.764848947525, 320.8816509246826, 320.99856901168823, 321.11542892456055, 321.2321138381958, 321.34906005859375, 321.46567392349243, 321.5822789669037, 321.6992130279541, 321.8161389827728, 321.9328279495239, 322.1549379825592]	[318.051068574018, 318.1677352406847, 319.1507352406847, 319.3174352406847, 320.0674352406847, 320.18410190735136, 320.30076857401804, 320.4174352406847, 320.5341019073514, 320.65076857401806, 320.76743524068473, 320.8841019073514, 321.0007685740181, 321.11743524068476, 321.23410190735143, 321.3507685740181, 321.4674352406848, 321.58410190735145, 321.7007685740181, 321.8174352406848, 321.9341019073515, 322.1674352406848]	2021_Feb_18_1259	59.937979976392384	1	1
31	54	FALSE	NA	v	['C', 'B', 'J', 'R', 'U', 'E', 'N', 'M', 'K', 'Z', 'W', 'X', 'Y', 'G', 'A', 'S']	[829, 760, 1029, 1587, 2059, 904, 1335, 1224, 1122, 2911, 2448, 4000, 2670, 944, 697, 1731]	12	Present	NA	NA	ABSENT	1.0317180156707764	324.1609048843384	326.1663990020752	327.21690487861633	327.5672969818115	330.2713038921356	4.104904890060425	[324.16852498054504, 324.2854850292206, 325.26969385147095, 325.43647289276123, 326.18734192848206, 326.30424404144287, 326.4209370613098, 326.5377209186554, 326.654953956604, 326.7713098526001, 326.88848090171814, 327.0048370361328, 327.1218259334564, 327.2385449409485, 327.3553240299225, 327.47217202186584, 327.58889603614807, 327.7055480480194, 327.82255601882935, 327.9391059875488, 328.05613684654236, 328.2713029384613]	[324.1674352406848, 324.2841019073515, 325.2671019073515, 325.4338019073515, 326.1838019073515, 326.30046857401817, 326.41713524068484, 326.5338019073515, 326.6504685740182, 326.76713524068487, 326.88380190735154, 327.0004685740182, 327.1171352406849, 327.23380190735156, 327.35046857401824, 327.4671352406849, 327.5838019073516, 327.70046857401826, 327.81713524068493, 327.9338019073516, 328.0504685740183, 328.28380190735163]	2021_Feb_18_1259	59.937979976392384	1	1
31	55	FALSE	NA	v	['Z', 'C', 'V', 'P', 'K', 'J', 'T', 'A', 'X', 'G', 'Y', 'R', 'B', 'E', 'W', 'H']	[2911, 829, 2245, 1456, 1122, 1029, 1888, 697, 4000, 944, 2670, 1587, 760, 904, 2448, 986]	9	Present	NA	NA	PRESENT	0.2050309181213379	330.2842547893524	332.28252696990967	332.98327898979187	333.3331108093262	336.38767099380493	4.105144023895264	[330.2918748855591, 330.40857791900635, 331.3762059211731, 331.5429849624634, 332.3107190132141, 332.42719292640686, 332.5443420410156, 332.660826921463, 332.77778005599976, 332.89480686187744, 333.0112569332123, 333.1280949115753, 333.24503803253174, 333.3617639541626, 333.4785809516907, 333.5783839225769, 333.6952359676361, 333.81194591522217, 333.92874693870544, 334.04557394981384, 334.16246485710144, 334.3876700401306]	[330.28380190735163, 330.4004685740183, 331.3834685740183, 331.5501685740183, 332.3001685740183, 332.416835240685, 332.53350190735165, 332.6501685740183, 332.766835240685, 332.8835019073517, 333.00016857401835, 333.116835240685, 333.2335019073517, 333.35016857401837, 333.46683524068504, 333.5835019073517, 333.7001685740184, 333.81683524068507, 333.93350190735174, 334.0501685740184, 334.1668352406851, 334.40016857401844]	2021_Feb_18_1259	59.937979976392384	1	1
31	56	FALSE	AV	v	['A', 'R', 'J', 'E', 'W', 'H', 'T', 'Z', 'S', 'surprise', 'U', 'G', 'X', 'V', 'N', 'C']	[697, 1587, 1029, 904, 2448, 986, 1888, 2911, 1731, 'stimAuditory/all_stimAuditory/110.wav', 2059, 944, 4000, 2245, 1335, 829]	13	Present	stimAuditory/all_stimAuditory/120.wav	stimVisual/all_stimVisual/223.jpg	PRESENT	0.26567697525024414	336.3905098438263	338.3990650177002	339.566223859787	339.9162549972534	342.50403690338135	4.104971885681152	[336.39812898635864, 336.5150420665741, 337.499881029129, 337.6662449836731, 338.41691493988037, 338.5338490009308, 338.6507320404053, 338.76749205589294, 338.88418889045715, 339.00091886520386, 339.11782693862915, 339.2344779968262, 339.35141801834106, 339.4681010246277, 339.5849709510803, 339.7017228603363, 339.8186979293823, 339.9352090358734, 340.0521309375763, 340.1687819957733, 340.28578996658325, 340.50403785705566]	[336.40016857401844, 336.5168352406851, 337.4998352406851, 337.6665352406851, 338.4165352406851, 338.5332019073518, 338.64986857401846, 338.76653524068513, 338.8832019073518, 338.9998685740185, 339.11653524068515, 339.2332019073518, 339.3498685740185, 339.4665352406852, 339.58320190735185, 339.6998685740185, 339.8165352406852, 339.9332019073519, 340.04986857401855, 340.1665352406852, 340.2832019073519, 340.51653524068524]	2021_Feb_18_1259	59.937979976392384	1	1
31	57	FALSE	NA	v	['G', 'P', 'S', 'E', 'W', 'B', 'T', 'J', 'K', 'X', 'M', 'A', 'U', 'V', 'N', 'R']	[944, 1456, 1731, 904, 2448, 760, 1888, 1029, 1122, 4000, 1224, 697, 2059, 2245, 1335, 1587]	10	Present	NA	NA	ABSENT	0.9510488510131836	342.5137310028076	344.51563000679016	345.3325250148773	345.6828157901764	348.620404958725	4.1047749519348145	[342.5213508605957, 342.63823986053467, 343.6225309371948, 343.78951692581177, 344.5401449203491, 344.65692591667175, 344.77393889427185, 344.8911008834839, 345.0072729587555, 345.12432384490967, 345.24116706848145, 345.35777497291565, 345.4745948314667, 345.5914089679718, 345.70828199386597, 345.82500290870667, 345.9418179988861, 346.0584280490875, 346.1753239631653, 346.292044878006, 346.3919608592987, 346.620404958725]	[342.51653524068524, 342.6332019073519, 343.6162019073519, 343.7829019073519, 344.5329019073519, 344.6495685740186, 344.76623524068526, 344.88290190735194, 344.9995685740186, 345.1162352406853, 345.23290190735196, 345.34956857401863, 345.4662352406853, 345.582901907352, 345.69956857401866, 345.81623524068533, 345.932901907352, 346.0495685740187, 346.16623524068535, 346.282901907352, 346.3995685740187, 346.63290190735205]	2021_Feb_18_1259	59.937979976392384	1	1
31	58	FALSE	NN	v	['K', 'R', 'J', 'Z', 'A', 'Y', 'C', 'H', 'V', 'M', 'P', 'N', 'W', 'B', 'E', 'U']	[1122, 1587, 1029, 2911, 697, 2670, 829, 986, 2245, 1224, 1456, 1335, 2448, 760, 904, 2059]	10	Absent	NA	NA	ABSENT	0.5472321510314941	348.6201229095459	350.63183784484863	351.44897198677063	351.7990310192108	354.7367708683014	4.104933023452759	[348.62774205207825, 348.7446348667145, 349.7292139530182, 349.8960120677948, 350.66338205337524, 350.76358103752136, 350.8801648616791, 350.99698305130005, 351.113853931427, 351.2304859161377, 351.34738206863403, 351.4642689228058, 351.58098793029785, 351.6978850364685, 351.81455087661743, 351.93130588531494, 352.0482699871063, 352.1648519039154, 352.2818179130554, 352.39849400520325, 352.515496969223, 352.7367699146271]	[348.63290190735205, 348.7495685740187, 349.7325685740187, 349.8992685740187, 350.6492685740187, 350.7659352406854, 350.88260190735207, 350.99926857401874, 351.1159352406854, 351.2326019073521, 351.34926857401877, 351.46593524068544, 351.5826019073521, 351.6992685740188, 351.81593524068546, 351.93260190735214, 352.0492685740188, 352.1659352406855, 352.28260190735216, 352.39926857401883, 352.5159352406855, 352.74926857401886]	2021_Feb_18_1259	59.937979976392384	1	1
31	59	FALSE	AN	v	['S', 'B', 'N', 'K', 'E', 'A', 'R', 'surprise', 'Y', 'P', 'V', 'T', 'C', 'G', 'J', 'M']	[1731, 760, 1335, 1122, 904, 697, 1587, 'stimAuditory/all_stimAuditory/216.wav', 2670, 1456, 2245, 1888, 829, 944, 1029, 1224]	11	Absent	stimAuditory/all_stimAuditory/115.wav	stimVisual/all_stimVisual/120.jpg	ABSENT	0.29601407051086426	354.7434859275818	356.74805879592896	357.6821479797363	358.0318880081177	360.8531379699707	4.105079174041748	[354.75110387802124, 354.86792397499084, 355.85213899612427, 356.0190780162811, 356.77011489868164, 356.8867290019989, 357.0034739971161, 357.1201069355011, 357.23701786994934, 357.3536820411682, 357.4707009792328, 357.58744502067566, 357.70425391197205, 357.82097697257996, 357.93794083595276, 358.054575920105, 358.17150592803955, 358.28816986083984, 358.4049389362335, 358.5216820240021, 358.638365983963, 358.8531370162964]	[354.74926857401886, 354.86593524068553, 355.84893524068553, 356.0156352406855, 356.7656352406855, 356.8823019073522, 356.9989685740189, 357.11563524068555, 357.2323019073522, 357.3489685740189, 357.4656352406856, 357.58230190735225, 357.6989685740189, 357.8156352406856, 357.93230190735227, 358.04896857401894, 358.1656352406856, 358.2823019073523, 358.39896857401897, 358.51563524068564, 358.6323019073523, 358.86563524068566]	2021_Feb_18_1259	59.937979976392384	1	1
31	60	FALSE	NN	v	['G', 'J', 'S', 'Y', 'V', 'H', 'K', 'E', 'W', 'Z', 'N', 'T', 'M', 'B', 'R', 'P']	[944, 1029, 1731, 2670, 2245, 986, 1122, 904, 2448, 2911, 1335, 1888, 1224, 760, 1587, 1456]	13	Absent	NA	NA	ABSENT	0.1971449851989746	360.8666160106659	362.8644769191742	364.03184700012207	364.38175892829895	366.9695038795471	4.105026960372925	[360.87423491477966, 360.99096393585205, 361.9586260318756, 362.1255989074707, 362.892963886261, 363.00995802879333, 363.1267168521881, 363.2433259487152, 363.3433940410614, 363.46020102500916, 363.57700991630554, 363.6938259601593, 363.82753705978394, 363.92734599113464, 364.0442099571228, 364.16102600097656, 364.2777998447418, 364.3945939540863, 364.5113959312439, 364.6280999183655, 364.7451250553131, 364.96950483322144]	[360.86563524068566, 360.98230190735234, 361.96530190735234, 362.13200190735233, 362.88200190735233, 362.998668574019, 363.1153352406857, 363.23200190735236, 363.34866857401903, 363.4653352406857, 363.5820019073524, 363.69866857401905, 363.8153352406857, 363.9320019073524, 364.0486685740191, 364.16533524068575, 364.2820019073524, 364.3986685740191, 364.5153352406858, 364.63200190735245, 364.7486685740191, 364.98200190735247]	2021_Feb_18_1259	59.937979976392384	1	1
31	61	FALSE	NV	v	['S', 'Z', 'A', 'B', 'K', 'H', 'C', 'R', 'P', 'N', 'Y', 'M', 'X', 'E', 'J', 'V']	[1731, 2911, 697, 760, 1122, 986, 829, 1587, 1456, 1335, 2670, 1224, 4000, 904, 1029, 2245]	13	Present	NA	NA	PRESENT	0.3538532257080078	366.97345185279846	368.98111391067505	370.1484730243683	370.4981210231781	373.0858709812164	4.104757070541382	[366.9810709953308, 367.09755301475525, 368.08195400238037, 368.2486479282379, 368.9993908405304, 369.11640191078186, 369.23308086395264, 369.3497829437256, 369.46672201156616, 369.5834059715271, 369.70028495788574, 369.81699204444885, 369.9338309764862, 370.05063104629517, 370.1674828529358, 370.2840859889984, 370.4013350009918, 370.5177249908447, 370.63466596603394, 370.75124192237854, 370.868136882782, 371.08587098121643]	[366.98200190735247, 367.09866857401914, 368.08166857401915, 368.24836857401914, 368.99836857401914, 369.1150352406858, 369.2317019073525, 369.34836857401916, 369.46503524068584, 369.5817019073525, 369.6983685740192, 369.81503524068586, 369.93170190735253, 370.0483685740192, 370.1650352406859, 370.28170190735256, 370.39836857401923, 370.5150352406859, 370.6317019073526, 370.74836857401925, 370.8650352406859, 371.0983685740193]	2021_Feb_18_1259	59.937979976392384	1	1
31	62	FALSE	NA	v	['G', 'P', 'T', 'E', 'H', 'Z', 'R', 'Y', 'C', 'X', 'J', 'M', 'K', 'B', 'N', 'W']	[944, 1456, 1888, 904, 986, 2911, 1587, 2670, 829, 4000, 1029, 1224, 1122, 760, 1335, 2448]	10	Present	NA	NA	PRESENT	0.3113260269165039	373.0964047908783	375.0972189903259	375.9143738746643	376.264536857605	379.2022378444672	4.105018854141235	[373.1040229797363, 373.2207579612732, 374.20502495765686, 374.3719539642334, 375.12261486053467, 375.23954606056213, 375.35625886917114, 375.47310304641724, 375.5899269580841, 375.7064929008484, 375.82350301742554, 375.94028997421265, 376.05722284317017, 376.173791885376, 376.29073190689087, 376.40741205215454, 376.5243270397186, 376.64100790023804, 376.75790190696716, 376.87464594841003, 376.97455406188965, 377.20223689079285]	[373.0983685740193, 373.21503524068595, 374.19803524068595, 374.36473524068595, 375.11473524068595, 375.2314019073526, 375.3480685740193, 375.46473524068597, 375.58140190735264, 375.6980685740193, 375.814735240686, 375.93140190735267, 376.04806857401934, 376.164735240686, 376.2814019073527, 376.39806857401936, 376.51473524068604, 376.6314019073527, 376.7480685740194, 376.86473524068606, 376.98140190735273, 377.2147352406861]	2021_Feb_18_1259	59.937979976392384	1	1
31	63	FALSE	NA	v	['T', 'U', 'A', 'N', 'J', 'B', 'W', 'E', 'Y', 'K', 'M', 'X', 'H', 'S', 'V', 'R']	[1888, 2059, 697, 1335, 1029, 760, 2448, 904, 2670, 1122, 1224, 4000, 986, 1731, 2245, 1587]	12	Present	NA	NA	PRESENT	0.2836120128631592	379.20263981819153	381.21356081962585	382.26424980163574	382.6141278743744	385.31860399246216	4.105043172836304	[379.2102599143982, 379.327232837677, 380.3115758895874, 380.4785339832306, 381.2290508747101, 381.3460109233856, 381.4626989364624, 381.57963705062866, 381.6962778568268, 381.813227891922, 381.9299490451813, 382.0466010570526, 382.1635479927063, 382.28020000457764, 382.39707803726196, 382.5138339996338, 382.63084602355957, 382.7476260662079, 382.8644380569458, 382.9810268878937, 383.0977919101715, 383.3186049461365]	[379.2147352406861, 379.33140190735276, 380.31440190735276, 380.48110190735275, 381.23110190735275, 381.3477685740194, 381.4644352406861, 381.5811019073528, 381.69776857401945, 381.8144352406861, 381.9311019073528, 382.04776857401947, 382.16443524068615, 382.2811019073528, 382.3977685740195, 382.51443524068617, 382.63110190735284, 382.7477685740195, 382.8644352406862, 382.98110190735287, 383.09776857401954, 383.3311019073529]	2021_Feb_18_1259	59.937979976392384	1	1
31	64	FALSE	NV	v	['N', 'U', 'E', 'W', 'Z', 'V', 'J', 'C', 'M', 'X', 'A', 'G', 'T', 'H', 'Y', 'R']	[1335, 2059, 904, 2448, 2911, 2245, 1029, 829, 1224, 4000, 697, 944, 1888, 986, 2670, 1587]	10	Present	NA	NA	PRESENT	0.3443119525909424	385.3259348869324	387.3300588130951	388.1474528312683	388.49721097946167	391.4349708557129	4.104912042617798	[385.3335528373718, 385.4504199028015, 386.4347529411316, 386.6015419960022, 387.35263085365295, 387.4690179824829, 387.5858838558197, 387.7028019428253, 387.819659948349, 387.9361939430237, 388.0532228946686, 388.16980504989624, 388.28672790527344, 388.40340304374695, 388.52025294303894, 388.6370840072632, 388.75378704071045, 388.87079906463623, 388.9875600337982, 389.10424399375916, 389.2207980155945, 389.4349708557129]	[385.3311019073529, 385.44776857401956, 386.43076857401957, 386.59746857401956, 387.34746857401956, 387.46413524068623, 387.5808019073529, 387.6974685740196, 387.81413524068626, 387.93080190735293, 388.0474685740196, 388.1641352406863, 388.28080190735295, 388.3974685740196, 388.5141352406863, 388.630801907353, 388.74746857401965, 388.8641352406863, 388.980801907353, 389.0974685740197, 389.21413524068635, 389.4474685740197]	2021_Feb_18_1259	59.937979976392384	1	1
31	65	FALSE	NA	v	['K', 'H', 'M', 'G', 'Z', 'Y', 'B', 'U', 'X', 'S', 'E', 'T', 'P', 'C', 'A', 'V']	[1122, 986, 1224, 944, 2911, 2670, 760, 2059, 4000, 1731, 904, 1888, 1456, 829, 697, 2245]	9	Present	NA	NA	PRESENT	0.10145807266235352	391.44922184944153	393.44622898101807	394.146901845932	394.4972789287567	397.5513379573822	4.105108976364136	[391.45684003829956, 391.5566189289093, 392.54123091697693, 392.7080109119415, 393.4755280017853, 393.57544684410095, 393.69229388237, 393.80911803245544, 393.9258849620819, 394.0427038669586, 394.1594898700714, 394.27624893188477, 394.3930678367615, 394.5098340511322, 394.62666296958923, 394.7434780597687, 394.8602180480957, 394.97702288627625, 395.09380292892456, 395.2106318473816, 395.3274760246277, 395.5513389110565]	[391.4474685740197, 391.56413524068637, 392.5471352406864, 392.71383524068636, 393.46383524068636, 393.58050190735304, 393.6971685740197, 393.8138352406864, 393.93050190735306, 394.04716857401974, 394.1638352406864, 394.2805019073531, 394.39716857401976, 394.51383524068643, 394.6305019073531, 394.7471685740198, 394.86383524068646, 394.98050190735313, 395.0971685740198, 395.2138352406865, 395.33050190735315, 395.5638352406865]	2021_Feb_18_1259	59.937979976392384	1	1
31	66	FALSE	NA	v	['R', 'E', 'K', 'J', 'Y', 'U', 'A', 'X', 'V', 'N', 'B', 'Z', 'M', 'C', 'P', 'T']	[1587, 904, 1122, 1029, 2670, 2059, 697, 4000, 2245, 1335, 760, 2911, 1224, 829, 1456, 1888]	8	Present	NA	NA	PRESENT	0.9380619525909424	397.5558888912201	399.5626928806305	400.1468069553375	400.4967579841614	403.6677038669586	4.105010986328125	[397.56350684165955, 397.67996406555176, 398.6645188331604, 398.83118891716003, 399.58186984062195, 399.6987030506134, 399.8155908584595, 399.9322998523712, 400.0491199493408, 400.16602897644043, 400.2828848361969, 400.3995349407196, 400.5164029598236, 400.6329970359802, 400.7499170303345, 400.8666088581085, 400.9835810661316, 401.10027503967285, 401.21723985671997, 401.33390188217163, 401.45075488090515, 401.6677038669586]	[397.5638352406865, 397.6805019073532, 398.6635019073532, 398.83020190735317, 399.58020190735317, 399.69686857401985, 399.8135352406865, 399.9302019073532, 400.04686857401987, 400.16353524068654, 400.2802019073532, 400.3968685740199, 400.51353524068656, 400.63020190735324, 400.7468685740199, 400.8635352406866, 400.98020190735326, 401.09686857401994, 401.2135352406866, 401.3302019073533, 401.44686857401996, 401.6802019073533]	2021_Feb_18_1259	59.937979976392384	1	1
31	67	FALSE	NA	v	['C', 'B', 'T', 'R', 'A', 'H', 'G', 'N', 'S', 'K', 'V', 'W', 'Y', 'X', 'Z', 'M']	[829, 760, 1888, 1587, 697, 986, 944, 1335, 1731, 1122, 2245, 2448, 2670, 4000, 2911, 1224]	14	Present	NA	NA	PRESENT	0.3913021087646485	403.6788659095764	405.67895579338074	406.9631779193878	407.3129138946533	409.7840700149536	4.105114221572876	[403.68648505210876, 403.80321288108826, 404.7874698638916, 404.9545509815216, 405.70511388778687, 405.82190990448, 405.938777923584, 406.0556240081787, 406.17242097854614, 406.28911304473877, 406.4059429168701, 406.5227429866791, 406.6394588947296, 406.75662088394165, 406.87303590774536, 406.9899458885193, 407.1067328453064, 407.2235040664673, 407.34025287628174, 407.4571509361267, 407.55720686912537, 407.7840700149536]	[403.6802019073533, 403.79686857402, 404.77986857402, 404.94656857402, 405.69656857402, 405.81323524068665, 405.9299019073533, 406.04656857402, 406.1632352406867, 406.27990190735335, 406.39656857402, 406.5132352406867, 406.62990190735337, 406.74656857402005, 406.8632352406867, 406.9799019073534, 407.09656857402007, 407.21323524068674, 407.3299019073534, 407.4465685740201, 407.56323524068677, 407.7965685740201]	2021_Feb_18_1259	59.937979976392384	1	1
31	68	FALSE	NV	v	['Z', 'W', 'P', 'V', 'U', 'S', 'B', 'N', 'X', 'Y', 'K', 'E', 'R', 'M', 'H', 'J']	[2911, 2448, 1456, 2245, 2059, 1731, 760, 1335, 4000, 2670, 1122, 904, 1587, 1224, 986, 1029]	9	Present	NA	NA	ABSENT	0.63617706298828125	409.7850589752197	411.795842885971	412.49623584747314	412.84590101242065	415.90043783187866	4.104594945907593	[409.7926769256592, 409.9095358848572, 410.89410495758057, 411.06089186668396, 411.81145000457764, 411.92846393585205, 412.0452468395233, 412.16207003593445, 412.27883195877075, 412.3955018520355, 412.5124628543854, 412.62933897972107, 412.746052980423, 412.8629159927368, 412.9795708656311, 413.0963180065155, 413.21321296691895, 413.32980704307556, 413.4468369483948, 413.56353306770325, 413.68034195899963, 413.90043902397156]	[409.7965685740201, 409.9132352406868, 410.8962352406868, 411.0629352406868, 411.8129352406868, 411.92960190735346, 412.04626857402013, 412.1629352406868, 412.2796019073535, 412.39626857402016, 412.51293524068683, 412.6296019073535, 412.7462685740202, 412.86293524068685, 412.9796019073535, 413.0962685740202, 413.2129352406869, 413.32960190735355, 413.4462685740202, 413.5629352406869, 413.6796019073536, 413.9129352406869]	2021_Feb_18_1259	59.937979976392384	1	1
31	69	FALSE	NV	v	['M', 'W', 'G', 'P', 'K', 'A', 'Z', 'C', 'H', 'B', 'T', 'E', 'N', 'X', 'J', 'R']	[1224, 2448, 944, 1456, 1122, 697, 2911, 829, 986, 760, 1888, 904, 1335, 4000, 1029, 1587]	14	Present	NA	NA	PRESENT	0.3682589530944824	415.90837383270264	417.9120090007782	419.19559597969055	419.5456337928772	422.016804933548	4.104795932769775	[415.915992975235, 416.0326678752899, 417.0174250602722, 417.18420791625977, 417.93477296829224, 418.0516588687897, 418.1684889793396, 418.28529500961304, 418.40196800231934, 418.5186150074005, 418.63567900657654, 418.75228905677795, 418.8691589832306, 418.98598289489746, 419.1026999950409, 419.2195110321045, 419.3363480567932, 419.45316791534424, 419.5700099468231, 419.6867859363556, 419.8035309314728, 420.016804933548]	[415.9129352406869, 416.0296019073536, 417.0126019073536, 417.1793019073536, 417.9293019073536, 418.04596857402026, 418.16263524068694, 418.2793019073536, 418.3959685740203, 418.51263524068696, 418.62930190735364, 418.7459685740203, 418.862635240687, 418.97930190735366, 419.09596857402033, 419.212635240687, 419.3293019073537, 419.44596857402036, 419.56263524068703, 419.6793019073537, 419.7959685740204, 420.0293019073537]	2021_Feb_18_1259	59.937979976392384	1	1
31	70	FALSE	NV	v	['J', 'E', 'A', 'Z', 'H', 'P', 'U', 'R', 'Y', 'X', 'M', 'C', 'T', 'B', 'K', 'N']	[1029, 904, 697, 2911, 986, 1456, 2059, 1587, 2670, 4000, 1224, 829, 1888, 760, 1122, 1335]	10	Present	NA	NA	ABSENT	0.63764190673828125	422.01477694511414	424.0283617973328	424.8452889919281	425.1958119869232	428.1331708431244	4.104809045791626	[422.0223958492279, 422.13918590545654, 423.12381196022034, 423.2903959751129, 424.0578918457031, 424.15792083740234, 424.2747938632965, 424.3915400505066, 424.50842690467834, 424.62517285346985, 424.74197006225586, 424.85887694358826, 424.9755220413208, 425.09222888946533, 425.2090709209442, 425.3258090019226, 425.44290590286255, 425.5594789981842, 425.67657995224, 425.793093919754, 425.91005301475525, 426.1331708431244]	[422.0293019073537, 422.1459685740204, 423.1289685740204, 423.2956685740204, 424.0456685740204, 424.16233524068707, 424.27900190735375, 424.3956685740204, 424.5123352406871, 424.62900190735377, 424.74566857402044, 424.8623352406871, 424.9790019073538, 425.09566857402046, 425.21233524068714, 425.3290019073538, 425.4456685740205, 425.56233524068716, 425.67900190735384, 425.7956685740205, 425.9123352406872, 426.14566857402053]	2021_Feb_18_1259	59.937979976392384	1	1
31	71	FALSE	NV	v	['A', 'R', 'U', 'G', 'B', 'W', 'E', 'P', 'Z', 'V', 'X', 'M', 'T', 'Y', 'N', 'H']	[697, 1587, 2059, 944, 760, 2448, 904, 1456, 2911, 2245, 4000, 1224, 1888, 2670, 1335, 986]	11	Present	NA	NA	PRESENT	0.3942580223083496	428.13802790641785	430.14469480514526	431.07831287384033	431.4284930229187	434.2495369911194	4.104842185974121	[428.1456470489502, 428.26239585876465, 429.2467188835144, 429.4134590625763, 430.16454696655273, 430.2811288833618, 430.39806604385376, 430.5147759914398, 430.63161396980286, 430.7485489845276, 430.8653018474579, 430.9819669723511, 431.0989179611206, 431.21558594703674, 431.33251190185547, 431.449156999588, 431.56612396240234, 431.68283200263977, 431.7995128631592, 431.9162709712982, 432.0330288410187, 432.2495379447937]	[428.14566857402053, 428.2623352406872, 429.2453352406872, 429.4120352406872, 430.1620352406872, 430.2787019073539, 430.39536857402055, 430.5120352406872, 430.6287019073539, 430.7453685740206, 430.86203524068725, 430.9787019073539, 431.0953685740206, 431.21203524068727, 431.32870190735395, 431.4453685740206, 431.5620352406873, 431.67870190735397, 431.79536857402064, 431.9120352406873, 432.028701907354, 432.26203524068734]	2021_Feb_18_1259	59.937979976392384	1	1
31	72	FALSE	NA	v	['R', 'S', 'W', 'T', 'E', 'Y', 'V', 'G', 'A', 'M', 'H', 'J', 'N', 'X', 'U', 'P']	[1587, 1731, 2448, 1888, 904, 2670, 2245, 944, 697, 1224, 986, 1029, 1335, 4000, 2059, 1456]	14	Present	NA	NA	PRESENT	0.35956406593322754	434.2613987922669	436.2609429359436	437.544648885727	437.8951458930969	440.3659029006958	4.104959964752197	[434.2690169811249, 434.3857078552246, 435.36994886398315, 435.5369699001312, 436.28767704963684, 436.4043779373169, 436.5213029384613, 436.63803791999817, 436.75511598587036, 436.8715748786926, 436.98833298683167, 437.1051468849182, 437.2220380306244, 437.3387038707733, 437.45547795295715, 437.5726070404053, 437.6892969608307, 437.8060688972473, 437.9226748943329, 438.03950595855713, 438.13982605934143, 438.3659029006958]	[434.26203524068734, 434.378701907354, 435.361701907354, 435.528401907354, 436.278401907354, 436.3950685740207, 436.51173524068736, 436.62840190735403, 436.7450685740207, 436.8617352406874, 436.97840190735405, 437.09506857402073, 437.2117352406874, 437.3284019073541, 437.44506857402075, 437.5617352406874, 437.6784019073541, 437.7950685740208, 437.91173524068745, 438.0284019073541, 438.1450685740208, 438.37840190735415]	2021_Feb_18_1259	59.937979976392384	1	1
31	73	FALSE	NV	v	['Y', 'G', 'N', 'W', 'A', 'P', 'C', 'H', 'R', 'B', 'Z', 'J', 'X', 'V', 'U', 'M']	[2670, 944, 1335, 2448, 697, 1456, 829, 986, 1587, 760, 2911, 1029, 4000, 2245, 2059, 1224]	13	Present	NA	NA	PRESENT	0.21205592155456543	440.36769700050354	442.3772888183594	443.5445787906647	443.89448499679565	446.48227095603943	4.104982137680054	[440.3753180503845, 440.4922299385071, 441.476322889328, 441.64333295822144, 442.3940529823303, 442.51082587242126, 442.62771797180176, 442.7444179058075, 442.8612470626831, 442.97806787490845, 443.09495997428894, 443.21159386634827, 443.328577041626, 443.44519996643066, 443.56190490722656, 443.67878103256226, 443.7954728603363, 443.9123868942261, 444.0290870666504, 444.1459228992462, 444.2627580165863, 444.48227095603943]	[440.37840190735415, 440.4950685740208, 441.4780685740208, 441.6447685740208, 442.3947685740208, 442.5114352406875, 442.62810190735416, 442.74476857402084, 442.8614352406875, 442.9781019073542, 443.09476857402086, 443.21143524068754, 443.3281019073542, 443.4447685740209, 443.56143524068756, 443.67810190735423, 443.7947685740209, 443.9114352406876, 444.02810190735426, 444.14476857402093, 444.2614352406876, 444.49476857402095]	2021_Feb_18_1259	59.937979976392384	1	1
31	74	FALSE	NA	v	['T', 'G', 'A', 'N', 'R', 'S', 'K', 'B', 'Z', 'X', 'E', 'H', 'J', 'W', 'U', 'Y']	[1888, 944, 697, 1335, 1587, 1731, 1122, 760, 2911, 4000, 904, 986, 1029, 2448, 2059, 2670]	10	Present	NA	NA	PRESENT	0.24834799766540527	446.4910387992859	448.493763923645	449.3107919692993	449.6607749462128	452.59863805770874	4.104874134063721	[446.49865794181824, 446.6154098510742, 447.59994983673096, 447.7665638923645, 448.5174639225006, 448.6342399120331, 448.75101494789124, 448.8677158355713, 448.98450994491577, 449.10142183303833, 449.2181169986725, 449.33485889434814, 449.45168590545654, 449.5683870315552, 449.6852059364319, 449.8021149635315, 449.9186930656433, 450.0355279445648, 450.1523518562317, 450.26920199394226, 450.38634991645813, 450.59863686561584]	[446.49476857402095, 446.6114352406876, 447.59443524068763, 447.7611352406876, 448.5111352406876, 448.6278019073543, 448.74446857402097, 448.86113524068764, 448.9778019073543, 449.094468574021, 449.21113524068767, 449.32780190735434, 449.444468574021, 449.5611352406877, 449.67780190735436, 449.79446857402104, 449.9111352406877, 450.0278019073544, 450.14446857402106, 450.26113524068774, 450.3778019073544, 450.61113524068776]	2021_Feb_18_1259	59.937979976392384	1	1
31	75	FALSE	AA	v	['R', 'S', 'V', 'B', 'Z', 'T', 'surprise', 'M', 'A', 'X', 'E', 'C', 'N', 'H', 'Y', 'P']	[1587, 1731, 2245, 760, 2911, 1888, 'stimAuditory/all_stimAuditory/124.wav', 1224, 697, 4000, 904, 829, 1335, 986, 2670, 1456]	10	Present	stimAuditory/all_stimAuditory/114.wav	stimVisual/all_stimVisual/217.jpg	PRESENT	0.10975289344787598	452.5973320007324	454.6099009513855	455.4271748065949	455.77708101272583	458.7150030136109	4.105102062225342	[452.6049509048462, 452.7221739292145, 453.70618891716003, 453.8730309009552, 454.64040184020996, 454.74053597450256, 454.8573570251465, 454.9740500450134, 455.09091901779175, 455.20757603645325, 455.3413269519806, 455.44140887260437, 455.5582609176636, 455.6749470233917, 455.79180097579956, 455.90838384628296, 456.0254089832306, 456.14201498031616, 456.2588920593262, 456.37580704689026, 456.49254083633423, 456.71500396728516]	[452.61113524068776, 452.72780190735443, 453.71080190735444, 453.87750190735443, 454.62750190735443, 454.7441685740211, 454.8608352406878, 454.97750190735445, 455.0941685740211, 455.2108352406878, 455.3275019073545, 455.44416857402115, 455.5608352406878, 455.6775019073545, 455.79416857402117, 455.91083524068785, 456.0275019073545, 456.1441685740212, 456.26083524068787, 456.37750190735454, 456.4941685740212, 456.72750190735456]	2021_Feb_18_1259	59.937979976392384	1	1
31	76	FALSE	NV	v	['E', 'N', 'J', 'W', 'P', 'C', 'B', 'R', 'Z', 'X', 'V', 'Y', 'H', 'U', 'K', 'G']	[904, 1335, 1029, 2448, 1456, 829, 760, 1587, 2911, 4000, 2245, 2670, 986, 2059, 1122, 944]	10	Present	NA	NA	PRESENT	0.4027440547943115	458.7205998897553	460.7264699935913	461.5435848236084	461.8936989307403	464.83137106895447	4.104901075363159	[458.7282190322876, 458.8449749946594, 459.8291800022125, 459.99625992774963, 460.7469918727875, 460.86370491981506, 460.9806549549103, 461.09718084335327, 461.21420788764954, 461.33090686798096, 461.4477529525757, 461.56460094451904, 461.6811819076538, 461.79798197746277, 461.9147439002991, 462.0316779613495, 462.14829301834106, 462.26524591445923, 462.38190603256226, 462.49884700775146, 462.6156828403473, 462.8313698768616]	[458.72750190735456, 458.84416857402124, 459.82716857402124, 459.99386857402123, 460.74386857402123, 460.8605352406879, 460.9772019073546, 461.09386857402126, 461.21053524068793, 461.3272019073546, 461.4438685740213, 461.56053524068795, 461.67720190735463, 461.7938685740213, 461.910535240688, 462.02720190735465, 462.1438685740213, 462.260535240688, 462.3772019073547, 462.49386857402135, 462.610535240688, 462.84386857402137]	2021_Feb_18_1259	59.937979976392384	1	1
31	77	FALSE	NA	v	['Z', 'W', 'S', 'B', 'K', 'T', 'E', 'N', 'X', 'R', 'M', 'A', 'G', 'P', 'U', 'Y']	[2911, 2448, 1731, 760, 1122, 1888, 904, 1335, 4000, 1587, 1224, 697, 944, 1456, 2059, 2670]	9	Present	NA	NA	PRESENT	0.2878570556640625	464.8438229560852	466.8428339958191	467.543133020401	467.893248796463	470.9477369785309	4.104902982711792	[464.851441860199, 464.9682638645172, 465.9356029033661, 466.1024868488312, 466.8706200122833, 466.98701190948486, 467.10392904281616, 467.22044587135315, 467.3373398780823, 467.454283952713, 467.57078099250793, 467.6877589225769, 467.80447006225586, 467.9212100505829, 468.0380940437317, 468.15486693382263, 468.2716429233551, 468.3884220123291, 468.4882929325104, 468.605162858963, 468.7222180366516, 468.9477379322052]	[464.84386857402137, 464.96053524068805, 465.94353524068805, 466.11023524068804, 466.86023524068804, 466.9769019073547, 467.0935685740214, 467.21023524068806, 467.32690190735474, 467.4435685740214, 467.5602352406881, 467.67690190735476, 467.79356857402144, 467.9102352406881, 468.0269019073548, 468.14356857402146, 468.26023524068813, 468.3769019073548, 468.4935685740215, 468.61023524068816, 468.72690190735483, 468.9602352406882]	2021_Feb_18_1259	59.937979976392384	1	1
31	78	FALSE	NN	v	['R', 'G', 'V', 'K', 'N', 'J', 'P', 'S', 'A', 'E', 'Z', 'Y', 'C', 'U', 'B', 'M']	[1587, 944, 2245, 1122, 1335, 1029, 1456, 1731, 697, 904, 2911, 2670, 829, 2059, 760, 1224]	8	Absent	NA	NA	ABSENT	0.4444129467010498	470.95031094551086	472.9590878486634	473.54302883148193	473.8930199146271	477.0641038417816	4.105015993118286	[470.9579288959503, 471.0745289325714, 472.0588228702545, 472.2259180545807, 472.976637840271, 473.0933940410614, 473.2101390361786, 473.3269519805908, 473.44388794898987, 473.5604479312897, 473.6774399280548, 473.7940979003906, 473.91101598739624, 474.02764797210693, 474.1443979740143, 474.2612729072571, 474.37800097465515, 474.4948899745941, 474.61162996292114, 474.7284598350525, 474.8452379703522, 475.0641050338745]	[470.9602352406882, 471.07690190735485, 472.05990190735486, 472.22660190735485, 472.97660190735485, 473.0932685740215, 473.2099352406882, 473.32660190735487, 473.44326857402154, 473.5599352406882, 473.6766019073549, 473.79326857402157, 473.90993524068824, 474.0266019073549, 474.1432685740216, 474.25993524068826, 474.37660190735494, 474.4932685740216, 474.6099352406883, 474.72660190735496, 474.84326857402164, 475.076601907355]	2021_Feb_18_1259	59.937979976392384	1	1
31	79	FALSE	NN	v	['C', 'B', 'W', 'E', 'U', 'R', 'S', 'A', 'V', 'P', 'M', 'H', 'N', 'Z', 'K', 'J']	[829, 760, 2448, 904, 2059, 1587, 1731, 697, 2245, 1456, 1224, 986, 1335, 2911, 1122, 1029]	9	Absent	NA	NA	ABSENT	0.6178109645843506	477.0738158226013	479.07533979415894	479.77601289749146	480.1260249614715	483.1804709434509	4.105131149291992	[477.08143496513367, 477.19766998291016, 478.18203687667847, 478.3490810394287, 479.09961891174316, 479.21669006347656, 479.33325386047363, 479.4502260684967, 479.5668408870697, 479.68373799324036, 479.8004310131073, 479.91740894317627, 480.0342378616333, 480.15089201927185, 480.26793003082275, 480.38476395606995, 480.50132298469543, 480.6181650161743, 480.73483300209045, 480.85171604156494, 480.9516658782959, 481.1804709434509]	[477.076601907355, 477.19326857402166, 478.17626857402166, 478.34296857402165, 479.09296857402165, 479.2096352406883, 479.326301907355, 479.4429685740217, 479.55963524068835, 479.676301907355, 479.7929685740217, 479.9096352406884, 480.02630190735505, 480.1429685740217, 480.2596352406884, 480.37630190735507, 480.49296857402175, 480.6096352406884, 480.7263019073551, 480.84296857402177, 480.95963524068844, 481.1929685740218]	2021_Feb_18_1259	59.937979976392384	1	1
