participant	trial_num	practice	task	condition	RSVP	RAP	probePos	probe_presence	surprise_sound	surprise_img	probe_response	probe_resp_time	first_fixation_time	trial_start_time	surprise_start_time	probe_start_time	trial_end_time	trial_duration	actualEventTimes	plannedEventTimes	date	framerate	marker_vol	RAP_vol
1	1	FALSE	NV	v	['U', 'Y', 'R', 'N', 'M', 'T', 'E', 'K', 'G', 'Z', 'B', 'X', 'P', 'C', 'V', 'J']	[2059, 2670, 1587, 1335, 1224, 1888, 904, 1122, 944, 2911, 760, 4000, 1456, 829, 2245, 1029]	12	Present	NA	NA	ABSENT	0.7816019058227539	3.0994415283203125e-6	1.9511420726776123	2.9992380142211914	3.3481321334838867	6.1038689613342285	4.152726888656616	[0.0586698055267334, 0.12506484985351562, 1.0926709175109863, 1.2596099376678467, 2.027204990386963, 2.1440389156341553, 2.2606728076934814, 2.377535820007324, 2.4944379329681396, 2.610987901687622, 2.7279508113861084, 2.8447139263153076, 2.961591958999634, 3.0784008502960205, 3.1951708793640137, 3.29499888420105, 3.411885976791382, 3.5453219413757324, 3.6453018188476562, 3.7621328830718994, 3.879056930541992, 4.103869915008545]	[9.5367431640625e-07, 0.11666762034098306, 1.099667620340983, 1.266367620340983, 2.016367620340983, 2.1330342870076495, 2.249700953674316, 2.366367620340983, 2.4830342870076496, 2.5997009536743163, 2.716367620340983, 2.8330342870076497, 2.9497009536743164, 3.066367620340983, 3.18303428700765, 3.2997009536743165, 3.416367620340983, 3.53303428700765, 3.6497009536743166, 3.7663676203409833, 3.88303428700765, 4.116367620340983]	2020_Nov_25_1213	59.87415063095986	1	1
1	2	FALSE	NV	v	['W', 'A', 'E', 'N', 'C', 'T', 'S', 'X', 'K', 'G', 'B', 'U', 'P', 'Y', 'R', 'V']	[2448, 697, 904, 1335, 829, 1888, 1731, 4000, 1122, 944, 760, 2059, 1456, 2670, 1587, 2245]	8	Present	NA	NA	VISUAL	0.21819591522216797	6.056234121322632	8.064394235610962	8.64827823638916	8.998043060302734	12.220237016677856	4.1558427810668945	[6.114900827407837, 6.231592893600464, 7.215898036956787, 7.382560968399048, 8.133279800415039, 8.250310897827148, 8.366897821426392, 8.483794927597046, 8.6004478931427, 8.717319965362549, 8.83401083946228, 8.950877904891968, 9.067638874053955, 9.184944868087769, 9.301213026046753, 9.418069839477539, 9.535151958465576, 9.651559829711914, 9.768374919891357, 9.885084867477417, 10.002022981643677, 10.220237970352173]	[6.116367620340983, 6.23303428700765, 7.216034287007649, 7.382734287007649, 8.132734287007649, 8.249400953674316, 8.366067620340983, 8.48273428700765, 8.599400953674317, 8.716067620340985, 8.832734287007652, 8.949400953674319, 9.066067620340986, 9.182734287007653, 9.29940095367432, 9.416067620340987, 9.532734287007655, 9.649400953674322, 9.766067620340989, 9.882734287007656, 9.999400953674323, 10.232734287007656]	2020_Nov_25_1213	59.87415063095986	1	1
1	3	FALSE	NN	v	['P', 'T', 'M', 'B', 'R', 'G', 'K', 'Y', 'C', 'J', 'H', 'V', 'S', 'E', 'Z', 'U']	[1456, 1888, 1224, 760, 1587, 944, 1122, 2670, 829, 1029, 986, 2245, 1731, 904, 2911, 2059]	14	Absent	NA	NA	ABSENT	0.2398409843444824	12.17885708808899	14.180720090866089	15.464367151260376	15.81441617012024	18.336602926254272	4.155882835388184	[12.237524032592773, 12.354151010513306, 13.338639974594116, 13.505318880081177, 14.255959033966064, 14.372865915298462, 14.489601850509644, 14.606316804885864, 14.723256826400757, 14.840107917785645, 14.956755876541138, 15.073397874832153, 15.190497875213623, 15.307257890701294, 15.423903942108154, 15.540839910507202, 15.657591819763184, 15.774180889129639, 15.891036033630371, 16.007810831069946, 16.10775589942932, 16.336601972579956]	[12.232734287007656, 12.349400953674323, 13.332400953674323, 13.499100953674324, 14.249100953674324, 14.365767620340991, 14.482434287007658, 14.599100953674325, 14.715767620340992, 14.83243428700766, 14.949100953674327, 15.065767620340994, 15.182434287007661, 15.299100953674328, 15.415767620340995, 15.532434287007662, 15.64910095367433, 15.765767620340997, 15.882434287007664, 15.999100953674331, 16.115767620340996, 16.34910095367433]	2020_Nov_25_1213	59.87415063095986	1	1
1	4	FALSE	NA	v	['E', 'A', 'Z', 'C', 'J', 'H', 'W', 'K', 'M', 'V', 'T', 'U', 'X', 'B', 'Y', 'R']	[904, 697, 2911, 829, 1029, 986, 2448, 1122, 1224, 2245, 1888, 2059, 4000, 760, 2670, 1587]	13	Present	NA	NA	VISUAL	0.24415111541748047	18.2846360206604	20.297072172164917	21.464214086532593	21.814123153686523	24.452970027923584	4.155897855758667	[18.343302965164185, 18.460242986679077, 19.44487690925598, 19.611413955688477, 20.378796815872192, 20.478957891464233, 20.595582962036133, 20.71242880821228, 20.829169034957886, 20.946029901504517, 21.06278085708618, 21.17984700202942, 21.296377897262573, 21.413108825683594, 21.529874801635742, 21.646742820739746, 21.763518810272217, 21.880404949188232, 21.997116804122925, 22.113967895507812, 22.230886936187744, 22.45296883583069]	[18.34910095367433, 18.465767620340998, 19.448767620341, 19.615467620340997, 20.365467620340997, 20.482134287007664, 20.59880095367433, 20.715467620341, 20.832134287007666, 20.948800953674333, 21.065467620341, 21.182134287007667, 21.298800953674334, 21.415467620341, 21.53213428700767, 21.648800953674336, 21.765467620341003, 21.88213428700767, 21.998800953674337, 22.115467620341004, 22.23213428700767, 22.465467620341006]	2020_Nov_25_1213	59.87415063095986	1	1
1	5	FALSE	NV	v	['G', 'C', 'W', 'Z', 'N', 'E', 'S', 'M', 'U', 'J', 'Y', 'X', 'A', 'R', 'B', 'K']	[944, 829, 2448, 2911, 1335, 904, 1731, 1224, 2059, 1029, 2670, 4000, 697, 1587, 760, 1122]	12	Present	NA	NA	VISUAL	0.25658392906188965	24.40771722793579	26.413544178009033	27.46358609199524	27.813860177993774	30.56934595108032	4.155801773071289	[24.466384887695312, 24.58306097984314, 25.567453861236572, 25.734054803848267, 26.484875917434692, 26.60185694694519, 26.718333959579468, 26.83510398864746, 26.9517719745636, 27.068712949752808, 27.185860872268677, 27.30223798751831, 27.419142961502075, 27.535862922668457, 27.65276598930359, 27.76953387260437, 27.886279821395874, 28.00292682647705, 28.119921922683716, 28.236472845077515, 28.353502988815308, 28.5693359375]	[24.465467620341006, 24.582134287007673, 25.565134287007673, 25.731834287007672, 26.481834287007672, 26.59850095367434, 26.715167620341006, 26.831834287007673, 26.94850095367434, 27.065167620341008, 27.181834287007675, 27.298500953674342, 27.41516762034101, 27.531834287007676, 27.648500953674343, 27.76516762034101, 27.881834287007678, 27.998500953674345, 28.115167620341012, 28.23183428700768, 28.348500953674346, 28.58183428700768]	2020_Nov_25_1213	59.87415063095986	1	1
1	6	FALSE	VA	v	['N', 'P', 'W', 'M', 'U', 'A', 'K', 'H', 'surprise', 'Z', 'J', 'X', 'Y', 'C', 'S', 'B']	[1335, 1456, 2448, 1224, 2059, 697, 1122, 986, 'stimAuditory/all_stimAuditory/208.wav', 2911, 1029, 4000, 2670, 829, 1731, 760]	12	Present	NA	stimVisual/all_stimVisual/124.jpg	VISUAL	0.3659651279449463	30.53078007698059	32.52995014190674	33.58014702796936	33.930039167404175	36.68570399284363	4.15575385093689	[30.58944797515869, 30.705570936203003, 31.690338850021362, 31.857016801834106, 32.60768389701843, 32.72446799278259, 32.84123492240906, 32.957865953445435, 33.074671030044556, 33.1915078163147, 33.30837392807007, 33.42497181892395, 33.54194903373718, 33.65865993499756, 33.7755069732666, 33.8922438621521, 34.00910401344299, 34.125831842422485, 34.24252700805664, 34.35939288139343, 34.45936298370361, 34.68570280075073]	[30.58183428700768, 30.698500953674348, 31.681500953674348, 31.848200953674347, 32.59820095367435, 32.71486762034102, 32.831534287007685, 32.94820095367435, 33.06486762034102, 33.181534287007686, 33.29820095367435, 33.41486762034102, 33.53153428700769, 33.648200953674355, 33.76486762034102, 33.88153428700769, 33.998200953674356, 34.11486762034102, 34.23153428700769, 34.34820095367436, 34.464867620341025, 34.69820095367436]	2020_Nov_25_1213	59.87415063095986	1	1
1	7	FALSE	NN	v	['R', 'V', 'Z', 'J', 'T', 'P', 'S', 'N', 'E', 'B', 'H', 'M', 'C', 'K', 'G', 'A']	[1587, 2245, 2911, 1029, 1888, 1456, 1731, 1335, 904, 760, 986, 1224, 829, 1122, 944, 697]	13	Absent	NA	NA	ABSENT	0.3066089153289795	36.636327028274536	38.64625906944275	39.81316304206848	40.163257122039795	42.80206990242005	4.155810832977295	[36.69499588012695, 36.81175780296326, 37.796159982681274, 37.962782859802246, 38.71348786354065, 38.83052897453308, 38.9471390247345, 39.064026832580566, 39.18139600753784, 39.29769802093506, 39.414395809173584, 39.53096795082092, 39.64788579940796, 39.7647168636322, 39.88156199455261, 39.99836087226868, 40.11503291130066, 40.231799840927124, 40.348694801330566, 40.465720891952515, 40.582165002822876, 40.802069902420044]	[36.69820095367436, 36.814867620341026, 37.79786762034102, 37.96456762034102, 38.71456762034102, 38.83123428700769, 38.947900953674356, 39.06456762034102, 39.18123428700769, 39.29790095367436, 39.414567620341025, 39.53123428700769, 39.64790095367436, 39.764567620341026, 39.88123428700769, 39.99790095367436, 40.11456762034103, 40.231234287007695, 40.34790095367436, 40.46456762034103, 40.581234287007696, 40.81456762034103]	2020_Nov_25_1213	59.87415063095986	1	1
1	8	FALSE	NN	v	['P', 'M', 'N', 'J', 'S', 'E', 'W', 'U', 'H', 'T', 'C', 'B', 'V', 'G', 'Y', 'K']	[1456, 1224, 1335, 1029, 1731, 904, 2448, 2059, 986, 1888, 829, 760, 2245, 944, 2670, 1122]	13	Absent	NA	NA	ABSENT	0.30295896530151367	42.758960008621216	44.762795209884636	45.929415225982666	46.27948713302612	48.918437004089355	4.155641794204712	[42.817627906799316, 42.93452596664429, 43.91867399215698, 44.08572793006897, 44.83637595176697, 44.95301103591919, 45.07004189491272, 45.18683695793152, 45.30356502532959, 45.42029690742493, 45.537250995635986, 45.65380001068115, 45.77052593231201, 45.88739585876465, 46.00423002243042, 46.120940923690796, 46.23764181137085, 46.35461187362671, 46.47126293182373, 46.58820986747742, 46.704805850982666, 46.918437004089355]	[42.81456762034103, 42.9312342870077, 43.914234287007694, 44.08093428700769, 44.83093428700769, 44.94760095367436, 45.06426762034103, 45.180934287007695, 45.29760095367436, 45.41426762034103, 45.530934287007696, 45.64760095367436, 45.76426762034103, 45.8809342870077, 45.997600953674365, 46.11426762034103, 46.2309342870077, 46.347600953674366, 46.46426762034103, 46.5809342870077, 46.69760095367437, 46.9309342870077]	2020_Nov_25_1213	59.87415063095986	1	1
1	9	FALSE	NA	v	['S', 'G', 'J', 'T', 'B', 'H', 'V', 'X', 'E', 'C', 'M', 'U', 'N', 'K', 'R', 'Z']	[1731, 944, 1029, 1888, 760, 986, 2245, 4000, 904, 829, 1224, 2059, 1335, 1122, 1587, 2911]	8	Present	NA	NA	VISUAL	0.1084439754486084	48.865050077438354	50.87900519371033	51.46260118484497	51.812504053115845	55.034801959991455	4.155796766281128	[48.92371702194214, 49.04051899909973, 50.02496099472046, 50.1916708946228, 50.95950889587402, 51.05913686752319, 51.175966024398804, 51.29262590408325, 51.40931582450867, 51.52619981765747, 51.64298486709595, 51.759788036346436, 51.876564025878906, 51.99334502220154, 52.11031889915466, 52.2270028591156, 52.34376883506775, 52.460609912872314, 52.57733488082886, 52.69405794143677, 52.81096291542053, 53.03480291366577]	[48.9309342870077, 49.04760095367437, 50.030600953674366, 50.197300953674365, 50.947300953674365, 51.06396762034103, 51.1806342870077, 51.297300953674366, 51.41396762034103, 51.5306342870077, 51.64730095367437, 51.763967620341035, 51.8806342870077, 51.99730095367437, 52.113967620341036, 52.2306342870077, 52.34730095367437, 52.46396762034104, 52.580634287007705, 52.69730095367437, 52.81396762034104, 53.04730095367437]	2020_Nov_25_1213	59.87415063095986	1	1
1	10	FALSE	AA	v	['K', 'U', 'R', 'Z', 'B', 'surprise', 'T', 'E', 'X', 'W', 'N', 'G', 'H', 'C', 'V', 'S']	[1122, 2059, 1587, 2911, 760, 'stimAuditory/all_stimAuditory/209.wav', 1888, 904, 4000, 2448, 1335, 944, 986, 829, 2245, 1731]	9	Present	stimAuditory/all_stimAuditory/208.wav	stimVisual/all_stimVisual/119.jpg	ABSENT	0.5052199363708496	54.98796319961548	56.99514722824097	57.69587016105652	58.04548716545105	61.15116882324219	4.156021595001221	[55.046630859375, 55.163230895996094, 56.147735834121704, 56.314281940460205, 57.06504583358765, 57.18198800086975, 57.29884696006775, 57.41552782058716, 57.532387018203735, 57.66567087173462, 57.76586890220642, 57.882563829422, 57.99947190284729, 58.11620283126831, 58.23311185836792, 58.349764823913574, 58.46651291847229, 58.58335590362549, 58.700403928756714, 58.816943883895874, 58.93357992172241, 59.15117001533508]	[55.04730095367437, 55.16396762034104, 56.14696762034104, 56.313667620341036, 57.063667620341036, 57.1803342870077, 57.29700095367437, 57.41366762034104, 57.530334287007705, 57.64700095367437, 57.76366762034104, 57.880334287007706, 57.99700095367437, 58.11366762034104, 58.23033428700771, 58.347000953674375, 58.46366762034104, 58.58033428700771, 58.697000953674376, 58.81366762034104, 58.93033428700771, 59.163667620341045]	2020_Nov_25_1213	59.87415063095986	1	1
1	11	FALSE	NN	v	['Y', 'V', 'G', 'B', 'N', 'Z', 'W', 'E', 'J', 'P', 'R', 'U', 'M', 'H', 'C', 'K']	[2670, 2245, 944, 760, 1335, 2911, 2448, 904, 1029, 1456, 1587, 2059, 1224, 986, 829, 1122]	11	Absent	NA	NA	ABSENT	0.2463698387145996	61.11089920997619	63.11144018173218	64.0452971458435	64.395294189453125	67.26753687858582	4.156096696853638	[61.16956686973572, 61.28590703010559, 62.270187854766846, 62.437211990356445, 63.18783092498779, 63.304720878601074, 63.42154288291931, 63.538299798965454, 63.6551558971405, 63.77194285392761, 63.88869285583496, 64.0054349899292, 64.12205481529236, 64.23888897895813, 64.35579299926758, 64.47258281707764, 64.58924698829651, 64.70614695549011, 64.8229968547821, 64.93970084190369, 65.03969097137451, 65.26753687858582]	[61.163667620341045, 61.28033428700771, 62.26333428700771, 62.43003428700771, 63.18003428700771, 63.296700953674375, 63.41336762034104, 63.53003428700771, 63.646700953674376, 63.76336762034104, 63.88003428700771, 63.99670095367438, 64.11336762034104, 64.2300342870077, 64.34670095367436, 64.46336762034102, 64.58003428700768, 64.69670095367434, 64.813367620341, 64.93003428700766, 65.04670095367432, 65.28003428700765]	2020_Nov_25_1213	59.87415063095986	1	1
1	12	FALSE	NA	v	['A', 'E', 'R', 'J', 'C', 'T', 'H', 'X', 'G', 'V', 'K', 'M', 'W', 'N', 'Z', 'Y']	[697, 904, 1587, 1029, 829, 1888, 986, 4000, 944, 2245, 1122, 1224, 2448, 1335, 2911, 2670]	8	Present	NA	NA	VISUAL	0.2586970329284668	67.21656918525696	69.22828507423401	69.81202507019043	70.16182208061218	73.38390398025513	4.155618906021118	[67.27523589134216, 67.39208984375, 68.37645196914673, 68.54318380355835, 69.31068587303162, 69.41076493263245, 69.5275149345398, 69.64412999153137, 69.76111698150635, 69.87775182723999, 69.9947760105133, 70.11148381233215, 70.22836089134216, 70.34510898590088, 70.4621410369873, 70.57849884033203, 70.69541096687317, 70.81218791007996, 70.92907381057739, 71.04565191268921, 71.16252899169922, 71.38390398025513]	[67.28003428700765, 67.39670095367431, 68.37970095367432, 68.54640095367432, 69.29640095367432, 69.41306762034098, 69.52973428700764, 69.6464009536743, 69.76306762034096, 69.87973428700762, 69.99640095367428, 70.11306762034094, 70.2297342870076, 70.34640095367426, 70.46306762034092, 70.57973428700758, 70.69640095367424, 70.8130676203409, 70.92973428700756, 71.04640095367422, 71.16306762034088, 71.39640095367422]	2020_Nov_25_1213	59.87415063095986	1	1
1	13	FALSE	NA	v	['M', 'G', 'V', 'N', 'Y', 'U', 'H', 'C', 'A', 'X', 'P', 'W', 'T', 'B', 'E', 'R']	[1224, 944, 2245, 1335, 2670, 2059, 986, 829, 697, 4000, 1456, 2448, 1888, 760, 904, 1587]	10	Present	NA	NA	VISUAL	0.3034791946411133	73.33947920799255	75.34435606002808	76.20788216590881	76.51128721237183	79.50026988983154	4.155913829803467	[73.39816880226135, 73.51502299308777, 74.49931597709656, 74.66606402397156, 75.41676783561707, 75.53343081474304, 75.65034794807434, 75.76695084571838, 75.88395285606384, 76.00061082839966, 76.11724901199341, 76.28427791595459, 76.35085988044739, 76.46780300140381, 76.58455681800842, 76.7013509273529, 76.81801080703735, 76.9349148273468, 77.05158281326294, 77.16849684715271, 77.2851870059967, 77.50026893615723]	[73.39640095367422, 73.51306762034088, 74.49606762034088, 74.66276762034089, 75.41276762034089, 75.52943428700755, 75.6461009536742, 75.76276762034087, 75.87943428700753, 75.99610095367419, 76.11276762034085, 76.2294342870075, 76.34610095367417, 76.46276762034083, 76.57943428700749, 76.69610095367415, 76.81276762034081, 76.92943428700747, 77.04610095367413, 77.16276762034079, 77.27943428700745, 77.51276762034078]	2020_Nov_25_1213	59.87415063095986	1	1
1	14	FALSE	NV	v	['K', 'V', 'J', 'M', 'E', 'B', 'R', 'G', 'W', 'Z', 'C', 'H', 'X', 'S', 'U', 'Y']	[1122, 2245, 1029, 1224, 904, 760, 1587, 944, 2448, 2911, 829, 986, 4000, 1731, 2059, 2670]	13	Present	NA	NA	VISUAL	0.3166790008544922	79.4621901512146	81.46069717407227	82.62778902053833	82.97766304016113	85.61663699150085	4.155939817428589	[79.52085781097412, 79.63764500617981, 80.60539197921753, 80.77198886871338, 81.53946280479431, 81.65639781951904, 81.77307891845703, 81.88995289802551, 82.00667095184326, 82.12347888946533, 82.24023985862732, 82.35703301429749, 82.47373390197754, 82.59055590629578, 82.70716190338135, 82.8241958618164, 82.92400598526001, 83.04090595245361, 83.15770483016968, 83.29133081436157, 83.39143896102905, 83.61663579940796]	[79.51276762034078, 79.62943428700744, 80.61243428700745, 80.77913428700745, 81.52913428700745, 81.64580095367411, 81.76246762034077, 81.87913428700743, 81.99580095367409, 82.11246762034075, 82.22913428700741, 82.34580095367407, 82.46246762034073, 82.57913428700739, 82.69580095367405, 82.81246762034071, 82.92913428700737, 83.04580095367403, 83.16246762034069, 83.27913428700735, 83.39580095367401, 83.62913428700735]	2020_Nov_25_1213	59.87415063095986	1	1
1	15	FALSE	NN	v	['J', 'E', 'S', 'Z', 'U', 'R', 'M', 'B', 'W', 'V', 'H', 'Y', 'T', 'P', 'G', 'C']	[1029, 904, 1731, 2911, 2059, 1587, 1224, 760, 2448, 2245, 986, 2670, 1888, 1456, 944, 829]	14	Absent	NA	NA	ABSENT	0.2733790874481201	85.56814503669739	87.57713603973389	88.86062121391296	89.21071004867554	91.73300194740295	4.155865907669067	[85.62681293487549, 85.74372482299805, 86.72803783416748, 86.89481091499329, 87.64537596702576, 87.76234984397888, 87.8791618347168, 87.9957709312439, 88.11273384094238, 88.22950100898743, 88.34622287750244, 88.46305203437805, 88.57985591888428, 88.69643902778625, 88.81338286399841, 88.93010997772217, 89.0468327999115, 89.16373586654663, 89.28039598464966, 89.39733290672302, 89.51413989067078, 89.73300385475159]	[85.62913428700735, 85.745800953674, 86.72880095367401, 86.89550095367402, 87.64550095367402, 87.76216762034068, 87.87883428700734, 87.995500953674, 88.11216762034066, 88.22883428700732, 88.34550095367398, 88.46216762034064, 88.5788342870073, 88.69550095367396, 88.81216762034062, 88.92883428700728, 89.04550095367394, 89.1621676203406, 89.27883428700726, 89.39550095367392, 89.51216762034058, 89.74550095367391]	2020_Nov_25_1213	59.87415063095986	1	1
1	16	FALSE	NV	v	['Z', 'S', 'C', 'P', 'V', 'K', 'R', 'G', 'U', 'X', 'N', 'B', 'E', 'Y', 'H', 'T']	[2911, 1731, 829, 1456, 2245, 1122, 1587, 944, 2059, 4000, 1335, 760, 904, 2670, 986, 1888]	10	Present	NA	NA	VISUAL	0.26151204109191895	91.69141221046448	93.69375705718994	94.51041913032532	94.86045718193054	97.84937000274658	4.155612945556641	[91.750079870224, 91.86629295349121, 92.85067486763, 93.01761102676392, 93.76831483840942, 93.88514399528503, 94.00190901756287, 94.11852693557739, 94.23553586006165, 94.35224795341492, 94.46908402442932, 94.58583092689514, 94.70246386528015, 94.81935381889343, 94.93629193305969, 95.05280900001526, 95.16949796676636, 95.28631901741028, 95.40309500694275, 95.52007985115051, 95.63689184188843, 95.84937000274658]	[91.74550095367391, 91.86216762034057, 92.84516762034058, 93.01186762034058, 93.76186762034058, 93.87853428700724, 93.9952009536739, 94.11186762034056, 94.22853428700722, 94.34520095367388, 94.46186762034054, 94.5785342870072, 94.69520095367386, 94.81186762034052, 94.92853428700718, 95.04520095367384, 95.1618676203405, 95.27853428700716, 95.39520095367382, 95.51186762034048, 95.62853428700714, 95.86186762034048]	2020_Nov_25_1213	59.87415063095986	1	1
1	17	FALSE	NN	v	['G', 'B', 'N', 'W', 'U', 'Y', 'K', 'T', 'H', 'P', 'V', 'J', 'A', 'M', 'Z', 'R']	[944, 760, 1335, 2448, 2059, 2670, 1122, 1888, 986, 1456, 2245, 1029, 697, 1224, 2911, 1587]	8	Absent	NA	NA	ABSENT	0.5549540519714355	97.7969570159912	99.80979514122008	100.39357900619508	100.74339723587036	103.96573686599731	4.155941724777222	[97.855623960495, 97.97240281105042, 98.95682191848755, 99.12364482879639, 99.89097094535828, 99.99121499061584, 100.10803985595703, 100.22465586662292, 100.34153389930725, 100.4580488204956, 100.57504081726074, 100.69168281555176, 100.80869603157043, 100.92539095878601, 101.04225587844849, 101.15885281562805, 101.27583479881287, 101.39241600036621, 101.50943684577942, 101.62605500221252, 101.74286699295044, 101.965735912323]	[97.86186762034048, 97.97853428700714, 98.96153428700714, 99.12823428700715, 99.87823428700715, 99.9949009536738, 100.11156762034047, 100.22823428700713, 100.34490095367379, 100.46156762034045, 100.5782342870071, 100.69490095367377, 100.81156762034043, 100.92823428700709, 101.04490095367375, 101.1615676203404, 101.27823428700707, 101.39490095367373, 101.51156762034039, 101.62823428700705, 101.7449009536737, 101.97823428700704]	2020_Nov_25_1213	59.87415063095986	1	1
1	18	FALSE	VV	v	['A', 'T', 'P', 'G', 'S', 'U', 'C', 'surprise', 'B', 'Z', 'X', 'E', 'W', 'Y', 'N', 'M']	[697, 1888, 1456, 944, 1731, 2059, 829, 'stimAuditory/all_stimAuditory/204.wav', 760, 2911, 4000, 904, 2448, 2670, 1335, 1224]	11	Present	NA	stimVisual/all_stimVisual/250.jpg	VISUAL	0.2396688461303711	103.91978406906128	105.92622518539427	106.85995602607728	107.21035408973694	110.08210396766664	4.155878782272339	[103.97845196723938, 104.09528493881226, 105.07962203025818, 105.24642395973206, 105.99703192710876, 106.11386489868164, 106.23077082633972, 106.34742593765259, 106.46423196792603, 106.58105683326721, 106.69773888587952, 106.81439185142517, 106.93132781982422, 107.0480489730835, 107.16503286361694, 107.28182291984558, 107.39836096763611, 107.51529288291931, 107.63217902183533, 107.74900889396667, 107.86566686630249, 108.08210396766663]	[103.97823428700704, 104.0949009536737, 105.0779009536737, 105.24460095367371, 105.99460095367371, 106.11126762034037, 106.22793428700703, 106.34460095367369, 106.46126762034035, 106.57793428700701, 106.69460095367367, 106.81126762034033, 106.92793428700699, 107.04460095367365, 107.16126762034031, 107.27793428700697, 107.39460095367363, 107.51126762034029, 107.62793428700695, 107.74460095367361, 107.86126762034027, 108.0946009536736]	2020_Nov_25_1213	59.87415063095986	1	1
1	19	FALSE	NV	v	['K', 'C', 'S', 'V', 'J', 'H', 'E', 'G', 'P', 'Y', 'N', 'W', 'X', 'R', 'M', 'T']	[1122, 829, 1731, 2245, 1029, 986, 904, 944, 1456, 2670, 1335, 2448, 4000, 1587, 1224, 1888]	13	Present	NA	NA	VISUAL	0.3251638412475586	110.04255223274232	112.04264807701112	113.20972013473512	113.55956315994264	116.19846987724304	4.155821800231934	[110.10121893882751, 110.21786785125732, 111.20234799385071, 111.36916589736938, 112.12015390396118, 112.23666191101074, 112.35350584983826, 112.47024297714233, 112.58689594268799, 112.70384693145752, 112.82064700126648, 112.9374508857727, 113.0541558265686, 113.1707718372345, 113.28771591186523, 113.40442180633545, 113.5212128162384, 113.63818883895874, 113.7546718120575, 113.87152695655823, 113.97175788879395, 114.19846987724304]	[110.0946009536736, 110.21126762034027, 111.19426762034027, 111.36096762034028, 112.11096762034028, 112.22763428700694, 112.3443009536736, 112.46096762034026, 112.57763428700692, 112.69430095367358, 112.81096762034024, 112.9276342870069, 113.04430095367356, 113.16096762034022, 113.27763428700688, 113.39430095367354, 113.5109676203402, 113.62763428700686, 113.74430095367352, 113.86096762034018, 113.97763428700684, 114.21096762034017]	2020_Nov_25_1213	59.87415063095986	1	1
1	20	FALSE	NA	v	['M', 'V', 'A', 'H', 'Z', 'Y', 'B', 'J', 'G', 'K', 'X', 'N', 'C', 'S', 'U', 'R']	[1224, 2245, 697, 986, 2911, 2670, 760, 1029, 944, 1122, 4000, 1335, 829, 1731, 2059, 1587]	11	Present	NA	NA	VISUAL	0.2895469665527344	116.14863419532776	118.1590621471405	119.09269905090332	119.44271111488342	122.31483602523804	4.155773878097534	[116.20730185508728, 116.32412791252136, 117.30837202072144, 117.4752459526062, 118.22579288482666, 118.34266781806946, 118.45950293540955, 118.57620000839233, 118.69296598434448, 118.80976390838623, 118.92676591873169, 119.0433738231659, 119.16011691093445, 119.27704286575317, 119.39393186569214, 119.51066088676453, 119.62734794616699, 119.74387192726135, 119.8609778881073, 119.97770094871521, 120.0943558216095, 120.31483697891235]	[116.21096762034017, 116.32763428700683, 117.31063428700683, 117.47733428700684, 118.22733428700684, 118.3440009536735, 118.46066762034016, 118.57733428700682, 118.69400095367348, 118.81066762034014, 118.9273342870068, 119.04400095367346, 119.16066762034012, 119.27733428700678, 119.39400095367344, 119.5106676203401, 119.62733428700676, 119.74400095367342, 119.86066762034008, 119.97733428700674, 120.0940009536734, 120.32733428700674]	2020_Nov_25_1213	59.87415063095986	1	1
1	21	FALSE	AV	v	['P', 'S', 'U', 'H', 'A', 'R', 'J', 'M', 'surprise', 'W', 'C', 'X', 'Z', 'G', 'N', 'B']	[1456, 1731, 2059, 986, 697, 1587, 1029, 1224, 'stimAuditory/all_stimAuditory/218.wav', 2448, 829, 4000, 2911, 944, 1335, 760]	12	Present	stimAuditory/all_stimAuditory/209.wav	stimVisual/all_stimVisual/219.jpg	ABSENT	0.534052848815918	122.27169704437256	124.27548623085022	125.32569813728333	125.67583012580872	128.43120288848877	4.15571665763855	[122.33036494255066, 122.44677901268005, 123.43123698234558, 123.59792900085449, 124.34871697425842, 124.4655659198761, 124.58219885826111, 124.69911098480225, 124.81590580940247, 124.93258094787598, 125.04925489425659, 125.1661958694458, 125.28279685974121, 125.39970803260803, 125.51658797264099, 125.63334798812866, 125.75002598762512, 125.8668270111084, 125.98355889320374, 126.10039687156677, 126.21722793579102, 126.43120193481445]	[122.32733428700674, 122.4440009536734, 123.4270009536734, 123.5937009536734, 124.3437009536734, 124.46036762034007, 124.57703428700673, 124.69370095367339, 124.81036762034005, 124.9270342870067, 125.04370095367337, 125.16036762034003, 125.27703428700669, 125.39370095367335, 125.51036762034, 125.62703428700667, 125.74370095367333, 125.86036762033999, 125.97703428700665, 126.0937009536733, 126.21036762033997, 126.4437009536733]	2020_Nov_25_1213	59.87415063095986	1	1
1	22	FALSE	NA	v	['H', 'Z', 'G', 'K', 'C', 'V', 'T', 'Y', 'E', 'X', 'B', 'U', 'A', 'P', 'S', 'J']	[986, 2911, 944, 1122, 829, 2245, 1888, 2670, 904, 4000, 760, 2059, 697, 1456, 1731, 1029]	10	Present	NA	NA	VISUAL	1.4193649291992188	128.39392709732056	130.3918080329895	131.20875906944275	131.55914521217346	134.54756999015808	4.155761957168579	[128.45259380340576, 128.55275201797485, 129.53705096244812, 129.70393085479736, 130.47154188156128, 130.58824682235718, 130.68816900253296, 130.80504202842712, 130.92180395126343, 131.03856992721558, 131.15538001060486, 131.27206683158875, 131.38881182670593, 131.50591588020325, 131.62238788604736, 131.7392280101776, 131.85601687431335, 131.97296380996704, 132.08960485458374, 132.2064208984375, 132.32345700263977, 132.54756903648376]	[128.4437009536733, 128.56036762033997, 129.54336762033998, 129.71006762033997, 130.46006762033997, 130.57673428700664, 130.69340095367332, 130.81006762034, 130.92673428700667, 131.04340095367334, 131.16006762034002, 131.2767342870067, 131.39340095367336, 131.51006762034004, 131.6267342870067, 131.7434009536734, 131.86006762034006, 131.97673428700674, 132.0934009536734, 132.21006762034008, 132.32673428700676, 132.56006762034008]	2020_Nov_25_1213	59.87415063095986	1	1
1	23	FALSE	NA	v	['U', 'E', 'Y', 'G', 'T', 'R', 'B', 'J', 'X', 'M', 'C', 'W', 'V', 'K', 'H', 'P']	[2059, 904, 2670, 944, 1888, 1587, 760, 1029, 4000, 1224, 829, 2448, 2245, 1122, 986, 1456]	9	Present	NA	NA	VISUAL	0.6717441082000732	134.500146150589	136.50831604003906	137.2084550857544	137.55829119682312	140.6639368534088	4.155620813369751	[134.5588138103485, 134.6755518913269, 135.65981793403625, 135.82682085037231, 136.57742881774902, 136.69416785240173, 136.81108498573303, 136.92789602279663, 137.04466485977173, 137.161456823349, 137.27815198898315, 137.39512491226196, 137.51175093650818, 137.6287558078766, 137.7452368736267, 137.86222982406616, 137.97877097129822, 138.09578585624695, 138.21242094039917, 138.32932591438293, 138.4462230205536, 138.6639358997345]	[134.56006762034008, 134.67673428700675, 135.65973428700676, 135.82643428700675, 136.57643428700675, 136.69310095367342, 136.8097676203401, 136.92643428700677, 137.04310095367345, 137.15976762034012, 137.2764342870068, 137.39310095367347, 137.50976762034014, 137.62643428700682, 137.7431009536735, 137.85976762034016, 137.97643428700684, 138.0931009536735, 138.2097676203402, 138.32643428700686, 138.44310095367354, 138.67643428700686]	2020_Nov_25_1213	59.87415063095986	1	1
1	24	FALSE	NN	v	['G', 'U', 'R', 'W', 'E', 'J', 'K', 'T', 'Y', 'P', 'B', 'A', 'M', 'C', 'H', 'Z']	[944, 2059, 1587, 2448, 904, 1029, 1122, 1888, 2670, 1456, 760, 697, 1224, 829, 986, 2911]	11	Absent	NA	NA	ABSENT	0.5334010124206543	140.623024225235	142.62467622756958	143.55795812606812	143.90797305107117	146.78030395507812	4.155627727508545	[140.6816918849945, 140.79852485656738, 141.78312492370605, 141.94972586631775, 142.70027089118958, 142.81721782684326, 142.9339759349823, 143.0506739616394, 143.16737389564514, 143.28429198265076, 143.40104389190674, 143.51758003234863, 143.6345009803772, 143.7512879371643, 143.86822390556335, 143.985013961792, 144.1016869544983, 144.2183768749237, 144.33522486686707, 144.45207595825195, 144.55195593833923, 144.78030395507812]	[140.67643428700686, 140.79310095367353, 141.77610095367353, 141.94280095367353, 142.69280095367353, 142.8094676203402, 142.92613428700687, 143.04280095367355, 143.15946762034022, 143.2761342870069, 143.39280095367357, 143.50946762034025, 143.62613428700692, 143.7428009536736, 143.85946762034027, 143.97613428700694, 144.09280095367362, 144.2094676203403, 144.32613428700697, 144.44280095367364, 144.5594676203403, 144.79280095367363]	2020_Nov_25_1213	59.87415063095986	1	1
1	25	FALSE	NV	v	['H', 'A', 'K', 'V', 'M', 'Z', 'W', 'J', 'P', 'N', 'Y', 'G', 'X', 'T', 'S', 'R']	[986, 697, 1122, 2245, 1224, 2911, 2448, 1029, 1456, 1335, 2670, 944, 4000, 1888, 1731, 1587]	13	Present	NA	NA	VISUAL	0.2498180866241455	146.72912001609802	148.74090600013733	149.90763306617737	150.2576081752777	152.89666891098022	4.1557629108428955	[146.7877869606018, 146.90442895889282, 147.88873982429504, 148.05579590797424, 148.8229329586029, 148.9231629371643, 149.04008984565735, 149.15676403045654, 149.27368783950806, 149.390398979187, 149.50703692436218, 149.62374591827393, 149.7406768798828, 149.85742902755737, 149.97412490844727, 150.09104180335999, 150.2076439857483, 150.32458591461182, 150.44146990776062, 150.5580759048462, 150.67476296424866, 150.89666891098022]	[146.79280095367363, 146.9094676203403, 147.8924676203403, 148.0591676203403, 148.8091676203403, 148.92583428700698, 149.04250095367365, 149.15916762034033, 149.275834287007, 149.39250095367368, 149.50916762034035, 149.62583428700702, 149.7425009536737, 149.85916762034037, 149.97583428700705, 150.09250095367372, 150.2091676203404, 150.32583428700707, 150.44250095367374, 150.55916762034042, 150.6758342870071, 150.9091676203404]	2020_Nov_25_1213	59.87415063095986	1	1
1	26	FALSE	NA	v	['Y', 'G', 'A', 'T', 'R', 'M', 'W', 'N', 'X', 'H', 'Z', 'P', 'S', 'V', 'C', 'K']	[2670, 944, 697, 1888, 1587, 1224, 2448, 1335, 4000, 986, 2911, 1456, 1731, 2245, 829, 1122]	9	Present	NA	NA	VISUAL	0.2623720169067383	152.85216307640076	154.85713720321655	155.5574700832367	155.9088351726532	159.01303601264954	4.155898809432983	[152.91083097457886, 153.0272479057312, 154.01173281669617, 154.17842602729797, 154.92905187606812, 155.04591298103333, 155.16257095336914, 155.27948093414307, 155.3963499069214, 155.5130579471588, 155.62971591949463, 155.74668788909912, 155.86345100402832, 155.98021697998047, 156.09704184532166, 156.21376991271973, 156.3305628299713, 156.44739484786987, 156.56423902511597, 156.68081092834473, 156.79781484603882, 157.01303601264954]	[152.9091676203404, 153.0258342870071, 154.0088342870071, 154.17553428700708, 154.92553428700708, 155.04220095367376, 155.15886762034043, 155.2755342870071, 155.39220095367378, 155.50886762034045, 155.62553428700713, 155.7422009536738, 155.85886762034048, 155.97553428700715, 156.09220095367382, 156.2088676203405, 156.32553428700717, 156.44220095367385, 156.55886762034052, 156.6755342870072, 156.79220095367387, 157.0255342870072]	2020_Nov_25_1213	59.87415063095986	1	1
1	27	FALSE	NN	v	['G', 'T', 'S', 'C', 'H', 'E', 'Y', 'J', 'Z', 'W', 'N', 'M', 'R', 'U', 'B', 'A']	[944, 1888, 1731, 829, 986, 904, 2670, 1029, 2911, 2448, 1335, 1224, 1587, 2059, 760, 697]	13	Absent	NA	NA	ABSENT	0.44358396530151367	158.97456407546997	160.97349405288696	162.1406750679016	162.49049019813538	165.12940192222595	4.155907869338989	[159.03323197364807, 159.15005683898926, 160.11757898330688, 160.28430199623108, 161.05181980133057, 161.16895294189453, 161.28528881072998, 161.40234780311584, 161.51898193359375, 161.63592290878296, 161.75267481803894, 161.8694770336151, 161.9862608909607, 162.10311484336853, 162.21978998184204, 162.33660697937012, 162.45348691940308, 162.56998586654663, 162.68688797950745, 162.786691904068, 162.90381288528442, 163.12940192222595]	[159.0255342870072, 159.14220095367386, 160.12520095367387, 160.29190095367386, 161.04190095367386, 161.15856762034053, 161.2752342870072, 161.39190095367388, 161.50856762034056, 161.62523428700723, 161.7419009536739, 161.85856762034058, 161.97523428700725, 162.09190095367393, 162.2085676203406, 162.32523428700728, 162.44190095367395, 162.55856762034063, 162.6752342870073, 162.79190095367397, 162.90856762034065, 163.14190095367397]	2020_Nov_25_1213	59.87415063095986	1	1
1	28	FALSE	NV	v	['W', 'U', 'N', 'A', 'H', 'S', 'C', 'E', 'T', 'X', 'J', 'P', 'G', 'Y', 'R', 'K']	[2448, 2059, 1335, 697, 986, 1731, 829, 904, 1888, 4000, 1029, 1456, 944, 2670, 1587, 1122]	10	Present	NA	NA	VISUAL	0.28016114234924316	165.08080410957336	167.08989810943604	167.9067702293396	168.25702905654907	171.24576997756958	4.155871868133545	[165.13947200775146, 165.25607800483704, 166.24038696289062, 166.4071958065033, 167.15782499313354, 167.2748508453369, 167.3915719985962, 167.50853991508484, 167.6252088546753, 167.7418918609619, 167.85861587524414, 167.9755778312683, 168.09216499328613, 168.20916390419006, 168.32572388648987, 168.44263696670532, 168.5594129562378, 168.67598795890808, 168.79293084144592, 168.90976691246033, 169.02643489837646, 169.24576997756958]	[165.14190095367397, 165.25856762034064, 166.24156762034065, 166.40826762034064, 167.15826762034064, 167.2749342870073, 167.391600953674, 167.50826762034066, 167.62493428700733, 167.741600953674, 167.85826762034068, 167.97493428700736, 168.09160095367403, 168.2082676203407, 168.32493428700738, 168.44160095367405, 168.55826762034073, 168.6749342870074, 168.79160095367408, 168.90826762034075, 169.02493428700743, 169.25826762034075]	2020_Nov_25_1213	59.87415063095986	1	1
1	29	FALSE	AA	v	['K', 'W', 'P', 'V', 'A', 'Y', 'J', 'C', 'G', 'R', 'surprise', 'E', 'H', 'X', 'S', 'U']	[1122, 2448, 1456, 2245, 697, 2670, 1029, 829, 944, 1587, 'stimAuditory/all_stimAuditory/101.wav', 904, 986, 4000, 1731, 2059]	14	Present	stimAuditory/all_stimAuditory/204.wav	stimVisual/all_stimVisual/213.jpg	VISUAL	0.2607550621032715	171.20334601402283	173.20625805854797	174.49018502235413	174.83995604515076	177.3621368408203	4.155878782272339	[171.2620129585266, 171.37884497642517, 172.36327195167542, 172.53042697906494, 173.28069496154785, 173.39763402938843, 173.51437091827393, 173.6309938430786, 173.74808502197266, 173.86477088928223, 173.98143982887268, 174.09827780723572, 174.21497583389282, 174.33163785934448, 174.44862985610962, 174.56542801856995, 174.68212699890137, 174.79883289337158, 174.9158318042755, 175.0325210094452, 175.14927101135254, 175.3621368408203]	[171.25826762034075, 171.37493428700742, 172.35793428700742, 172.52463428700742, 173.27463428700742, 173.3913009536741, 173.50796762034076, 173.62463428700744, 173.7413009536741, 173.8579676203408, 173.97463428700746, 174.09130095367414, 174.2079676203408, 174.32463428700748, 174.44130095367416, 174.55796762034083, 174.6746342870075, 174.79130095367418, 174.90796762034086, 175.02463428700753, 175.1413009536742, 175.37463428700752]	2020_Nov_25_1213	59.87415063095986	1	1
1	30	FALSE	NV	v	['N', 'U', 'V', 'B', 'W', 'S', 'Z', 'K', 'Y', 'G', 'X', 'T', 'M', 'E', 'A', 'H']	[1335, 2059, 2245, 760, 2448, 1731, 2911, 1122, 2670, 944, 4000, 1888, 1224, 904, 697, 986]	11	Present	NA	NA	VISUAL	0.2659451961517334	177.30940008163452	179.3227961063385	180.256117105484	180.60622000694275	183.4785039424896	4.155707836151123	[177.3680670261383, 177.4848849773407, 178.46927094459534, 178.63613390922546, 179.40345096588135, 179.50345587730408, 179.62026691436768, 179.73706102371216, 179.85403490066528, 179.9705729484558, 180.08745980262756, 180.2044198513031, 180.32103395462036, 180.43770289421082, 180.5544810295105, 180.67130780220032, 180.78809189796448, 180.90512585639954, 181.0217318534851, 181.13867783546448, 181.2554259300232, 181.4785029888153]	[177.37463428700752, 177.4913009536742, 178.4743009536742, 178.6410009536742, 179.3910009536742, 179.50766762034087, 179.62433428700754, 179.74100095367422, 179.8576676203409, 179.97433428700757, 180.09100095367424, 180.2076676203409, 180.3243342870076, 180.44100095367426, 180.55766762034094, 180.6743342870076, 180.79100095367428, 180.90766762034096, 181.02433428700763, 181.1410009536743, 181.25766762034098, 181.4910009536743]	2020_Nov_25_1213	59.87415063095986	1	1
1	31	FALSE	NN	v	['W', 'V', 'Z', 'E', 'J', 'M', 'G', 'U', 'N', 'H', 'K', 'B', 'T', 'Y', 'A', 'S']	[2448, 2245, 2911, 904, 1029, 1224, 944, 2059, 1335, 986, 1122, 760, 1888, 2670, 697, 1731]	13	Absent	NA	NA	ABSENT	0.2545797824859619	183.43244123458865	185.43929719924927	186.60598015785217	186.95581221580505	189.59486985206604	4.1555726528167725	[183.49110889434814, 183.60779285430908, 184.59215688705444, 184.75891494750977, 185.50961995124817, 185.62633395195007, 185.74311685562134, 185.85975193977356, 185.9767289161682, 186.09353494644165, 186.21031284332275, 186.32721185684204, 186.44392585754395, 186.5608468055725, 186.67760682106018, 186.79422092437744, 186.91100597381592, 187.02786993980408, 187.14453196525574, 187.26143288612366, 187.37821102142334, 187.59486889839172]	[183.4910009536743, 183.60766762034098, 184.59066762034098, 184.75736762034097, 185.50736762034097, 185.62403428700765, 185.74070095367432, 185.857367620341, 185.97403428700767, 186.09070095367434, 186.20736762034102, 186.3240342870077, 186.44070095367437, 186.55736762034104, 186.67403428700771, 186.7907009536744, 186.90736762034106, 187.02403428700774, 187.1407009536744, 187.25736762034109, 187.37403428700776, 187.60736762034108]	2020_Nov_25_1213	59.87415063095986	1	1
1	32	FALSE	NN	v	['A', 'P', 'C', 'H', 'Y', 'M', 'Z', 'R', 'B', 'W', 'J', 'U', 'E', 'K', 'S', 'N']	[697, 1456, 829, 986, 2670, 1224, 2911, 1587, 760, 2448, 1029, 2059, 904, 1122, 1731, 1335]	14	Absent	NA	NA	ABSENT	0.2839789390563965	189.5551311969757	191.55563807487488	192.83897519111633	193.18908214569092	195.71123695373535	4.155598878860474	[189.6138198375702, 189.73061680793762, 190.7149748802185, 190.88157391548157, 191.63238096237183, 191.74933099746704, 191.86613488197327, 191.9827218055725, 192.09956789016724, 192.21617794036865, 192.333025932312, 192.44986200332642, 192.5668158531189, 192.6834659576416, 192.8002848625183, 192.91711282730103, 193.03387594223022, 193.1506688594818, 193.26723289489746, 193.38406085968018, 193.48448085784912, 193.71123600006104]	[189.60736762034108, 189.72403428700775, 190.70703428700776, 190.87373428700775, 191.62373428700775, 191.74040095367442, 191.8570676203411, 191.97373428700777, 192.09040095367445, 192.20706762034112, 192.3237342870078, 192.44040095367447, 192.55706762034114, 192.67373428700782, 192.7904009536745, 192.90706762034117, 193.02373428700784, 193.14040095367451, 193.2570676203412, 193.37373428700786, 193.49040095367454, 193.72373428700786]	2020_Nov_25_1213	59.87415063095986	1	1
1	33	FALSE	NA	v	['V', 'R', 'K', 'P', 'W', 'M', 'J', 'G', 'Y', 'H', 'X', 'A', 'B', 'E', 'Z', 'T']	[2245, 1587, 1122, 1456, 2448, 1224, 1029, 944, 2670, 986, 4000, 697, 760, 904, 2911, 1888]	11	Present	NA	NA	ABSENT	1.2563059329986572	195.6610491275787	197.6719810962677	198.6055371761322	198.95525312423703	201.82760286331177	4.155621767044067	[195.71971487998962, 195.83663988113403, 196.82102298736572, 196.98779487609863, 197.73832392692566, 197.85536694526672, 197.9720070362091, 198.08895802497864, 198.20558285713196, 198.32249689102173, 198.43919801712036, 198.55588698387146, 198.67260789871216, 198.78956985473633, 198.9062328338623, 199.02321481704712, 199.1399109363556, 199.25680088996887, 199.37356281280518, 199.4904248714447, 199.6071798801422, 199.82760381698608]	[195.72373428700786, 195.84040095367453, 196.82340095367454, 196.99010095367453, 197.74010095367453, 197.8567676203412, 197.97343428700788, 198.09010095367455, 198.20676762034122, 198.3234342870079, 198.44010095367457, 198.55676762034125, 198.67343428700792, 198.7901009536746, 198.90676762034127, 199.02343428700794, 199.14010095367462, 199.2567676203413, 199.37343428700797, 199.49010095367464, 199.60676762034132, 199.84010095367464]	2020_Nov_25_1213	59.87415063095986	1	1
1	34	FALSE	NA	v	['C', 'Y', 'J', 'Z', 'T', 'V', 'M', 'H', 'B', 'W', 'X', 'A', 'U', 'R', 'E', 'S']	[829, 2670, 1029, 2911, 1888, 2245, 1224, 986, 760, 2448, 4000, 697, 2059, 1587, 904, 1731]	11	Present	NA	NA	VISUAL	0.22086715698242188	201.7837760448456	203.7880821228027	204.72224617004397	205.07163619995117	207.94396996498108	4.155887842178345	[201.842444896698, 201.95938682556152, 202.943776845932, 203.11053681373596, 203.86157083511353, 203.97803592681885, 204.09486389160156, 204.21146082878113, 204.32841086387634, 204.44516801834106, 204.5620448589325, 204.67864680290222, 204.79549384117126, 204.91232299804688, 205.02915501594543, 205.14583492279053, 205.26276183128357, 205.3793909549713, 205.4963128566742, 205.6129469871521, 205.72984099388123, 205.94396901130676]	[201.84010095367464, 201.9567676203413, 202.9397676203413, 203.1064676203413, 203.8564676203413, 203.97313428700798, 204.08980095367465, 204.20646762034133, 204.323134287008, 204.43980095367468, 204.55646762034135, 204.67313428700803, 204.7898009536747, 204.90646762034137, 205.02313428700805, 205.13980095367472, 205.2564676203414, 205.37313428700807, 205.48980095367475, 205.60646762034142, 205.7231342870081, 205.9564676203414]	2020_Nov_25_1213	59.87415063095986	1	1
1	35	FALSE	NA	v	['G', 'R', 'J', 'T', 'U', 'Y', 'A', 'V', 'M', 'S', 'Z', 'X', 'C', 'H', 'B', 'W']	[944, 1587, 1029, 1888, 2059, 2670, 697, 2245, 1224, 1731, 2911, 4000, 829, 986, 760, 2448]	12	Present	NA	NA	VISUAL	0.2423241138458252	207.9068100452423	209.9042761325836	210.95492005348208	211.3047630786896	214.0603358745575	4.156059741973877	[207.9654779434204, 208.0653350353241, 209.04982781410217, 209.21653199195862, 209.9840989112854, 210.10092997550964, 210.2178008556366, 210.3175709247589, 210.43436288833618, 210.5511507987976, 210.6848499774933, 210.78477787971497, 210.90148282051086, 211.0182750225067, 211.13505387306213, 211.2518539428711, 211.36869883537292, 211.48536896705627, 211.60232496261597, 211.71896696090698, 211.8359968662262, 212.0603358745575]	[207.9564676203414, 208.0731342870081, 209.0561342870081, 209.22283428700808, 209.97283428700808, 210.08950095367476, 210.20616762034143, 210.3228342870081, 210.43950095367478, 210.55616762034145, 210.67283428700813, 210.7895009536748, 210.90616762034148, 211.02283428700815, 211.13950095367483, 211.2561676203415, 211.37283428700817, 211.48950095367485, 211.60616762034152, 211.7228342870082, 211.83950095367487, 212.0728342870082]	2020_Nov_25_1213	59.87415063095986	1	1
1	36	FALSE	NV	v	['Z', 'U', 'C', 'W', 'J', 'B', 'T', 'V', 'M', 'N', 'K', 'H', 'Y', 'X', 'G', 'E']	[2911, 2059, 829, 2448, 1029, 760, 1888, 2245, 1224, 1335, 1122, 986, 2670, 4000, 944, 904]	14	Present	NA	NA	VISUAL	0.2868320941925049	214.01303911209104	216.0208580493927	217.30457711219788	217.65457010269165	220.17670392990112	4.155845880508423	[214.07170581817627, 214.1882610321045, 215.172602891922, 215.33938694000244, 216.0901780128479, 216.20691895484924, 216.32372498512268, 216.44060492515564, 216.55736303329468, 216.67401385307312, 216.79079580307007, 216.90769791603088, 217.0243489742279, 217.14109802246094, 217.25802302360535, 217.374666929245, 217.49155497550964, 217.60828280448914, 217.72525596618652, 217.84186482429504, 217.95876288414001, 218.17670392990112]	[214.0728342870082, 214.18950095367487, 215.17250095367487, 215.33920095367486, 216.08920095367486, 216.20586762034154, 216.3225342870082, 216.43920095367488, 216.55586762034156, 216.67253428700823, 216.7892009536749, 216.90586762034158, 217.02253428700826, 217.13920095367493, 217.2558676203416, 217.37253428700828, 217.48920095367495, 217.60586762034163, 217.7225342870083, 217.83920095367498, 217.95586762034165, 218.18920095367497]	2020_Nov_25_1213	59.87415063095986	1	1
1	37	FALSE	NV	v	['E', 'Z', 'U', 'H', 'W', 'M', 'S', 'X', 'C', 'G', 'R', 'K', 'V', 'Y', 'A', 'P']	[904, 2911, 2059, 986, 2448, 1224, 1731, 4000, 829, 944, 1587, 1122, 2245, 2670, 697, 1456]	8	Present	NA	NA	VISUAL	0.26827287673950195	220.1355612277985	222.13689303398132	222.72108507156372	223.07085704803467	226.2930688858032	4.156175851821899	[220.19422888755798, 220.31117391586304, 221.29525780677795, 221.46232795715332, 222.2128348350525, 222.32978296279907, 222.44651699066162, 222.5632770061493, 222.6802899837494, 222.79695987701416, 222.91358089447021, 223.03038597106934, 223.14729595184326, 223.26386880874634, 223.38090300559998, 223.49781584739685, 223.6144368648529, 223.73116898536682, 223.8480668067932, 223.96479892730713, 224.06476497650146, 224.29306983947754]	[220.18920095367497, 220.30586762034164, 221.28886762034165, 221.45556762034164, 222.20556762034164, 222.3222342870083, 222.438900953675, 222.55556762034166, 222.67223428700834, 222.788900953675, 222.90556762034169, 223.02223428700836, 223.13890095367503, 223.2555676203417, 223.37223428700838, 223.48890095367506, 223.60556762034173, 223.7222342870084, 223.83890095367508, 223.95556762034175, 224.07223428700843, 224.30556762034175]	2020_Nov_25_1213	59.87415063095986	1	1
1	38	FALSE	VV	v	['A', 'T', 'Z', 'U', 'C', 'H', 'B', 'S', 'surprise', 'M', 'N', 'X', 'G', 'V', 'K', 'R']	[697, 1888, 2911, 2059, 829, 986, 760, 1731, 'stimAuditory/all_stimAuditory/111.wav', 1224, 1335, 4000, 944, 2245, 1122, 1587]	12	Present	NA	stimVisual/all_stimVisual/211.jpg	VISUAL	0.2646310329437256	226.2418961524963	228.2532992362976	229.3038110733032	229.65381622314453	232.40943598747253	4.156136751174927	[226.30056285858154, 226.41703391075134, 227.40163683891296, 227.56811785697937, 228.335688829422, 228.43613195419312, 228.552405834198, 228.66934394836426, 228.78620600700378, 228.90301489830017, 229.01983785629272, 229.13640189170837, 229.27016592025757, 229.3701388835907, 229.48691987991333, 229.60348987579346, 229.7205879688263, 229.83713483810425, 229.9540159702301, 230.07073497772217, 230.18758296966553, 230.40943598747253]	[226.30556762034175, 226.42223428700842, 227.40523428700843, 227.57193428700842, 228.32193428700842, 228.4386009536751, 228.55526762034177, 228.67193428700844, 228.78860095367511, 228.9052676203418, 229.02193428700846, 229.13860095367514, 229.2552676203418, 229.3719342870085, 229.48860095367516, 229.60526762034183, 229.7219342870085, 229.83860095367518, 229.95526762034186, 230.07193428700853, 230.1886009536752, 230.42193428700853]	2020_Nov_25_1213	59.87415063095986	1	1
1	39	FALSE	NA	v	['A', 'H', 'Z', 'J', 'G', 'U', 'B', 'W', 'C', 'E', 'R', 'V', 'X', 'Y', 'P', 'N']	[697, 986, 2911, 1029, 944, 2059, 760, 2448, 829, 904, 1587, 2245, 4000, 2670, 1456, 1335]	13	Present	NA	NA	VISUAL	0.2933809757232666	232.3644502162933	234.36985802650452	235.5373251438141	235.88670301437375	238.52580285072327	4.15594482421875	[232.42311787605286, 232.53988099098206, 233.52462100982666, 233.69120287895203, 234.44185185432434, 234.55876088142395, 234.67554187774658, 234.79228591918945, 234.90917992591858, 235.02576303482056, 235.14250802993774, 235.2592749595642, 235.37621903419495, 235.49301385879517, 235.60983896255493, 235.7265808582306, 235.8431339263916, 235.9599609375, 236.07675886154175, 236.1936240196228, 236.31036281585693, 236.52580285072327]	[232.42193428700853, 232.5386009536752, 233.5216009536752, 233.6883009536752, 234.4383009536752, 234.55496762034187, 234.67163428700854, 234.78830095367522, 234.9049676203419, 235.02163428700857, 235.13830095367524, 235.25496762034192, 235.3716342870086, 235.48830095367526, 235.60496762034194, 235.7216342870086, 235.8383009536753, 235.95496762034196, 236.07163428700864, 236.1883009536753, 236.30496762034198, 236.5383009536753]	2020_Nov_25_1213	59.87415063095986	1	1
1	40	FALSE	NN	v	['R', 'N', 'M', 'E', 'W', 'A', 'B', 'C', 'K', 'J', 'U', 'Y', 'V', 'T', 'H', 'G']	[1587, 1335, 1224, 904, 2448, 697, 760, 829, 1122, 1029, 2059, 2670, 2245, 1888, 986, 944]	13	Absent	NA	NA	ABSENT	0.7305819988250732	238.4873390197754	240.48632502555847	241.6531901359558	242.00339913368225	244.64216995239255	4.1558449268341064	[238.54600596427917, 238.6629569530487, 239.63022899627686, 239.79711890220642, 240.56465101242065, 240.68135786056519, 240.79829502105713, 240.91500997543335, 241.031888961792, 241.14870595932007, 241.26531982421875, 241.3821578025818, 241.4988989830017, 241.61581993103027, 241.73263883590698, 241.8492829799652, 241.96616792678833, 242.08298683166504, 242.1827208995819, 242.29956197738647, 242.41648888587952, 242.64216995239258]	[238.5383009536753, 238.65496762034198, 239.63796762034198, 239.80466762034197, 240.55466762034197, 240.67133428700865, 240.78800095367532, 240.904667620342, 241.02133428700867, 241.13800095367534, 241.25466762034202, 241.3713342870087, 241.48800095367537, 241.60466762034204, 241.72133428700872, 241.8380009536754, 241.95466762034206, 242.07133428700874, 242.1880009536754, 242.3046676203421, 242.42133428700876, 242.65466762034208]	2020_Nov_25_1213	59.87415063095986	1	1
1	41	FALSE	AV	v	['B', 'Y', 'Z', 'G', 'M', 'J', 'H', 'surprise', 'A', 'U', 'X', 'S', 'V', 'P', 'C', 'E']	[760, 2670, 2911, 944, 1224, 1029, 986, 'stimAuditory/all_stimAuditory/107.wav', 697, 2059, 4000, 1731, 2245, 1456, 829, 904]	11	Present	stimAuditory/all_stimAuditory/218.wav	stimVisual/all_stimVisual/115.jpg	ABSENT	0.4390678405761719	244.59355211257937	246.60289120674133	247.53620600700376	247.88621616363525	250.758535861969	4.155644655227661	[244.65222001075745, 244.76892495155334, 245.75323796272278, 245.91993498802185, 246.67062902450562, 246.78760695457458, 246.90423583984375, 247.0210030078888, 247.13792085647583, 247.2547538280487, 247.3714919090271, 247.50507187843323, 247.60507202148438, 247.72198295593262, 247.83854985237122, 247.95520997047424, 248.07204699516296, 248.18871688842773, 248.30564188957214, 248.4223289489746, 248.539381980896, 248.7585368156433]	[244.65466762034208, 244.77133428700876, 245.75433428700876, 245.92103428700875, 246.67103428700875, 246.78770095367543, 246.9043676203421, 247.02103428700877, 247.13770095367545, 247.25436762034212, 247.3710342870088, 247.48770095367547, 247.60436762034215, 247.72103428700882, 247.8377009536755, 247.95436762034217, 248.07103428700884, 248.18770095367552, 248.3043676203422, 248.42103428700887, 248.53770095367554, 248.77103428700886]	2020_Nov_25_1213	59.87415063095986	1	1
1	42	FALSE	NV	v	['E', 'H', 'B', 'P', 'U', 'C', 'G', 'W', 'Z', 'V', 'X', 'S', 'K', 'R', 'A', 'J']	[904, 986, 760, 1456, 2059, 829, 944, 2448, 2911, 2245, 4000, 1731, 1122, 1587, 697, 1029]	11	Present	NA	NA	VISUAL	0.275892972946167	250.7162082195282	252.71897721290588	253.65303301811215	254.0026421546936	256.8749039173126	4.155926704406738	[250.77487587928772, 250.8917269706726, 251.87613201141357, 252.04283595085144, 252.79348802566528, 252.91031694412231, 253.02702283859253, 253.14385080337524, 253.26078391075134, 253.37738680839539, 253.4943130016327, 253.6109528541565, 253.7279019355774, 253.84454894065857, 253.9615318775177, 254.07819485664368, 254.19498801231384, 254.31168484687805, 254.4287350177765, 254.54551196098328, 254.66210198402405, 254.8749029636383]	[250.77103428700886, 250.88770095367553, 251.87070095367554, 252.03740095367553, 252.78740095367553, 252.9040676203422, 253.02073428700888, 253.13740095367555, 253.25406762034223, 253.3707342870089, 253.48740095367558, 253.60406762034225, 253.72073428700892, 253.8374009536756, 253.95406762034227, 254.07073428700895, 254.18740095367562, 254.3040676203423, 254.42073428700897, 254.53740095367564, 254.65406762034232, 254.88740095367564]	2020_Nov_25_1213	59.87415063095986	1	1
1	43	FALSE	NA	v	['G', 'B', 'S', 'W', 'T', 'Y', 'A', 'X', 'R', 'C', 'U', 'Z', 'M', 'J', 'E', 'P']	[944, 760, 1731, 2448, 1888, 2670, 697, 4000, 1587, 829, 2059, 2911, 1224, 1029, 904, 1456]	8	Present	NA	NA	VISUAL	0.3609130382537842	256.82214617729187	258.8351731300354	259.418977022171	259.76908111572266	262.99126982688904	4.156096696853638	[256.8808138370514, 256.9976170063019, 257.98210096359253, 258.1488540172577, 258.91634488105774, 259.0162658691406, 259.1331260204315, 259.2498548030853, 259.3667709827423, 259.4833788871765, 259.6002118587494, 259.71724486351013, 259.8339409828186, 259.95077681541443, 260.06729888916016, 260.1841399669647, 260.3011260032654, 260.4177248477936, 260.53465700149536, 260.651242017746, 260.7680859565735, 260.9912688732147]	[256.88740095367564, 257.0040676203423, 257.9870676203423, 258.1537676203423, 258.9037676203423, 259.020434287009, 259.13710095367566, 259.25376762034233, 259.370434287009, 259.4871009536757, 259.60376762034235, 259.720434287009, 259.8371009536757, 259.9537676203424, 260.07043428700905, 260.1871009536757, 260.3037676203424, 260.4204342870091, 260.53710095367575, 260.6537676203424, 260.7704342870091, 261.00376762034244]	2020_Nov_25_1213	59.87415063095986	1	1
1	44	FALSE	NN	v	['S', 'K', 'R', 'V', 'Y', 'B', 'W', 'P', 'T', 'E', 'M', 'N', 'G', 'H', 'Z', 'J']	[1731, 1122, 1587, 2245, 2670, 760, 2448, 1456, 1888, 904, 1224, 1335, 944, 986, 2911, 1029]	13	Absent	NA	NA	ABSENT	0.3015940189361572	262.9451310634613	264.95169615745544	266.1189081668854	266.46873903274536	269.10763597488403	4.155939817428589	[263.0037999153137, 263.1206259727478, 264.10491394996643, 264.27184081077576, 265.02271580696106, 265.13905096054077, 265.2561559677124, 265.37273502349854, 265.4896068572998, 265.6063380241394, 265.72320580482483, 265.83988881111145, 265.95665884017944, 266.07337403297424, 266.1903488636017, 266.30701780319214, 266.4237298965454, 266.54061794281006, 266.65747594833374, 266.77434182167053, 266.89109086990356, 267.10763692855835]	[263.00376762034244, 263.1204342870091, 264.1034342870091, 264.2701342870091, 265.0201342870091, 265.1368009536758, 265.25346762034246, 265.37013428700914, 265.4868009536758, 265.6034676203425, 265.72013428700916, 265.83680095367583, 265.9534676203425, 266.0701342870092, 266.18680095367586, 266.30346762034253, 266.4201342870092, 266.5368009536759, 266.65346762034255, 266.7701342870092, 266.8868009536759, 267.12013428700925]	2020_Nov_25_1213	59.87415063095986	1	1
1	45	FALSE	NA	v	['W', 'B', 'Z', 'K', 'C', 'U', 'R', 'X', 'E', 'A', 'G', 'J', 'S', 'V', 'T', 'Y']	[2448, 760, 2911, 1122, 829, 2059, 1587, 4000, 904, 697, 944, 1029, 1731, 2245, 1888, 2670]	8	Present	NA	NA	VISUAL	0.22662591934204104	269.06791520118713	271.0679280757904	271.6520390510559	272.00165820121765	275.22400283813477	4.15607476234436	[269.12658190727234, 269.2433488368988, 270.2275438308716, 270.3945348262787, 271.14516592025757, 271.2619240283966, 271.37864899635315, 271.4957389831543, 271.6122188568115, 271.7293629646301, 271.84600496292114, 271.96277594566345, 272.0796549320221, 272.19648790359497, 272.31295895576477, 272.42967081069946, 272.5467178821564, 272.66367197036743, 272.78017687797546, 272.8971858024597, 272.9971740245819, 273.22400403022766]	[269.12013428700925, 269.2368009536759, 270.21980095367593, 270.3865009536759, 271.1365009536759, 271.2531676203426, 271.36983428700927, 271.48650095367594, 271.6031676203426, 271.7198342870093, 271.83650095367597, 271.95316762034264, 272.0698342870093, 272.186500953676, 272.30316762034266, 272.41983428700934, 272.536500953676, 272.6531676203427, 272.76983428700936, 272.88650095367603, 273.0031676203427, 273.23650095367606]	2020_Nov_25_1213	59.87415063095986	1	1
1	46	FALSE	NV	v	['C', 'J', 'W', 'U', 'B', 'E', 'H', 'P', 'X', 'T', 'K', 'M', 'Y', 'N', 'R', 'A']	[829, 1029, 2448, 2059, 760, 904, 986, 1456, 4000, 1888, 1122, 1224, 2670, 1335, 1587, 697]	9	Present	NA	NA	VISUAL	0.23950505256652832	275.1742880344391	277.1841950416565	277.8847131729126	278.2348401546478	281.34036898612976	4.156173944473267	[275.23295497894287, 275.3495509624481, 276.33385396003723, 276.50062680244446, 277.2512469291687, 277.36805486679077, 277.4849359989166, 277.60167598724365, 277.7185130119324, 277.8352999687195, 277.9521048069, 278.06872296333313, 278.1857168674469, 278.3023638725281, 278.41932487487793, 278.5360279083252, 278.6528329849243, 278.76953983306885, 278.88635182380676, 279.00302481651306, 279.11982583999634, 279.34036898612976]	[275.23650095367606, 275.35316762034273, 276.33616762034274, 276.5028676203427, 277.2528676203427, 277.3695342870094, 277.4862009536761, 277.60286762034275, 277.7195342870094, 277.8362009536761, 277.9528676203428, 278.06953428700945, 278.1862009536761, 278.3028676203428, 278.41953428700947, 278.53620095367614, 278.6528676203428, 278.7695342870095, 278.88620095367617, 279.00286762034284, 279.1195342870095, 279.35286762034286]	2020_Nov_25_1213	59.87415063095986	1	1
1	47	FALSE	NN	v	['A', 'U', 'Z', 'K', 'G', 'C', 'V', 'E', 'T', 'H', 'M', 'Y', 'R', 'B', 'S', 'N']	[697, 2059, 2911, 1122, 944, 829, 2245, 904, 1888, 986, 1224, 2670, 1587, 760, 1731, 1335]	12	Absent	NA	NA	ABSENT	1.5238161087036133	281.29681301116943	283.3007471561432	284.35142517089844	284.70128321647644	287.4567368030548	4.155989646911621	[281.3554799556732, 281.4721939563751, 282.45661783218384, 282.62348198890686, 283.3741810321808, 283.49107599258423, 283.6077778339386, 283.72451186180115, 283.8413870334625, 283.95815992355347, 284.07489585876465, 284.1916480064392, 284.3084948062897, 284.42556285858154, 284.54205298423767, 284.6588168144226, 284.77552485466003, 284.8924608230591, 285.00903391838074, 285.12589287757874, 285.2427089214325, 285.4567358493805]	[281.35286762034286, 281.46953428700954, 282.45253428700954, 282.61923428700953, 283.36923428700953, 283.4859009536762, 283.6025676203429, 283.71923428700956, 283.83590095367623, 283.9525676203429, 284.0692342870096, 284.18590095367625, 284.3025676203429, 284.4192342870096, 284.5359009536763, 284.65256762034295, 284.7692342870096, 284.8859009536763, 285.002567620343, 285.11923428700965, 285.2359009536763, 285.46923428700967]	2020_Nov_25_1213	59.87415063095986	1	1
1	48	FALSE	NV	v	['G', 'U', 'H', 'C', 'A', 'V', 'T', 'M', 'P', 'W', 'K', 'X', 'S', 'Y', 'E', 'J']	[944, 2059, 986, 829, 697, 2245, 1888, 1224, 1456, 2448, 1122, 4000, 1731, 2670, 904, 1029]	12	Present	NA	NA	VISUAL	0.34529995918273926	287.41938519477844	289.4172160625458	290.4674401283264	290.8174161911011	293.5731039047241	4.155887842178345	[287.47805285453796, 287.5782558917999, 288.5625319480896, 288.7294318675995, 289.4967739582062, 289.6138708591461, 289.73059701919556, 289.8305149078369, 289.94734287261963, 290.0641210079193, 290.1808500289917, 290.2976288795471, 290.4144868850708, 290.53113985061646, 290.6479549407959, 290.76470398902893, 290.8815848827362, 290.99846482276917, 291.1150918006897, 291.2318890094757, 291.34892296791077, 291.5731029510498]	[287.46923428700967, 287.58590095367634, 288.56890095367635, 288.73560095367634, 289.48560095367634, 289.602267620343, 289.7189342870097, 289.83560095367636, 289.95226762034304, 290.0689342870097, 290.1856009536764, 290.30226762034306, 290.41893428700973, 290.5356009536764, 290.6522676203431, 290.76893428700976, 290.88560095367643, 291.0022676203431, 291.1189342870098, 291.23560095367645, 291.3522676203431, 291.5856009536765]	2020_Nov_25_1213	59.87415063095986	1	1
1	49	FALSE	NA	v	['T', 'M', 'N', 'P', 'C', 'G', 'E', 'U', 'X', 'W', 'S', 'H', 'Z', 'R', 'J', 'V']	[1888, 1224, 1335, 1456, 829, 944, 904, 2059, 4000, 2448, 1731, 986, 2911, 1587, 1029, 2245]	9	Present	NA	NA	VISUAL	0.4215641021728515	293.5257351398468	295.53358817100525	296.2337770462036	296.5837621688843	299.6894688606262	4.155880689620972	[293.5844027996063, 293.70098400115967, 294.6856679916382, 294.85230803489685, 295.6029598712921, 295.7198498249054, 295.83662390708923, 295.9533178806305, 296.0701639652252, 296.1869239807129, 296.3036689758301, 296.42058181762695, 296.5371849536896, 296.65413093566895, 296.77094984054565, 296.887512922287, 297.0045108795166, 297.1213619709015, 297.2380118370056, 297.3549449443817, 297.4716579914093, 297.68947100639343]	[293.5856009536765, 293.70226762034315, 294.68526762034315, 294.85196762034315, 295.60196762034315, 295.7186342870098, 295.8353009536765, 295.95196762034317, 296.06863428700984, 296.1853009536765, 296.3019676203432, 296.41863428700987, 296.53530095367654, 296.6519676203432, 296.7686342870099, 296.88530095367656, 297.00196762034324, 297.1186342870099, 297.2353009536766, 297.35196762034326, 297.46863428700993, 297.7019676203433]	2020_Nov_25_1213	59.87415063095986	1	1
1	50	FALSE	NA	v	['R', 'G', 'N', 'H', 'S', 'T', 'Z', 'J', 'Y', 'W', 'M', 'X', 'V', 'P', 'U', 'B']	[1587, 944, 1335, 986, 1731, 1888, 2911, 1029, 2670, 2448, 1224, 4000, 2245, 1456, 2059, 760]	12	Present	NA	NA	ABSENT	1.2350149154663086	299.648668050766	301.64979815483093	302.70042514801025	303.0502722263336	305.80583691596985	4.156038761138916	[299.7073338031769, 299.82396697998047, 300.8083918094635, 300.97521901130676, 301.725891828537, 301.8426969051361, 301.95937490463257, 302.07637000083923, 302.1930048465729, 302.30987000465393, 302.42642092704773, 302.54349303245544, 302.66017389297485, 302.7770869731903, 302.8937180042267, 303.01056385040283, 303.1273229122162, 303.24401593208313, 303.3607130050659, 303.4775199890137, 303.5776398181915, 303.80583691596985]	[299.7019676203433, 299.81863428700996, 300.80163428700996, 300.96833428700995, 301.71833428700995, 301.8350009536766, 301.9516676203433, 302.06833428701, 302.18500095367665, 302.3016676203433, 302.41833428701, 302.5350009536767, 302.65166762034335, 302.76833428701, 302.8850009536767, 303.00166762034337, 303.11833428701004, 303.2350009536767, 303.3516676203434, 303.46833428701007, 303.58500095367674, 303.8183342870101]	2020_Nov_25_1213	59.87415063095986	1	1
1	51	FALSE	AA	v	['M', 'W', 'Z', 'H', 'G', 'A', 'surprise', 'Y', 'E', 'X', 'B', 'T', 'P', 'S', 'U', 'K']	[1224, 2448, 2911, 986, 944, 697, 'stimAuditory/all_stimAuditory/123.wav', 2670, 904, 4000, 760, 1888, 1456, 1731, 2059, 1122]	10	Present	stimAuditory/all_stimAuditory/101.wav	stimVisual/all_stimVisual/222.jpg	ABSENT	1.1514599323272705	305.7544720172882	307.76593112945557	308.58339500427246	308.933363199234	311.92220282554626	4.156271696090698	[305.813138961792, 305.9301528930664, 306.91431403160095, 307.08132791519165, 307.84858894348145, 307.94868183135986, 308.0656199455261, 308.182245016098, 308.29919695854187, 308.4158580303192, 308.5493278503418, 308.6494598388672, 308.76618480682373, 308.88303089141846, 308.999881029129, 309.11661100387573, 309.2333710193634, 309.350301027298, 309.4669728279114, 309.5839250087738, 309.7003619670868, 309.92220401763916]	[305.8183342870101, 305.93500095367676, 306.91800095367677, 307.08470095367676, 307.83470095367676, 307.95136762034343, 308.0680342870101, 308.1847009536768, 308.30136762034346, 308.41803428701013, 308.5347009536768, 308.6513676203435, 308.76803428701015, 308.8847009536768, 309.0013676203435, 309.1180342870102, 309.23470095367685, 309.3513676203435, 309.4680342870102, 309.5847009536769, 309.70136762034355, 309.9347009536769]	2020_Nov_25_1213	59.87415063095986	1	1
1	52	FALSE	NA	v	['W', 'J', 'C', 'V', 'Y', 'R', 'T', 'M', 'B', 'G', 'H', 'P', 'X', 'U', 'S', 'A']	[2448, 1029, 829, 2245, 2670, 1587, 1888, 1224, 760, 944, 986, 1456, 4000, 2059, 1731, 697]	13	Present	NA	NA	VISUAL	0.23627400398254397	311.87753415107727	313.8824610710144	315.0497410297394	315.399631023407	318.0385699272156	4.156108856201172	[311.9362008571625, 312.052964925766, 313.03724193573, 313.2040729522705, 313.95469093322754, 314.0715470314026, 314.1884880065918, 314.30512380599976, 314.4221258163452, 314.5387408733368, 314.65565180778503, 314.77248883247375, 314.88921880722046, 315.0057678222656, 315.12270283699036, 315.23947286605835, 315.3562698364258, 315.47312593460083, 315.5897479057312, 315.70660495758057, 315.8234269618988, 316.0385699272156]	[311.9347009536769, 312.05136762034357, 313.0343676203436, 313.20106762034357, 313.95106762034357, 314.06773428701024, 314.1844009536769, 314.3010676203436, 314.41773428701026, 314.53440095367694, 314.6510676203436, 314.7677342870103, 314.88440095367696, 315.00106762034363, 315.1177342870103, 315.234400953677, 315.35106762034366, 315.46773428701033, 315.584400953677, 315.7010676203437, 315.81773428701035, 316.0510676203437]	2020_Nov_25_1213	59.87415063095986	1	1
1	53	FALSE	NA	v	['U', 'H', 'T', 'R', 'C', 'E', 'W', 'X', 'P', 'A', 'B', 'V', 'K', 'Z', 'G', 'M']	[2059, 986, 1888, 1587, 829, 904, 2448, 4000, 1456, 697, 760, 2245, 1122, 2911, 944, 1224]	8	Present	NA	NA	VISUAL	0.2574610710144043	318.0002861022949	319.99882912635803	320.58265209198	320.93255615234375	324.1549370288849	4.1561079025268555	[318.058954000473, 318.17560601234436, 319.14331889152527, 319.3100199699402, 320.0778138637543, 320.1944828033447, 320.31106781959534, 320.4281430244446, 320.54463386535645, 320.66155886650085, 320.77846789360046, 320.89522790908813, 321.0119528770447, 321.12863302230835, 321.24545884132385, 321.36240792274475, 321.479012966156, 321.5957598686218, 321.7126188278198, 321.81249594688416, 321.9294078350067, 322.1549370288849]	[318.0510676203437, 318.1677342870104, 319.1507342870104, 319.31743428701037, 320.06743428701037, 320.18410095367705, 320.3007676203437, 320.4174342870104, 320.53410095367707, 320.65076762034374, 320.7674342870104, 320.8841009536771, 321.00076762034377, 321.11743428701044, 321.2341009536771, 321.3507676203438, 321.46743428701046, 321.58410095367714, 321.7007676203438, 321.8174342870105, 321.93410095367716, 322.1674342870105]	2020_Nov_25_1213	59.87415063095986	1	1
1	54	FALSE	NV	v	['G', 'H', 'K', 'B', 'Z', 'J', 'T', 'P', 'A', 'Y', 'X', 'U', 'N', 'R', 'S', 'C']	[944, 986, 1122, 760, 2911, 1029, 1888, 1456, 697, 2670, 4000, 2059, 1335, 1587, 1731, 829]	11	Present	NA	NA	VISUAL	0.5661230087280273	324.1064212322235	326.1152300834656	327.0490550994873	327.39899706840515	330.2713029384613	4.1560728549957275	[324.16508889198303, 324.2817449569702, 325.2665100097656, 325.4330778121948, 326.18359088897705, 326.30050802230835, 326.4173958301544, 326.53404092788696, 326.65093302726746, 326.7676270008087, 326.8843948841095, 327.001277923584, 327.1181628704071, 327.23490285873413, 327.35153102874756, 327.4682848453522, 327.5851409435272, 327.70208287239075, 327.81867480278015, 327.93554496765137, 328.0522129535675, 328.2713038921356]	[324.1674342870105, 324.2841009536772, 325.2671009536772, 325.4338009536772, 326.1838009536772, 326.30046762034385, 326.4171342870105, 326.5338009536772, 326.6504676203439, 326.76713428701055, 326.8838009536772, 327.0004676203439, 327.1171342870106, 327.23380095367725, 327.3504676203439, 327.4671342870106, 327.58380095367727, 327.70046762034394, 327.8171342870106, 327.9338009536773, 328.05046762034397, 328.2838009536773]	2020_Nov_25_1213	59.87415063095986	1	1
1	55	FALSE	NA	v	['U', 'H', 'W', 'Y', 'Z', 'K', 'J', 'P', 'C', 'V', 'G', 'T', 'X', 'N', 'R', 'A']	[2059, 986, 2448, 2670, 2911, 1122, 1029, 1456, 829, 2245, 944, 1888, 4000, 1335, 1587, 697]	13	Present	NA	NA	VISUAL	0.32265305519104004	330.22919821739197	332.23161602020264	333.3986690044403	333.74857902526855	336.38766980171204	4.156053781509399	[330.2878658771515, 330.4046628475189, 331.38906693458557, 331.5557498931885, 332.3064579963684, 332.4233338832855, 332.5400369167328, 332.6569879055023, 332.77376890182495, 332.8904960155487, 333.0073039531708, 333.1241319179535, 333.2408528327942, 333.3576970100403, 333.474280834198, 333.59124994277954, 333.708105802536, 333.8248529434204, 333.94158697128296, 334.05827283859253, 334.175194978714, 334.3876688480377]	[330.2838009536773, 330.400467620344, 331.383467620344, 331.550167620344, 332.300167620344, 332.41683428701066, 332.53350095367733, 332.650167620344, 332.7668342870107, 332.88350095367736, 333.00016762034403, 333.1168342870107, 333.2335009536774, 333.35016762034405, 333.4668342870107, 333.5835009536774, 333.7001676203441, 333.81683428701075, 333.9335009536774, 334.0501676203441, 334.1668342870108, 334.4001676203441]	2020_Nov_25_1213	59.87415063095986	1	1
1	56	FALSE	NA	v	['S', 'Y', 'V', 'C', 'T', 'M', 'N', 'R', 'W', 'G', 'J', 'B', 'X', 'U', 'K', 'A']	[1731, 2670, 2245, 829, 1888, 1224, 1335, 1587, 2448, 944, 1029, 760, 4000, 2059, 1122, 697]	13	Present	NA	NA	VISUAL	0.2797980308532715	336.33521604537964	338.34811210632324	339.51541209220886	339.8650150299072	342.50403690338135	4.1559247970581055	[336.3938829898834, 336.51067781448364, 337.49494194984436, 337.6619279384613, 338.4293818473816, 338.5292978286743, 338.6461498737335, 338.7629849910736, 338.87968492507935, 338.99658584594727, 339.1132929325104, 339.23027992248535, 339.3469808101654, 339.4637348651886, 339.58041191101074, 339.6972498893738, 339.8141839504242, 339.93083691596985, 340.04754400253296, 340.1644299030304, 340.28118896484375, 340.50403690338135]	[336.4001676203441, 336.5168342870108, 337.4998342870108, 337.6665342870108, 338.4165342870108, 338.53320095367746, 338.64986762034414, 338.7665342870108, 338.8832009536775, 338.99986762034416, 339.11653428701084, 339.2332009536775, 339.3498676203442, 339.46653428701086, 339.58320095367753, 339.6998676203442, 339.8165342870109, 339.93320095367756, 340.04986762034423, 340.1665342870109, 340.2832009536776, 340.5165342870109]	2020_Nov_25_1213	59.87415063095986	1	1
1	57	FALSE	NN	v	['U', 'J', 'T', 'W', 'R', 'M', 'Y', 'S', 'P', 'A', 'C', 'H', 'Z', 'E', 'V', 'K']	[2059, 1029, 1888, 2448, 1587, 1224, 2670, 1731, 1456, 697, 829, 986, 2911, 904, 2245, 1122]	10	Absent	NA	NA	ABSENT	0.1723802089691162	342.4582271575928	344.46445512771606	345.281503200531	345.63146114349365	348.62040281295776	4.155947685241699	[342.5168948173523, 342.63355588912964, 343.61796402931213, 343.78489899635315, 344.53574895858765, 344.6526038646698, 344.7690329551697, 344.8859028816223, 345.0024929046631, 345.11954498291016, 345.2360599040985, 345.35305881500244, 345.4698269367218, 345.5866858959198, 345.70347690582275, 345.8202450275421, 345.9369559288025, 346.05363488197327, 346.1703679561615, 346.2873749732971, 346.40409302711487, 346.62040281295776]	[342.5165342870109, 342.6332009536776, 343.6162009536776, 343.7829009536776, 344.5329009536776, 344.64956762034427, 344.76623428701095, 344.8829009536776, 344.9995676203443, 345.11623428701097, 345.23290095367764, 345.3495676203443, 345.466234287011, 345.58290095367767, 345.69956762034434, 345.816234287011, 345.9329009536777, 346.04956762034436, 346.16623428701104, 346.2829009536777, 346.3995676203444, 346.63290095367773]	2020_Nov_25_1213	59.87415063095986	1	1
1	58	FALSE	VA	v	['H', 'V', 'U', 'C', 'surprise', 'M', 'K', 'X', 'B', 'T', 'Y', 'P', 'G', 'W', 'E', 'J']	[986, 2245, 2059, 829, 'stimAuditory/all_stimAuditory/215.wav', 1224, 1122, 4000, 760, 1888, 2670, 1456, 944, 2448, 904, 1029]	8	Present	NA	stimVisual/all_stimVisual/220.jpg	VISUAL	0.14574813842773438	348.5808951854706	350.5808091163635	351.1646571159363	351.51461005210876	354.73676896095276	4.155959844589233	[348.6395637989044, 348.7563259601593, 349.7407259941101, 349.9075508117676, 350.6581439971924, 350.77504992485046, 350.8920428752899, 351.0088188648224, 351.12555289268494, 351.2422139644623, 351.35910201072693, 351.47588992118835, 351.59264397621155, 351.70950293540955, 351.82615399360657, 351.94296884536743, 352.059623003006, 352.17666697502136, 352.2934379577637, 352.40992999076843, 352.51012802124023, 352.73676896095276]	[348.63290095367773, 348.7495676203444, 349.7325676203444, 349.8992676203444, 350.6492676203444, 350.7659342870111, 350.88260095367775, 350.9992676203444, 351.1159342870111, 351.2326009536778, 351.34926762034445, 351.4659342870111, 351.5826009536778, 351.6992676203445, 351.81593428701115, 351.9326009536778, 352.0492676203445, 352.16593428701117, 352.28260095367784, 352.3992676203445, 352.5159342870112, 352.74926762034454]	2020_Nov_25_1213	59.87415063095986	1	1
1	59	FALSE	NN	v	['M', 'T', 'R', 'N', 'C', 'W', 'H', 'S', 'G', 'V', 'A', 'E', 'Y', 'P', 'Z', 'J']	[1224, 1888, 1587, 1335, 829, 2448, 986, 1731, 944, 2245, 697, 904, 2670, 1456, 2911, 1029]	12	Absent	NA	NA	ABSENT	0.25435400009155273	354.68736505508423	356.6970410346985	357.74759101867676	358.0975511074066	360.8531370162964	4.1560959815979	[354.74603295326233, 354.8624448776245, 355.846706867218, 356.0137460231781, 356.76421093940735, 356.88124895095825, 356.99787497520447, 357.1148748397827, 357.2316098213196, 357.3484878540039, 357.46523880958557, 357.582053899765, 357.6985869407654, 357.81541180610657, 357.9320888519287, 358.0488488674164, 358.1656038761139, 358.28263783454895, 358.39932680130005, 358.516273021698, 358.63289499282837, 358.8531370162964]	[354.74926762034454, 354.8659342870112, 355.8489342870112, 356.0156342870112, 356.7656342870112, 356.8823009536779, 356.99896762034456, 357.11563428701123, 357.2323009536779, 357.3489676203446, 357.46563428701126, 357.58230095367793, 357.6989676203446, 357.8156342870113, 357.93230095367795, 358.0489676203446, 358.1656342870113, 358.282300953678, 358.39896762034465, 358.5156342870113, 358.632300953678, 358.86563428701135]	2020_Nov_25_1213	59.87415063095986	1	1
1	60	FALSE	NA	v	['R', 'E', 'Z', 'U', 'G', 'A', 'C', 'T', 'J', 'B', 'W', 'V', 'X', 'Y', 'N', 'K']	[1587, 904, 2911, 2059, 944, 697, 829, 1888, 1029, 760, 2448, 2245, 4000, 2670, 1335, 1122]	13	Present	NA	NA	VISUAL	0.2907748222351074	360.8100581169128	362.8133521080017	363.9818580150604	364.33064317703247	366.9695019721985	4.156149864196777	[360.8687279224396, 360.9850969314575, 361.96962690353394, 362.1365168094635, 362.8871009349823, 363.00388193130493, 363.12052488327026, 363.23732590675354, 363.3541078567505, 363.470999956131, 363.5877799987793, 363.70448994636536, 363.82135796546936, 363.9380979537964, 364.0550699234009, 364.1717178821564, 364.28855895996094, 364.4052298069, 364.5223739147186, 364.6390118598938, 364.75572896003723, 364.96950101852417]	[360.86563428701135, 360.982300953678, 361.965300953678, 362.132000953678, 362.882000953678, 362.9986676203447, 363.11533428701136, 363.23200095367804, 363.3486676203447, 363.4653342870114, 363.58200095367806, 363.69866762034474, 363.8153342870114, 363.9320009536781, 364.04866762034476, 364.16533428701143, 364.2820009536781, 364.3986676203448, 364.51533428701146, 364.63200095367813, 364.7486676203448, 364.98200095367815]	2020_Nov_25_1213	59.87415063095986	1	1
1	61	FALSE	NV	v	['W', 'P', 'R', 'T', 'U', 'M', 'B', 'Z', 'H', 'V', 'S', 'C', 'Y', 'X', 'J', 'N']	[2448, 1456, 1587, 1888, 2059, 1224, 760, 2911, 986, 2245, 1731, 829, 2670, 4000, 1029, 1335]	14	Present	NA	NA	VISUAL	0.2721531391143799	366.93246722221375	368.92973017692566	370.2136080265045	370.5638391971588	373.0858688354492	4.15613865852356	[366.99113392829895, 367.09125995635986, 368.0755808353424, 368.2425148487091, 369.00989294052124, 369.1098439693451, 369.22668194770813, 369.3434839248657, 369.4602608680725, 369.57684683799744, 369.6937129497528, 369.8105149269104, 369.92729783058167, 370.04411482810974, 370.160915851593, 370.27776193618774, 370.3944938182831, 370.5112838745117, 370.62799286842346, 370.74477791786194, 370.86170291900635, 371.0858688354492]	[366.98200095367815, 367.0986676203448, 368.08166762034483, 368.2483676203448, 368.9983676203448, 369.1150342870115, 369.23170095367817, 369.34836762034485, 369.4650342870115, 369.5817009536782, 369.69836762034487, 369.81503428701154, 369.9317009536782, 370.0483676203449, 370.16503428701157, 370.28170095367824, 370.3983676203449, 370.5150342870116, 370.63170095367826, 370.74836762034494, 370.8650342870116, 371.09836762034496]	2020_Nov_25_1213	59.87415063095986	1	1
1	62	FALSE	NV	v	['J', 'A', 'C', 'N', 'E', 'K', 'S', 'V', 'X', 'U', 'R', 'T', 'W', 'Z', 'B', 'H']	[1029, 697, 829, 1335, 904, 1122, 1731, 2245, 4000, 2059, 1587, 1888, 2448, 2911, 760, 986]	9	Present	NA	NA	VISUAL	0.38893699645996094	373.0385150909424	375.0461220741272	375.74667716026306	376.0967981815338	379.2022368907929	4.156114816665649	[373.0971939563751, 373.2140369415283, 374.1984848976135, 374.36525201797485, 375.11612486839294, 375.23277497291565, 375.34957003593445, 375.4663829803467, 375.58309984207153, 375.69998002052307, 375.81671500205994, 375.9334418773651, 376.0502519607544, 376.1669499874115, 376.2837829589844, 376.40038800239563, 376.5174050331116, 376.63401103019714, 376.7509059906006, 376.8677499294281, 376.9843759536743, 377.20223689079285]	[373.09836762034496, 373.21503428701163, 374.19803428701164, 374.36473428701163, 375.11473428701163, 375.2314009536783, 375.348067620345, 375.46473428701165, 375.5814009536783, 375.698067620345, 375.8147342870117, 375.93140095367835, 376.048067620345, 376.1647342870117, 376.28140095367837, 376.39806762034505, 376.5147342870117, 376.6314009536784, 376.74806762034507, 376.86473428701174, 376.9814009536784, 377.21473428701177]	2020_Nov_25_1213	59.87415063095986	1	1
1	63	FALSE	NN	v	['C', 'W', 'S', 'V', 'G', 'U', 'M', 'A', 'T', 'J', 'Z', 'Y', 'H', 'R', 'B', 'K']	[829, 2448, 1731, 2245, 944, 2059, 1224, 697, 1888, 1029, 2911, 2670, 986, 1587, 760, 1122]	8	Absent	NA	NA	ABSENT	0.194303035736084	379.1612620353699	381.162593126297	381.74644923210144	382.0963180065155	385.31860399246216	4.156010866165161	[379.219929933548, 379.33669781684875, 380.3212068080902, 380.48784589767456, 381.23871994018555, 381.35543298721313, 381.47230291366577, 381.58914494514465, 381.7058370113373, 381.8226058483124, 381.93935799598694, 382.05618596076965, 382.17319798469543, 382.28967785835266, 382.4066379070282, 382.5234258174896, 382.63990902900696, 382.7569479942322, 382.87378692626953, 382.99048590660095, 383.0904288291931, 383.31860399246216]	[379.21473428701177, 379.33140095367844, 380.31440095367844, 380.48110095367844, 381.23110095367844, 381.3477676203451, 381.4644342870118, 381.58110095367846, 381.69776762034513, 381.8144342870118, 381.9311009536785, 382.04776762034516, 382.16443428701183, 382.2811009536785, 382.3977676203452, 382.51443428701185, 382.6311009536785, 382.7477676203452, 382.8644342870119, 382.98110095367855, 383.0977676203452, 383.3311009536786]	2020_Nov_25_1213	59.87415063095986	1	1
1	64	FALSE	VA	v	['J', 'E', 'Z', 'C', 'Y', 'U', 'T', 'R', 'surprise', 'M', 'V', 'X', 'H', 'B', 'G', 'S']	[1029, 904, 2911, 829, 2670, 2059, 1888, 1587, 'stimAuditory/all_stimAuditory/207.wav', 1224, 2245, 4000, 986, 760, 944, 1731]	12	Present	NA	stimVisual/all_stimVisual/118.jpg	VISUAL	0.11866903305053712	385.26773715019226	387.2790060043335	388.3293402194977	388.6795451641083	391.4349699020386	4.155963897705078	[385.326406955719, 385.4428548812866, 386.42734479904175, 386.5939838886261, 387.3614718914032, 387.4616928100586, 387.57832288742065, 387.69515895843506, 387.81199884414673, 387.9287519454956, 388.04535698890686, 388.1621778011322, 388.2956268787384, 388.39587903022766, 388.5125160217285, 388.62930488586426, 388.746022939682, 388.86298084259033, 388.97969484329224, 389.0963559150696, 389.2133119106293, 389.4349699020386]	[385.3311009536786, 385.44776762034525, 386.43076762034525, 386.59746762034524, 387.34746762034524, 387.4641342870119, 387.5808009536786, 387.69746762034526, 387.81413428701194, 387.9308009536786, 388.0474676203453, 388.16413428701196, 388.28080095367864, 388.3974676203453, 388.514134287012, 388.63080095367866, 388.74746762034533, 388.864134287012, 388.9808009536787, 389.09746762034536, 389.21413428701203, 389.4474676203454]	2020_Nov_25_1213	59.87415063095986	1	1
1	65	FALSE	NA	v	['G', 'M', 'K', 'R', 'C', 'Z', 'V', 'J', 'W', 'X', 'E', 'B', 'A', 'N', 'S', 'H']	[944, 1224, 1122, 1587, 829, 2911, 2245, 1029, 2448, 4000, 904, 760, 697, 1335, 1731, 986]	10	Present	NA	NA	VISUAL	0.25905299186706543	391.3901970386505	393.39530205726624	394.2123310565949	394.5623571872711	397.5513370037079	4.15603494644165	[391.4488649368286, 391.56574988365173, 392.55003786087036, 392.7168548107147, 393.4674518108368, 393.58434796333313, 393.70115399360657, 393.8178789615631, 393.9346878528595, 394.0513868331909, 394.1681740283966, 394.285071849823, 394.40188694000244, 394.5187180042267, 394.6354010105133, 394.75223183631897, 394.86893486976624, 394.98564887046814, 395.10257387161255, 395.21906995773315, 395.3360469341278, 395.5513370037079]	[391.4474676203454, 391.56413428701205, 392.54713428701206, 392.71383428701205, 393.46383428701205, 393.5805009536787, 393.6971676203454, 393.81383428701207, 393.93050095367875, 394.0471676203454, 394.1638342870121, 394.28050095367877, 394.39716762034544, 394.5138342870121, 394.6305009536788, 394.74716762034546, 394.86383428701214, 394.9805009536788, 395.0971676203455, 395.21383428701216, 395.33050095367884, 395.5638342870122]	2020_Nov_25_1213	59.87415063095986	1	1
1	66	FALSE	NV	v	['K', 'A', 'S', 'J', 'E', 'Z', 'M', 'U', 'V', 'H', 'R', 'C', 'X', 'Y', 'G', 'W']	[1122, 697, 1731, 1029, 904, 2911, 1224, 2059, 2245, 986, 1587, 829, 4000, 2670, 944, 2448]	13	Present	NA	NA	VISUAL	0.13647699356079102	397.51286721229553	399.5116682052612	400.6789400577545	401.0288150310517	403.66770195961	4.156033754348755	[397.57153391838074, 397.68841195106506, 398.65581583976746, 398.82269501686096, 399.59025502204895, 399.7071158885956, 399.8239438533783, 399.94051599502563, 400.0575358867645, 400.1740219593048, 400.2909219264984, 400.4077320098877, 400.52445697784424, 400.6413629055023, 400.7578890323639, 400.8747978210449, 400.991739988327, 401.10833191871643, 401.22521901130676, 401.32520294189453, 401.44220089912415, 401.66770195961]	[397.5638342870122, 397.68050095367886, 398.66350095367886, 398.83020095367885, 399.58020095367885, 399.69686762034553, 399.8135342870122, 399.9302009536789, 400.04686762034555, 400.1635342870122, 400.2802009536789, 400.3968676203456, 400.51353428701225, 400.6302009536789, 400.7468676203456, 400.86353428701227, 400.98020095367895, 401.0968676203456, 401.2135342870123, 401.33020095367897, 401.44686762034564, 401.680200953679]	2020_Nov_25_1213	59.87415063095986	1	1
1	67	FALSE	VN	v	['C', 'T', 'A', 'M', 'P', 'N', 'B', 'W', 'Y', 'surprise', 'U', 'G', 'H', 'V', 'K', 'J']	[829, 1888, 697, 1224, 1456, 1335, 760, 2448, 2670, 'stimAuditory/all_stimAuditory/219.wav', 2059, 944, 986, 2245, 1122, 1029]	13	Absent	NA	stimVisual/all_stimVisual/212.jpg	ABSENT	0.2447450160980225	403.6190450191498	405.62814712524414	406.7951891422272	407.14514112472534	409.7840700149536	4.155922889709473	[403.67771196365356, 403.79450702667236, 404.7790780067444, 404.94566202163696, 405.6962339878082, 405.8131468296051, 405.9298298358917, 406.0465090274811, 406.1635248661041, 406.28016686439514, 406.3970699310303, 406.51369881629944, 406.6305320262909, 406.76416301727295, 406.86407995224, 406.9807758331299, 407.09775590896606, 407.21433782577515, 407.3313539028168, 407.4481189250946, 407.56496500968933, 407.7840700149536]	[403.680200953679, 403.79686762034567, 404.77986762034567, 404.94656762034566, 405.69656762034566, 405.81323428701234, 405.929900953679, 406.0465676203457, 406.16323428701236, 406.27990095367903, 406.3965676203457, 406.5132342870124, 406.62990095367905, 406.74656762034573, 406.8632342870124, 406.9799009536791, 407.09656762034575, 407.2132342870124, 407.3299009536791, 407.4465676203458, 407.56323428701245, 407.7965676203458]	2020_Nov_25_1213	59.87415063095986	1	1
1	68	FALSE	NV	v	['Z', 'C', 'A', 'T', 'K', 'B', 'G', 'V', 'N', 'R', 'U', 'H', 'Y', 'X', 'J', 'W']	[2911, 829, 697, 1888, 1122, 760, 944, 2245, 1335, 1587, 2059, 986, 2670, 4000, 1029, 2448]	14	Present	NA	NA	VISUAL	0.29754090309143066	409.7419512271881	411.74438214302063	413.02845001220703	413.3780100345611	415.90043687820435	4.156054735183716	[409.80061888694763, 409.917279958725, 410.90147590637207, 411.0684130191803, 411.8190050125122, 411.9357068538666, 412.0528118610382, 412.169380903244, 412.28623390197754, 412.40298986434937, 412.51975893974304, 412.6364498138428, 412.75322794914246, 412.8702290058136, 412.98682594299316, 413.1038269996643, 413.22052001953125, 413.3372178077698, 413.45411491394043, 413.57071900367737, 413.6877408027649, 413.90043687820435]	[409.7965676203458, 409.9132342870125, 410.8962342870125, 411.06293428701247, 411.81293428701247, 411.92960095367914, 412.0462676203458, 412.1629342870125, 412.27960095367916, 412.39626762034584, 412.5129342870125, 412.6296009536792, 412.74626762034586, 412.86293428701254, 412.9796009536792, 413.0962676203459, 413.21293428701256, 413.32960095367923, 413.4462676203459, 413.5629342870126, 413.67960095367926, 413.9129342870126]	2020_Nov_25_1213	59.87415063095986	1	1
1	69	FALSE	NV	v	['B', 'C', 'P', 'W', 'J', 'N', 'U', 'Z', 'X', 'Y', 'S', 'H', 'K', 'M', 'V', 'E']	[760, 829, 1456, 2448, 1029, 1335, 2059, 2911, 4000, 2670, 1731, 986, 1122, 1224, 2245, 904]	9	Present	NA	NA	VISUAL	0.19083499908447263	415.8479862213135	417.86058616638184	418.5613691806793	418.9112000465393	422.01680397987366	4.156217813491821	[415.906653881073, 416.02321791648865, 417.00768399238586, 417.1743278503418, 417.941636800766, 418.04177689552307, 418.15859484672546, 418.2753939628601, 418.39218401908875, 418.5091688632965, 418.62562894821167, 418.74242401123047, 418.859347820282, 418.9762258529663, 419.0930359363556, 419.2098548412323, 419.32661485671997, 419.4434509277344, 419.5600960254669, 419.6766378879547, 419.7937319278717, 420.01680302619934]	[415.9129342870126, 416.0296009536793, 417.0126009536793, 417.1793009536793, 417.9293009536793, 418.04596762034595, 418.1626342870126, 418.2793009536793, 418.39596762034597, 418.51263428701265, 418.6293009536793, 418.745967620346, 418.86263428701267, 418.97930095367934, 419.095967620346, 419.2126342870127, 419.32930095367936, 419.44596762034604, 419.5626342870127, 419.6793009536794, 419.79596762034606, 420.0293009536794]	2020_Nov_25_1213	59.87415063095986	1	1
1	70	FALSE	NV	v	['J', 'G', 'N', 'W', 'C', 'P', 'H', 'B', 'Y', 'K', 'R', 'Z', 'X', 'A', 'T', 'E']	[1029, 944, 1335, 2448, 829, 1456, 986, 760, 2670, 1122, 1587, 2911, 4000, 697, 1888, 904]	13	Present	NA	NA	VISUAL	0.37140917778015137	421.9704830646515	423.9772341251374	425.1442232131958	425.4942171573639	428.13316893577576	4.155934810638428	[422.0291509628296, 422.14627385139465, 423.1303219795227, 423.29725790023804, 424.04785895347595, 424.1646659374237, 424.28142786026, 424.3983910083771, 424.5151119232178, 424.6319499015808, 424.74875593185425, 424.8653688430786, 424.9822669029236, 425.09879994392395, 425.2158958911896, 425.3324329853058, 425.4496569633484, 425.56597685813904, 425.6829159259796, 425.79980993270874, 425.9165358543396, 426.1331698894501]	[422.0293009536794, 422.1459676203461, 423.1289676203461, 423.2956676203461, 424.0456676203461, 424.16233428701275, 424.27900095367943, 424.3956676203461, 424.5123342870128, 424.62900095367945, 424.7456676203461, 424.8623342870128, 424.9790009536795, 425.09566762034615, 425.2123342870128, 425.3290009536795, 425.44566762034617, 425.56233428701285, 425.6790009536795, 425.7956676203462, 425.91233428701287, 426.1456676203462]	2020_Nov_25_1213	59.87415063095986	1	1
1	71	FALSE	NV	v	['Y', 'U', 'P', 'B', 'E', 'M', 'W', 'Z', 'G', 'X', 'H', 'T', 'S', 'K', 'J', 'V']	[2670, 2059, 1456, 760, 904, 1224, 2448, 2911, 944, 4000, 986, 1888, 1731, 1122, 1029, 2245]	10	Present	NA	NA	VISUAL	0.15270113945007324	428.0932931900024	430.09354400634766	430.9109721183777	431.2605121135712	434.2495357990265	4.155991792678833	[428.1519618034363, 428.2686059474945, 429.2529489994049, 429.4198188781738, 430.170667886734, 430.2874708175659, 430.4042408466339, 430.5210328102112, 430.6377840042114, 430.75463795661926, 430.8712558746338, 430.9882609844208, 431.10506200790405, 431.22173285484314, 431.3385078907013, 431.45529198646545, 431.5720388889313, 431.6888599395752, 431.80555391311646, 431.9224808216095, 432.0224950313568, 432.2495369911194]	[428.1456676203462, 428.2623342870129, 429.2453342870129, 429.4120342870129, 430.1620342870129, 430.27870095367956, 430.39536762034624, 430.5120342870129, 430.6287009536796, 430.74536762034626, 430.86203428701293, 430.9787009536796, 431.0953676203463, 431.21203428701295, 431.32870095367963, 431.4453676203463, 431.562034287013, 431.67870095367965, 431.7953676203463, 431.912034287013, 432.0287009536797, 432.262034287013]	2020_Nov_25_1213	59.87415063095986	1	1
1	72	FALSE	NA	v	['V', 'W', 'H', 'P', 'B', 'A', 'S', 'M', 'X', 'Y', 'N', 'G', 'J', 'R', 'C', 'K']	[2245, 2448, 986, 1456, 760, 697, 1731, 1224, 4000, 2670, 1335, 944, 1029, 1587, 829, 1122]	9	Present	NA	NA	VISUAL	0.26129794120788574	434.1993601322174	436.2101111412048	436.91033816337585	437.2605981826782	440.3659029006958	4.155791759490967	[434.2580280303955, 434.3749499320984, 435.3593199253082, 435.5263319015503, 436.27658891677856, 436.393590927124, 436.51031398773193, 436.62720489501953, 436.74385380744934, 436.860711812973, 436.97744488716125, 437.0941848754883, 437.2110788822174, 437.3278458118439, 437.44469380378723, 437.56124901771545, 437.678190946579, 437.7950098514557, 437.91173791885376, 438.0283579826355, 438.14517092704773, 438.3659019470215]	[434.262034287013, 434.3787009536797, 435.3617009536797, 435.5284009536797, 436.2784009536797, 436.39506762034637, 436.51173428701304, 436.6284009536797, 436.7450676203464, 436.86173428701306, 436.97840095367974, 437.0950676203464, 437.2117342870131, 437.32840095367976, 437.44506762034644, 437.5617342870131, 437.6784009536798, 437.79506762034646, 437.91173428701313, 438.0284009536798, 438.1450676203465, 438.37840095367983]	2020_Nov_25_1213	59.87415063095986	1	1
1	73	FALSE	NV	v	['H', 'Y', 'R', 'K', 'W', 'B', 'M', 'P', 'A', 'S', 'E', 'C', 'J', 'X', 'V', 'U']	[986, 2670, 1587, 1122, 2448, 760, 1224, 1456, 697, 1731, 904, 829, 1029, 4000, 2245, 2059]	14	Present	NA	NA	VISUAL	0.27383899688720703	440.322124004364	442.3261480331421	443.6104240417481	443.9599311351776	446.4822688102722	4.156120777130127	[440.38079285621643, 440.49753880500793, 441.48181796073914, 441.6487729549408, 442.39950299263, 442.5162019729614, 442.6330578327179, 442.7497909069061, 442.86670994758606, 442.98351883888245, 443.10024094581604, 443.216845035553, 443.3338758945465, 443.450572013855, 443.5671708583832, 443.6841778755188, 443.8008439540863, 443.9177198410034, 444.0344498157501, 444.15125799179077, 444.26799988746643, 444.4822700023651]	[440.37840095367983, 440.4950676203465, 441.4780676203465, 441.6447676203465, 442.3947676203465, 442.5114342870132, 442.62810095367985, 442.7447676203465, 442.8614342870132, 442.97810095367987, 443.09476762034654, 443.2114342870132, 443.3281009536799, 443.44476762034657, 443.56143428701324, 443.6781009536799, 443.7947676203466, 443.91143428701326, 444.02810095367994, 444.1447676203466, 444.2614342870133, 444.49476762034664]	2020_Nov_25_1213	59.87415063095986	1	1
1	74	FALSE	VA	v	['R', 'K', 'B', 'P', 'U', 'M', 'T', 'surprise', 'W', 'E', 'X', 'J', 'N', 'Y', 'Z', 'C']	[1587, 1122, 760, 1456, 2059, 1224, 1888, 'stimAuditory/all_stimAuditory/211.wav', 2448, 904, 4000, 1029, 1335, 2670, 2911, 829]	11	Present	NA	stimVisual/all_stimVisual/204.jpg	VISUAL	0.3591170310974121	446.4453310966492	448.44277119636536	449.3763701915741	449.7262990474701	452.59863591194153	4.155864715576172	[446.5039978027344, 446.60351395606995, 447.5878129005432, 447.7547719478607, 448.52218794822693, 448.6393759250641, 448.7558608055115, 448.87265181541443, 448.9894788265228, 449.10634899139404, 449.20619797706604, 449.33980894088745, 449.4397258758545, 449.5564458370209, 449.67325592041016, 449.7900528907776, 449.9068818092346, 450.0236918926239, 450.1404559612274, 450.25720381736755, 450.37423491477966, 450.59863686561584]	[446.49476762034664, 446.6114342870133, 447.5944342870133, 447.7611342870133, 448.5111342870133, 448.62780095368, 448.74446762034665, 448.86113428701333, 448.97780095368, 449.0944676203467, 449.21113428701335, 449.32780095368, 449.4444676203467, 449.5611342870134, 449.67780095368005, 449.7944676203467, 449.9111342870134, 450.02780095368007, 450.14446762034675, 450.2611342870134, 450.3778009536801, 450.61113428701344]	2020_Nov_25_1213	59.87415063095986	1	1
1	75	FALSE	NN	v	['R', 'Z', 'V', 'J', 'Y', 'U', 'B', 'M', 'W', 'S', 'A', 'H', 'E', 'K', 'P', 'T']	[1587, 2911, 2245, 1029, 2670, 2059, 760, 1224, 2448, 1731, 697, 986, 904, 1122, 1456, 1888]	11	Absent	NA	NA	ABSENT	0.38755083084106445	452.5510311126709	454.5589292049408	455.4928500652313	455.8427560329437	458.7150030136109	4.156073808670044	[452.6096978187561, 452.72651195526123, 453.7108678817749, 453.8775978088379, 454.62835597991943, 454.7452688217163, 454.8620038032532, 454.9785330295563, 455.0955469608307, 455.2121949195862, 455.32910799980164, 455.44574999809265, 455.56253480911255, 455.67945194244385, 455.79621601104736, 455.9129319190979, 456.0295629501343, 456.1464560031891, 456.26321601867676, 456.38008999824524, 456.4972770214081, 456.71500396728516]	[452.61113428701344, 452.7278009536801, 453.7108009536801, 453.8775009536801, 454.6275009536801, 454.7441676203468, 454.86083428701346, 454.97750095368013, 455.0941676203468, 455.2108342870135, 455.32750095368016, 455.44416762034683, 455.5608342870135, 455.6775009536802, 455.79416762034685, 455.91083428701353, 456.0275009536802, 456.1441676203469, 456.26083428701355, 456.3775009536802, 456.4941676203469, 456.72750095368025]	2020_Nov_25_1213	59.87415063095986	1	1
1	76	FALSE	NV	v	['K', 'S', 'P', 'V', 'G', 'Y', 'N', 'C', 'W', 'J', 'T', 'X', 'U', 'H', 'E', 'B']	[1122, 1731, 1456, 2245, 944, 2670, 1335, 829, 2448, 1029, 1888, 4000, 2059, 986, 904, 760]	12	Present	NA	NA	VISUAL	0.24104905128479004	458.67385506629944	460.6755011081696	461.7263672351837	462.07630610466	464.8313698768616	4.155868768692017	[458.7325220108032, 458.84925985336304, 459.83349990844727, 460.00053191185, 460.75110602378845, 460.8680078983307, 460.9845778942108, 461.1014919281006, 461.2181730270386, 461.3349769115448, 461.4519188404083, 461.56846499443054, 461.6852958202362, 461.80217480659485, 461.9188868999481, 462.0357918739319, 462.1527178287506, 462.26944184303284, 462.38591289520264, 462.5028169155121, 462.6028690338135, 462.8313698768616]	[458.72750095368025, 458.8441676203469, 459.8271676203469, 459.9938676203469, 460.7438676203469, 460.8605342870136, 460.97720095368027, 461.09386762034694, 461.2105342870136, 461.3272009536803, 461.44386762034696, 461.56053428701364, 461.6772009536803, 461.793867620347, 461.91053428701366, 462.02720095368034, 462.143867620347, 462.2605342870137, 462.37720095368036, 462.49386762034703, 462.6105342870137, 462.84386762034705]	2020_Nov_25_1213	59.87415063095986	1	1
1	77	FALSE	VV	v	['K', 'W', 'N', 'A', 'R', 'C', 'V', 'S', 'G', 'surprise', 'Z', 'U', 'X', 'B', 'P', 'T']	[1122, 2448, 1335, 697, 1587, 829, 2245, 1731, 944, 'stimAuditory/all_stimAuditory/122.wav', 2911, 2059, 4000, 760, 1456, 1888]	13	Present	NA	stimVisual/all_stimVisual/150.jpg	ABSENT	0.3337550163269043	464.7798011302948	466.7917311191559	467.9590060710907	468.3090031147003	470.9477369785309	4.156005859375	[464.8384690284729, 464.9554018974304, 465.93971991539, 466.1064748764038, 466.8742718696594, 466.9739308357239, 467.0906460285187, 467.20753598213196, 467.3244318962097, 467.4412338733673, 467.55797481536865, 467.6745789051056, 467.7914328575134, 467.9250168800354, 468.025022983551, 468.141685962677, 468.25867080688477, 468.3752818107605, 468.49224400520325, 468.60895800590515, 468.72586703300476, 468.94773602485657]	[464.84386762034705, 464.96053428701373, 465.94353428701373, 466.1102342870137, 466.8602342870137, 466.9769009536804, 467.0935676203471, 467.21023428701375, 467.3269009536804, 467.4435676203471, 467.56023428701377, 467.67690095368044, 467.7935676203471, 467.9102342870138, 468.02690095368047, 468.14356762034714, 468.2602342870138, 468.3769009536805, 468.49356762034716, 468.61023428701384, 468.7269009536805, 468.96023428701386]	2020_Nov_25_1213	59.87415063095986	1	1
1	78	FALSE	NN	v	['C', 'V', 'T', 'Z', 'J', 'A', 'Y', 'S', 'E', 'B', 'N', 'U', 'R', 'H', 'M', 'K']	[829, 2245, 1888, 2911, 1029, 697, 2670, 1731, 904, 760, 1335, 2059, 1587, 986, 1224, 1122]	13	Absent	NA	NA	ABSENT	0.425961971282959	470.9027101993561	472.9082090854645	474.0756521224976	474.42515420913696	477.064101934433	4.155892848968506	[470.9613778591156, 471.07815194129944, 472.06238293647766, 472.2292859554291, 472.9800639152527, 473.09669399261475, 473.2136240005493, 473.33030891418457, 473.4471688270569, 473.56390595436096, 473.68056297302246, 473.7975080013275, 473.9143979549408, 474.0310568809509, 474.14764380455017, 474.26452803611755, 474.38142800331116, 474.49811482429504, 474.6149218082428, 474.73175597190857, 474.8483989238739, 475.064101934433]	[470.96023428701386, 471.07690095368054, 472.05990095368054, 472.22660095368053, 472.97660095368053, 473.0932676203472, 473.2099342870139, 473.32660095368055, 473.4432676203472, 473.5599342870139, 473.6766009536806, 473.79326762034725, 473.9099342870139, 474.0266009536806, 474.1432676203473, 474.25993428701395, 474.3766009536806, 474.4932676203473, 474.60993428701397, 474.72660095368065, 474.8432676203473, 475.07660095368067]	2020_Nov_25_1213	59.87415063095986	1	1
1	79	FALSE	NV	v	['G', 'B', 'S', 'T', 'Z', 'H', 'P', 'C', 'U', 'J', 'X', 'W', 'V', 'M', 'K', 'Y']	[944, 760, 1731, 1888, 2911, 986, 1456, 829, 2059, 1029, 4000, 2448, 2245, 1224, 1122, 2670]	11	Present	NA	NA	ABSENT	0.7274019718170166	477.025621175766	479.0245652198791	479.9581301212311	480.3082151412964	483.1804699897766	4.155904769897461	[477.0842900276184, 477.200856924057, 478.16837191581726, 478.3352508544922, 479.10283398628235, 479.2195680141449, 479.3363859653473, 479.4530358314514, 479.56966495513916, 479.68673491477966, 479.8033139705658, 479.9203100204468, 480.03706789016724, 480.1539099216461, 480.2707498073578, 480.3874008655548, 480.5040500164032, 480.6209759712219, 480.737646818161, 480.8544888496399, 480.95448088645935, 481.1804690361023]	[477.07660095368067, 477.19326762034734, 478.17626762034735, 478.34296762034734, 479.09296762034734, 479.209634287014, 479.3263009536807, 479.44296762034736, 479.55963428701403, 479.6763009536807, 479.7929676203474, 479.90963428701406, 480.02630095368073, 480.1429676203474, 480.2596342870141, 480.37630095368075, 480.49296762034743, 480.6096342870141, 480.7263009536808, 480.84296762034745, 480.9596342870141, 481.1929676203475]	2020_Nov_25_1213	59.87415063095986	1	1
