participant	trial_num	practice	task	condition	RSVP	RAP	probePos	probe_presence	surprise_sound	surprise_img	probe_response	probe_resp_time	first_fixation_time	trial_start_time	surprise_start_time	probe_start_time	trial_end_time	trial_duration	actualEventTimes	plannedEventTimes	date	framerate	marker_vol	RAP_vol
1	1	FALSE	NN	a	['W', 'A', 'B', 'T', 'U', 'N', 'P', 'R', 'Y', 'C', 'S', 'H', 'J', 'M', 'E', 'Z']	[2448, 697, 760, 1888, 2059, 1335, 1456, 1587, 2670, 829, 1731, 986, 1029, 1224, 904, 2911]	12	Absent	NA	NA	ABSENT	0.06594514846801758	1.9073486328125e-6	1.973114013671875	3.023124027192197	3.37312593452083	6.103869915008545	4.13075590133667	[0.03677701950073242, 0.12013792991638184, 1.0871961116790771, 1.2711710929870605, 2.021946907043457, 2.138719081878662, 2.2554590702056885, 2.3724119663238525, 2.4891819953918457, 2.6058990955352783, 2.7228240966796875, 2.8396880626678467, 2.9562909603118896, 3.0732479095458984, 3.1897149085998535, 3.3066320419311523, 3.4234540462493896, 3.5402450561523438, 3.6571109294891357, 3.7739059925079346, 3.8906118869781494, 4.103869915008545]	[9.5367431640625e-07, 0.11666762033431641, 1.0996676203343163, 1.2663676203343164, 2.016367620334316, 2.133034286994316, 2.249700953654316, 2.3663676203143162, 2.4830342869743163, 2.5997009536343163, 2.7163676202943163, 2.8330342869543164, 2.9497009536143164, 3.0663676202743164, 3.1830342869343164, 3.2997009535943165, 3.4163676202543165, 3.5330342869143165, 3.6497009535743166, 3.7663676202343166, 3.8830342868943166, 4.11636762022765]	2020_Nov_25_1235	59.79971257157196	1	0.375
1	2	FALSE	NV	a	['Y', 'G', 'T', 'M', 'E', 'H', 'P', 'X', 'N', 'B', 'J', 'Z', 'A', 'U', 'S', 'W']	[2670, 944, 1888, 1224, 904, 986, 1456, 4000, 1335, 760, 1029, 2911, 697, 2059, 1731, 2448]	8	Present	NA	NA	AUDITORY	0.17525410652160645	6.072685956954956	8.086384057998657	8.669724305437452	9.019726212766084	12.220237016677856	4.133852958679199	[6.109460115432739, 6.226238965988159, 7.20356011390686, 7.377456903457642, 8.128159046173096, 8.245201110839844, 8.361895084381104, 8.47854208946228, 8.595480918884277, 8.712372064590454, 8.829102039337158, 8.945766925811768, 9.062697887420654, 9.179399967193604, 9.29635500907898, 9.41323208808899, 9.529776096343994, 9.646605968475342, 9.763422012329102, 9.880089044570923, 9.996778964996338, 10.220237016677856]	[6.11636762022765, 6.23303428688765, 7.216034286887649, 7.382734286887649, 8.132734286887649, 8.24940095354765, 8.36606762020765, 8.48273428686765, 8.59940095352765, 8.716067620187651, 8.832734286847652, 8.949400953507652, 9.066067620167653, 9.182734286827653, 9.299400953487654, 9.416067620147654, 9.532734286807655, 9.649400953467655, 9.766067620127656, 9.882734286787656, 9.999400953447656, 10.232734286780989]	2020_Nov_25_1235	59.79971257157196	1	0.375
1	3	FALSE	NN	a	['S', 'J', 'R', 'Y', 'B', 'M', 'C', 'Z', 'A', 'E', 'V', 'H', 'G', 'W', 'K', 'T']	[1731, 1029, 1587, 2670, 760, 1224, 829, 2911, 697, 904, 2245, 986, 944, 2448, 1122, 1888]	10	Absent	NA	NA	ABSENT	0.28385210037231445	12.19591188430786	14.202574014663696	15.019248549096806	15.369250694844018	18.336601972579956	4.13402795791626	[12.232686042785645, 12.349241971969604, 13.319926023483276, 13.500612020492554, 14.25124192237854, 14.368104934692383, 14.485065937042236, 14.601988077163696, 14.71831488609314, 14.835347890853882, 14.952111005783081, 15.068908929824829, 15.185494899749756, 15.30236291885376, 15.419153928756714, 15.536123037338257, 15.652910947799683, 15.769618034362793, 15.886260032653809, 16.003149032592773, 16.119883060455322, 16.336601972579956]	[12.232734286780989, 12.34940095344099, 13.33240095344099, 13.49910095344099, 14.24910095344099, 14.365767620100991, 14.482434286760991, 14.599100953420992, 14.715767620080992, 14.832434286740993, 14.949100953400993, 15.065767620060994, 15.182434286720994, 15.299100953380995, 15.415767620040995, 15.532434286700996, 15.649100953360996, 15.765767620020997, 15.882434286680997, 15.999100953340998, 16.115767620000998, 16.349100953334332]	2020_Nov_25_1235	59.79971257157196	1	0.375
1	4	FALSE	VA	a	['V', 'Z', 'R', 'W', 'S', 'B', 'surprise', 'C', 'K', 'X', 'H', 'M', 'A', 'E', 'Y', 'N']	[2245, 2911, 1587, 2448, 1731, 760, 'stimAuditory/all_stimAuditory/123.wav', 829, 1122, 4000, 986, 1224, 697, 904, 2670, 1335]	10	Present	NA	NA	ABSENT	0.6251311302185059	18.318933963775635	20.318938970565796	21.13561255132459	21.48561565074612	24.452970027923584	4.134031057357788	[18.35572910308838, 18.4725399017334, 19.43629288673401, 19.62387990951538, 20.374535083770752, 20.474272966384888, 20.591052055358887, 20.707881927490234, 20.824690103530884, 20.94146704673767, 21.05825901031494, 21.174981117248535, 21.291752099990845, 21.40861201286316, 21.525387048721313, 21.64217495918274, 21.759170055389404, 21.875860929489136, 21.992563009262085, 22.10945701599121, 22.22608494758606, 22.452969074249268]	[18.349100953334332, 18.46576761999433, 19.44876761999433, 19.61546761999433, 20.36546761999433, 20.48213428665433, 20.598800953314328, 20.715467619974326, 20.832134286634325, 20.948800953294324, 21.065467619954322, 21.18213428661432, 21.29880095327432, 21.41546761993432, 21.532134286594317, 21.648800953254316, 21.765467619914315, 21.882134286574313, 21.998800953234312, 22.11546761989431, 22.23213428655431, 22.465467619887644]	2020_Nov_25_1235	59.79971257157196	1	0.375
1	5	FALSE	NN	a	['G', 'N', 'Z', 'S', 'E', 'V', 'R', 'M', 'H', 'A', 'C', 'J', 'U', 'B', 'K', 'T']	[944, 1335, 2911, 1731, 904, 2245, 1587, 1224, 986, 697, 829, 1029, 2059, 760, 1122, 1888]	9	Absent	NA	NA	ABSENT	0.2937479019165039	24.42513394355774	26.435235023498535	27.13524193759733	27.485245037018856	30.569336891174316	4.134101867675781	[24.46190905570984, 24.57852792739868, 25.552660942077637, 25.729976892471313, 26.480456113815308, 26.597322940826416, 26.71416211128235, 26.8310809135437, 26.94789695739746, 27.064549922943115, 27.181315898895264, 27.298152923583984, 27.414885997772217, 27.531596899032593, 27.648550033569336, 27.76537299156189, 27.88198709487915, 27.99894094467163, 28.115588903427124, 28.232605934143066, 28.349159002304077, 28.569338083267212]	[24.465467619887644, 24.582134286547642, 25.565134286547643, 25.73183428654764, 26.48183428654764, 26.59850095320764, 26.71516761986764, 26.831834286527638, 26.948500953187636, 27.065167619847635, 27.181834286507634, 27.298500953167633, 27.41516761982763, 27.53183428648763, 27.64850095314763, 27.765167619807627, 27.881834286467626, 27.998500953127625, 28.115167619787623, 28.231834286447622, 28.34850095310762, 28.581834286440955]	2020_Nov_25_1235	59.79971257157196	1	0.375
1	6	FALSE	NV	a	['E', 'Y', 'S', 'A', 'W', 'M', 'V', 'U', 'R', 'P', 'Z', 'K', 'T', 'X', 'H', 'G']	[904, 2670, 1731, 697, 2448, 1224, 2245, 2059, 1587, 1456, 2911, 1122, 1888, 4000, 986, 944]	14	Present	NA	NA	AUDITORY	0.21817302703857425	30.548552989959717	32.55159091949463	33.834931405312005	34.18493331264064	36.68570399284363	4.134113073348999	[30.58532691001892, 30.701853036880493, 31.669027090072632, 31.852866888046265, 32.6037220954895, 32.72047710418701, 32.83720588684082, 32.95406794548035, 33.07085204124451, 33.18771290779114, 33.304322957992554, 33.42137598991394, 33.53803896903992, 33.65478801727295, 33.77166795730591, 33.88840389251709, 34.00503706932068, 34.12197399139404, 34.2388219833374, 34.35549592971802, 34.47234606742859, 34.68570303916931]	[30.581834286440955, 30.698500953100954, 31.681500953100954, 31.848200953100953, 32.59820095310096, 32.71486761976096, 32.83153428642096, 32.94820095308096, 33.064867619740966, 33.18153428640097, 33.29820095306097, 33.41486761972097, 33.531534286380975, 33.64820095304098, 33.76486761970098, 33.88153428636098, 33.998200953020984, 34.114867619680986, 34.23153428634099, 34.34820095300099, 34.46486761966099, 34.69820095299433]	2020_Nov_25_1235	59.79971257157196	1	0.375
1	7	FALSE	NN	a	['W', 'S', 'K', 'Y', 'V', 'E', 'G', 'M', 'H', 'C', 'J', 'N', 'Z', 'A', 'U', 'B']	[2448, 1731, 1122, 2670, 2245, 904, 944, 1224, 986, 829, 1029, 1335, 2911, 697, 2059, 760]	14	Absent	NA	NA	ABSENT	0.31158900260925293	36.65436792373657	38.668116092681885	39.951457293755	40.30145920108363	42.80206894874573	4.133952856063843	[36.691142082214355, 36.80793595314026, 37.785393953323364, 37.95930194854736, 38.709877014160156, 38.82673501968384, 38.943711042404175, 39.060287952423096, 39.17719101905823, 39.293822050094604, 39.41069507598877, 39.527374029159546, 39.644365072250366, 39.76097297668457, 39.877923011779785, 39.994596004486084, 40.11157298088074, 40.228249073028564, 40.345134973526, 40.46221899986267, 40.57863998413086, 40.80206894874573]	[36.69820095299433, 36.81486761965433, 37.797867619654326, 37.964567619654325, 38.714567619654325, 38.83123428631433, 38.94790095297433, 39.06456761963433, 39.181234286294334, 39.297900952954336, 39.41456761961434, 39.53123428627434, 39.64790095293434, 39.764567619594345, 39.88123428625435, 39.99790095291435, 40.11456761957435, 40.231234286234354, 40.347900952894356, 40.46456761955436, 40.58123428621436, 40.814567619547695]	2020_Nov_25_1235	59.79971257157196	1	0.375
1	8	FALSE	NV	a	['U', 'B', 'W', 'N', 'T', 'R', 'P', 'Y', 'X', 'H', 'Z', 'G', 'V', 'J', 'E', 'C']	[2059, 760, 2448, 1335, 1888, 1587, 1456, 2670, 4000, 986, 2911, 944, 2245, 1029, 904, 829]	9	Present	NA	NA	AUDITORY	0.06009697914123535	42.77743887901306	44.784425020217896	45.484432887991005	45.83443503373822	48.918437004089355	4.13401198387146	[42.814213037490845, 42.93107295036316, 43.901758909225464, 44.08225703239441, 44.83302187919617, 44.94978308677673, 45.066678047180176, 45.183428049087524, 45.300190925598145, 45.41694498062134, 45.53359389305115, 45.650508880615234, 45.76720190048218, 45.88403296470642, 46.00093388557434, 46.11776399612427, 46.23453402519226, 46.35136604309082, 46.4680380821228, 46.58486604690552, 46.701695919036865, 46.91843605041504]	[42.814567619547695, 42.9312342862077, 43.914234286207694, 44.08093428620769, 44.83093428620769, 44.947600952867695, 45.0642676195277, 45.1809342861877, 45.2976009528477, 45.414267619507704, 45.53093428616771, 45.64760095282771, 45.76426761948771, 45.88093428614771, 45.997600952807716, 46.11426761946772, 46.23093428612772, 46.34760095278772, 46.464267619447725, 46.58093428610773, 46.69760095276773, 46.93093428610106]	2020_Nov_25_1235	59.79971257157196	1	0.375
1	9	FALSE	NA	a	['B', 'V', 'P', 'N', 'Z', 'C', 'A', 'G', 'W', 'X', 'J', 'M', 'H', 'Y', 'K', 'T']	[760, 2245, 1456, 1335, 2911, 829, 697, 944, 2448, 4000, 1029, 1224, 986, 2670, 1122, 1888]	10	Present	NA	NA	ABSENT	0.5052659511566162	48.90055799484253	50.90074110031128	51.71741563474439	52.067417542073024	55.03480291366577	4.134061813354492	[48.93733191490173, 49.05406188964844, 50.018129110336304, 50.2053599357605, 50.95630502700806, 51.072678089141846, 51.172688007354736, 51.28948402404785, 51.40630388259888, 51.52314591407776, 51.639909982681274, 51.756694078445435, 51.87349891662598, 51.99027991294861, 52.10707497596741, 52.223877906799316, 52.340670108795166, 52.45746207237244, 52.57425808906555, 52.69121599197388, 52.80798888206482, 53.034801959991455]	[48.93093428610106, 49.047600952761066, 50.03060095276106, 50.19730095276106, 50.94730095276106, 51.063967619421064, 51.180634286081066, 51.29730095274107, 51.41396761940107, 51.53063428606107, 51.647300952721075, 51.76396761938108, 51.88063428604108, 51.99730095270108, 52.113967619361084, 52.230634286021086, 52.34730095268109, 52.46396761934109, 52.58063428600109, 52.697300952661095, 52.8139676193211, 53.04730095265443]	2020_Nov_25_1235	59.79971257157196	1	0.375
1	10	FALSE	NV	a	['V', 'M', 'A', 'E', 'U', 'N', 'G', 'K', 'Z', 'X', 'P', 'C', 'J', 'H', 'T', 'B']	[2245, 1224, 697, 904, 2059, 1335, 944, 1122, 2911, 4000, 1456, 829, 1029, 986, 1888, 760]	10	Present	NA	NA	AUDITORY	0.04585695266723633	55.006913900375366	57.01716208457947	57.83383661901258	58.18383876475979	61.15116906166077	4.134006977081299	[55.04368805885315, 55.160325050354004, 56.13449311256409, 56.31170296669006, 57.06232404708862, 57.17913198471069, 57.29604697227478, 57.41278910636902, 57.529489040374756, 57.646267890930176, 57.7629280090332, 57.8798930644989, 57.99666690826416, 58.11366391181946, 58.23016095161438, 58.346965074539185, 58.46374201774597, 58.58055090904236, 58.6973819732666, 58.814218044281006, 58.93079209327698, 59.15117001533508]	[55.04730095265443, 55.163967619314434, 56.14696761931443, 56.31366761931443, 57.06366761931443, 57.18033428597443, 57.297000952634434, 57.413667619294436, 57.53033428595444, 57.64700095261444, 57.76366761927444, 57.880334285934445, 57.99700095259445, 58.11366761925445, 58.23033428591445, 58.347000952574454, 58.46366761923446, 58.58033428589446, 58.69700095255446, 58.81366761921446, 58.930334285874466, 59.1636676192078]	2020_Nov_25_1235	59.79971257157196	1	0.375
1	11	FALSE	NA	a	['C', 'J', 'E', 'A', 'B', 'R', 'H', 'V', 'G', 'Y', 'S', 'T', 'X', 'N', 'U', 'P']	[829, 1029, 904, 697, 760, 1587, 986, 2245, 944, 2670, 1731, 1888, 4000, 1335, 2059, 1456]	13	Present	NA	NA	AUDITORY	0.1225738525390625	61.12998390197754	63.13338899612427	64.30006376895595	64.65006567628458	67.2675359249115	4.1341469287872314	[61.16675806045532, 61.28333902359009, 62.2508590221405, 62.434667110443115, 63.18526911735535, 63.30215406417847, 63.418895959854126, 63.535834074020386, 63.65257000923157, 63.7693190574646, 63.88591289520264, 64.00293707847595, 64.11960196495056, 64.23651003837585, 64.35331988334656, 64.47001004219055, 64.5866858959198, 64.70371603965759, 64.82038497924805, 64.93704795837402, 65.0539710521698, 65.2675359249115]	[61.1636676192078, 61.2803342858678, 62.2633342858678, 62.4300342858678, 63.1800342858678, 63.2967009525278, 63.4133676191878, 63.530034285847805, 63.64670095250781, 63.76336761916781, 63.88003428582781, 63.996700952487814, 64.11336761914781, 64.2300342858078, 64.3467009524678, 64.4633676191278, 64.58003428578779, 64.69670095244778, 64.81336761910778, 64.93003428576777, 65.04670095242777, 65.2800342857611]	2020_Nov_25_1235	59.79971257157196	1	0.375
1	12	FALSE	NN	a	['T', 'W', 'M', 'N', 'E', 'Y', 'R', 'V', 'K', 'B', 'G', 'U', 'Z', 'A', 'S', 'H']	[1888, 2448, 1224, 1335, 904, 2670, 1587, 2245, 1122, 760, 944, 2059, 2911, 697, 1731, 986]	8	Absent	NA	NA	ABSENT	0.23193001747131348	67.23590898513794	69.24983096122742	69.83317335443343	70.18317430808774	73.38390302658081	4.1340720653533936	[67.27268195152283, 67.38960099220276, 68.3672239780426, 68.54095101356506, 69.2914490699768, 69.40839791297913, 69.52535009384155, 69.64191603660583, 69.75891709327698, 69.87553906440735, 69.99241495132446, 70.10922002792358, 70.2260389328003, 70.34282398223877, 70.45978808403015, 70.57645797729492, 70.69300889968872, 70.80987405776978, 70.9265239238739, 71.04345893859863, 71.16036891937256, 71.38390302658081]	[67.2800342857611, 67.3967009524211, 68.3797009524211, 68.54640095242111, 69.29640095242111, 69.4130676190811, 69.5297342857411, 69.6464009524011, 69.76306761906109, 69.87973428572109, 69.99640095238108, 70.11306761904108, 70.22973428570107, 70.34640095236107, 70.46306761902106, 70.57973428568106, 70.69640095234105, 70.81306761900105, 70.92973428566104, 71.04640095232104, 71.16306761898103, 71.39640095231437]	2020_Nov_25_1235	59.79971257157196	1	0.375
1	13	FALSE	AA	a	['S', 'U', 'E', 'W', 'surprise', 'P', 'K', 'X', 'B', 'T', 'H', 'R', 'Y', 'N', 'J', 'M']	[1731, 2059, 904, 2448, 'stimAuditory/all_stimAuditory/210.wav', 1456, 1122, 4000, 760, 1888, 986, 1587, 2670, 1335, 1029, 1224]	8	Present	stimAuditory/all_stimAuditory/123.wav	NA	AUDITORY	0.10045099258422852	73.3593258857727	75.36629295349121	75.94963320093001	76.29963630035154	79.50026893615723	4.133975982666016	[73.39610004425049, 73.51274609565735, 74.48359298706055, 74.66399693489075, 75.41464400291443, 75.53151297569275, 75.64831709861755, 75.76502394676208, 75.88184595108032, 75.99872708320618, 76.11538004875183, 76.23229503631592, 76.3489499092102, 76.46565008163452, 76.58257102966309, 76.69931197166443, 76.81595492362976, 76.93271899223328, 77.04974794387817, 77.16655588150024, 77.28327894210815, 77.50026893615723]	[73.39640095231437, 73.51306761897436, 74.49606761897437, 74.66276761897437, 75.41276761897437, 75.52943428563437, 75.64610095229436, 75.76276761895436, 75.87943428561435, 75.99610095227435, 76.11276761893434, 76.22943428559434, 76.34610095225433, 76.46276761891433, 76.57943428557432, 76.69610095223432, 76.81276761889431, 76.92943428555431, 77.0461009522143, 77.1627676188743, 77.2794342855343, 77.51276761886763]	2020_Nov_25_1235	59.79971257157196	1	0.375
1	14	FALSE	NN	a	['V', 'M', 'J', 'G', 'W', 'B', 'K', 'T', 'Y', 'R', 'U', 'E', 'P', 'N', 'C', 'S']	[2245, 1224, 1029, 944, 2448, 760, 1122, 1888, 2670, 1587, 2059, 904, 1456, 1335, 829, 1731]	9	Absent	NA	NA	ABSENT	0.1858270168304443	79.48241996765137	81.48263001441956	82.18263692851835	82.53263907426556	85.61663603782654	4.134006023406982	[79.51919507980347, 79.63584089279175, 80.59995889663696, 80.78720688819885, 81.53764295578003, 81.65459203720093, 81.75437593460083, 81.87119197845459, 81.9879961013794, 82.10473895072937, 82.2215518951416, 82.3383378982544, 82.45514297485352, 82.57194709777832, 82.68873906135559, 82.80573391914368, 82.92237091064453, 83.03927707672119, 83.15580987930298, 83.27259993553162, 83.38943409919739, 83.61663699150085]	[79.51276761886763, 79.62943428552762, 80.61243428552763, 80.77913428552763, 81.52913428552763, 81.64580095218763, 81.76246761884762, 81.87913428550762, 81.99580095216761, 82.11246761882761, 82.2291342854876, 82.3458009521476, 82.4624676188076, 82.57913428546759, 82.69580095212758, 82.81246761878758, 82.92913428544757, 83.04580095210757, 83.16246761876756, 83.27913428542756, 83.39580095208755, 83.62913428542089]	2020_Nov_25_1235	59.79971257157196	1	0.375
1	15	FALSE	NV	a	['N', 'A', 'H', 'G', 'S', 'P', 'B', 'X', 'E', 'K', 'Y', 'T', 'R', 'C', 'V', 'Z']	[1335, 697, 986, 944, 1731, 1456, 760, 4000, 904, 1122, 2670, 1888, 1587, 829, 2245, 2911]	8	Present	NA	NA	AUDITORY	0.1580808162689209	85.58845210075378	87.59913396835327	88.18247540788497	88.5324773152136	91.73300194740295	4.133867979049683	[85.62522602081299, 85.741868019104, 86.71632409095764, 86.89330291748047, 87.64392805099487, 87.76078796386719, 87.8777289390564, 87.99436497688293, 88.11099791526794, 88.22798204421997, 88.34477400779724, 88.46161007881165, 88.57827496528625, 88.69512104988098, 88.81175303459167, 88.92873811721802, 89.04551792144775, 89.16222810745239, 89.27915096282959, 89.39587211608887, 89.51293802261353, 89.73300194740295]	[85.62913428542089, 85.74580095208088, 86.72880095208089, 86.8955009520809, 87.6455009520809, 87.76216761874089, 87.87883428540088, 87.99550095206088, 88.11216761872087, 88.22883428538087, 88.34550095204087, 88.46216761870086, 88.57883428536086, 88.69550095202085, 88.81216761868085, 88.92883428534084, 89.04550095200084, 89.16216761866083, 89.27883428532083, 89.39550095198082, 89.51216761864082, 89.74550095197415]	2020_Nov_25_1235	59.79971257157196	1	0.375
1	16	FALSE	NA	a	['W', 'B', 'H', 'T', 'Y', 'N', 'U', 'R', 'V', 'E', 'X', 'Z', 'K', 'A', 'P', 'S']	[2448, 760, 986, 1888, 2670, 1335, 2059, 1587, 2245, 904, 4000, 2911, 1122, 697, 1456, 1731]	11	Present	NA	NA	AUDITORY	0.15464401245117188	91.7116150856018	93.71541905403136	94.64876025512449	94.9987624008717	97.84936904907228	4.1339499950408936	[91.74838995933533, 91.86486196517944, 92.83269309997559, 93.01617288589478, 93.76688289642334, 93.88385891914368, 94.00063610076904, 94.11720490455627, 94.23414206504822, 94.35107898712158, 94.467698097229, 94.58443593978882, 94.7014479637146, 94.81810808181763, 94.93498206138611, 95.05181002616882, 95.16841697692871, 95.28517293930054, 95.40205502510071, 95.51924705505371, 95.63549208641052, 95.84936904907227]	[91.74550095197415, 91.86216761863415, 92.84516761863415, 93.01186761863416, 93.76186761863416, 93.87853428529415, 93.99520095195415, 94.11186761861414, 94.22853428527414, 94.34520095193413, 94.46186761859413, 94.57853428525412, 94.69520095191412, 94.81186761857411, 94.92853428523411, 95.0452009518941, 95.1618676185541, 95.27853428521409, 95.39520095187409, 95.51186761853408, 95.62853428519408, 95.86186761852741]	2020_Nov_25_1235	59.79971257157196	1	0.375
1	17	FALSE	NV	a	['S', 'Z', 'C', 'Y', 'A', 'T', 'M', 'J', 'X', 'P', 'E', 'U', 'N', 'R', 'H', 'W']	[1731, 2911, 829, 2670, 697, 1888, 1224, 1029, 4000, 1456, 904, 2059, 1335, 1587, 986, 2448]	9	Present	NA	NA	AUDITORY	0.1679389476776123	97.83444404602052	99.83165097236632	100.53165907855802	100.88166098588664	103.9657371044159	4.1340861320495605	[97.87122988700867, 97.97123789787292, 98.949059009552, 99.12261605262756, 99.87316107749939, 99.99027895927429, 100.10698390007019, 100.22367000579834, 100.34056305885315, 100.45726704597473, 100.57390308380127, 100.69084000587463, 100.80755710601807, 100.92449593544006, 101.0411319732666, 101.15816307067871, 101.2747209072113, 101.39191389083862, 101.50822305679321, 101.62521004676819, 101.74179005622864, 101.965735912323]	[97.86186761852741, 97.97853428518741, 98.96153428518741, 99.12823428518742, 99.87823428518742, 99.99490095184741, 100.11156761850741, 100.2282342851674, 100.3449009518274, 100.4615676184874, 100.57823428514739, 100.69490095180738, 100.81156761846738, 100.92823428512737, 101.04490095178737, 101.16156761844736, 101.27823428510736, 101.39490095176735, 101.51156761842735, 101.62823428508734, 101.74490095174734, 101.97823428508067]	2020_Nov_25_1235	59.79971257157196	1	0.375
1	18	FALSE	NA	a	['E', 'C', 'K', 'P', 'J', 'G', 'T', 'W', 'Z', 'M', 'Y', 'X', 'V', 'A', 'R', 'S']	[904, 829, 1122, 1456, 1029, 944, 1888, 2448, 2911, 1224, 2670, 4000, 2245, 697, 1587, 1731]	12	Present	NA	NA	AUDITORY	0.23658204078674316	103.94075107574464	105.94806599617004	106.99807291024884	107.34807505599603	110.08210301399232	4.134037017822266	[103.97752499580383, 104.09448099136353, 105.06542801856995, 105.2457480430603, 105.99629807472229, 106.11323809623718, 106.22989296913147, 106.34664607048035, 106.46347689628601, 106.5804169178009, 106.69692897796631, 106.8137469291687, 106.93048191070557, 107.04727292060852, 107.16426301002502, 107.28099393844604, 107.39784598350525, 107.51475405693054, 107.63128805160522, 107.7480719089508, 107.86504006385803, 108.08210301399231]	[103.97823428508067, 104.09490095174067, 105.07790095174067, 105.24460095174068, 105.99460095174068, 106.11126761840067, 106.22793428506067, 106.34460095172066, 106.46126761838066, 106.57793428504066, 106.69460095170065, 106.81126761836065, 106.92793428502064, 107.04460095168064, 107.16126761834063, 107.27793428500063, 107.39460095166062, 107.51126761832062, 107.62793428498061, 107.7446009516406, 107.8612676183006, 108.09460095163394]	2020_Nov_25_1235	59.79971257157196	1	0.375
1	19	FALSE	NA	a	['G', 'K', 'R', 'C', 'B', 'W', 'T', 'X', 'N', 'U', 'P', 'Z', 'M', 'H', 'E', 'V']	[944, 1122, 1587, 829, 760, 2448, 1888, 4000, 1335, 2059, 1456, 2911, 1224, 986, 904, 2245]	8	Present	NA	NA	AUDITORY	0.09807395935058594	110.06382489204408	112.0644428730011	112.64778335885848	112.99778621986142	116.19847011566162	4.1340272426605225	[110.10059905052185, 110.21740508079529, 111.18179297447205, 111.368488073349, 112.11959195137024, 112.23615503311157, 112.35307502746582, 112.4529299736023, 112.58657193183899, 112.68647694587708, 112.80332803726196, 112.92009210586548, 113.03681802749634, 113.1535370349884, 113.27042508125305, 113.3871738910675, 113.50395798683167, 113.62076711654663, 113.73753499984741, 113.85458493232727, 113.97116494178772, 114.19846892356873]	[110.09460095163394, 110.21126761829393, 111.19426761829394, 111.36096761829394, 112.11096761829394, 112.22763428495394, 112.34430095161393, 112.46096761827393, 112.57763428493392, 112.69430095159392, 112.81096761825391, 112.9276342849139, 113.0443009515739, 113.1609676182339, 113.27763428489389, 113.39430095155389, 113.51096761821388, 113.62763428487388, 113.74430095153387, 113.86096761819387, 113.97763428485386, 114.2109676181872]	2020_Nov_25_1235	59.79971257157196	1	0.375
1	20	FALSE	NA	a	['U', 'M', 'W', 'G', 'P', 'B', 'N', 'K', 'C', 'S', 'H', 'J', 'X', 'T', 'R', 'Y']	[2059, 1224, 2448, 944, 1456, 760, 1335, 1122, 829, 1731, 986, 1029, 4000, 1888, 1587, 2670]	13	Present	NA	NA	AUDITORY	0.32636404037475586	116.17010998725893	118.18076992034912	119.34744373950647	119.69744564683512	122.31483602523804	4.134066104888916	[116.20688390731812, 116.32368302345276, 117.29816007614136, 117.4750030040741, 118.22556900978088, 118.3426079750061, 118.45924592018127, 118.57612609863281, 118.6928780078888, 118.80962109565735, 118.92630791664124, 119.04309105873108, 119.15995407104492, 119.27690601348877, 119.39355206489563, 119.5104079246521, 119.62707304954529, 119.74404406547546, 119.86081504821777, 119.97733497619629, 120.09436106681824, 120.31483602523804]	[116.2109676181872, 116.32763428484719, 117.3106342848472, 117.4773342848472, 118.2273342848472, 118.3440009515072, 118.4606676181672, 118.57733428482719, 118.69400095148718, 118.81066761814718, 118.92733428480717, 119.04400095146717, 119.16066761812716, 119.27733428478716, 119.39400095144715, 119.51066761810715, 119.62733428476714, 119.74400095142714, 119.86066761808713, 119.97733428474713, 120.09400095140712, 120.32733428474046]	2020_Nov_25_1235	59.79971257157196	1	0.375
1	21	FALSE	NA	a	['T', 'A', 'M', 'Z', 'B', 'S', 'Y', 'V', 'G', 'K', 'R', 'X', 'H', 'P', 'U', 'J']	[1888, 697, 1224, 2911, 760, 1731, 2670, 2245, 944, 1122, 1587, 4000, 986, 1456, 2059, 1029]	12	Present	NA	NA	AUDITORY	0.1789999008178711	122.29340410232544	124.29733610153198	125.34734301561078	125.6973449229394	128.43120193481445	4.133865833282471	[122.33017802238464, 122.44686007499695, 123.4145278930664, 123.59802794456482, 124.34865808486938, 124.4653639793396, 124.58222198486328, 124.69917798042297, 124.81586694717407, 124.93244910240173, 125.04949688911438, 125.16613388061523, 125.28303694725037, 125.39970588684082, 125.51694703102112, 125.63326501846313, 125.75021409988403, 125.86696910858154, 125.98377799987793, 126.10053491592407, 126.2174220085144, 126.43120193481445]	[122.32733428474046, 122.44400095140045, 123.42700095140046, 123.59370095140046, 124.34370095140046, 124.46036761806046, 124.57703428472045, 124.69370095138045, 124.81036761804044, 124.92703428470044, 125.04370095136044, 125.16036761802043, 125.27703428468043, 125.39370095134042, 125.51036761800042, 125.62703428466041, 125.7437009513204, 125.8603676179804, 125.9770342846404, 126.09370095130039, 126.21036761796039, 126.44370095129372]	2020_Nov_25_1235	59.79971257157196	1	0.375
1	22	FALSE	NA	a	['E', 'W', 'R', 'J', 'K', 'H', 'S', 'V', 'G', 'M', 'X', 'N', 'Z', 'U', 'C', 'A']	[904, 2448, 1587, 1029, 1122, 986, 1731, 2245, 944, 1224, 4000, 1335, 2911, 2059, 829, 697]	11	Present	NA	NA	AUDITORY	0.0882730484008789	128.4161319732666	130.41372895240784	131.34707039191952	131.69707229924816	134.54756903648376	4.133840084075928	[128.4529049396515, 128.5529270172119, 129.53089308738708, 129.70409107208252, 130.47171807289124, 130.57181096076965, 130.68863797187805, 130.80543994903564, 130.92213106155396, 131.03899598121643, 131.15563893318176, 131.27258610725403, 131.38957595825195, 131.506098985672, 131.62280011177063, 131.7395260334015, 131.85634088516235, 131.9733510017395, 132.0899519920349, 132.2069399356842, 132.32360196113586, 132.5475709438324]	[128.44370095129372, 128.56036761795372, 129.54336761795372, 129.7100676179537, 130.4600676179537, 130.5767342846137, 130.6934009512737, 130.8100676179337, 130.9267342845937, 131.0434009512537, 131.16006761791368, 131.27673428457368, 131.39340095123367, 131.51006761789367, 131.62673428455366, 131.74340095121366, 131.86006761787365, 131.97673428453365, 132.09340095119364, 132.21006761785364, 132.32673428451363, 132.56006761784695]	2020_Nov_25_1235	59.79971257157196	1	0.375
1	23	FALSE	NA	a	['W', 'B', 'R', 'E', 'H', 'M', 'T', 'N', 'P', 'U', 'Z', 'G', 'X', 'S', 'C', 'Y']	[2448, 760, 1587, 904, 986, 1224, 1888, 1335, 1456, 2059, 2911, 944, 4000, 1731, 829, 2670]	13	Present	NA	NA	AUDITORY	0.12467193603515624	134.52249693870544	136.52984309196472	137.69651858005216	138.04652072579935	140.6639370918274	4.134093999862671	[134.55927109718323, 134.67611002922058, 135.64725995063782, 135.82712697982788, 136.57793402671814, 136.69491600990295, 136.81154489517212, 136.92826294898987, 137.04523491859436, 137.16195392608643, 137.27873706817627, 137.39565992355347, 137.51243710517883, 137.62897396087646, 137.74587106704712, 137.86272311210632, 137.9795389175415, 138.09644603729248, 138.2131290435791, 138.32992792129517, 138.44666504859924, 138.6639370918274]	[134.56006761784695, 134.67673428450695, 135.65973428450695, 135.82643428450695, 136.57643428450695, 136.69310095116694, 136.80976761782694, 136.92643428448693, 137.04310095114693, 137.15976761780692, 137.27643428446692, 137.3931009511269, 137.5097676177869, 137.6264342844469, 137.7431009511069, 137.8597676177669, 137.9764342844269, 138.09310095108688, 138.20976761774688, 138.32643428440687, 138.44310095106687, 138.6764342844002]	2020_Nov_25_1235	59.79971257157196	1	0.375
1	24	FALSE	NA	a	['N', 'C', 'G', 'Y', 'W', 'A', 'B', 'V', 'T', 'S', 'X', 'K', 'M', 'E', 'U', 'H']	[1335, 829, 944, 2670, 2448, 697, 760, 2245, 1888, 1731, 4000, 1122, 1224, 904, 2059, 986]	11	Present	NA	NA	AUDITORY	0.0501871109008789	140.6455008983612	142.64622592926025	143.57956736877193	143.92956927610058	146.7803030014038	4.134077072143555	[140.6822760105133, 140.79903197288513, 141.7636260986328, 141.95066905021667, 142.7010109424591, 142.8177011013031, 142.93473410606384, 143.05145907402039, 143.16834592819214, 143.2680859565735, 143.38490891456604, 143.50166702270508, 143.61854910850525, 143.73532009124756, 143.85217094421387, 143.96893405914307, 144.08560991287231, 144.2024929523468, 144.319256067276, 144.43605089187622, 144.55284190177917, 144.7803020477295]	[140.6764342844002, 140.79310095106018, 141.7761009510602, 141.94280095106018, 142.69280095106018, 142.80946761772017, 142.92613428438017, 143.04280095104016, 143.15946761770016, 143.27613428436015, 143.39280095102015, 143.50946761768014, 143.62613428434014, 143.74280095100013, 143.85946761766013, 143.97613428432012, 144.09280095098012, 144.20946761764012, 144.3261342843001, 144.4428009509601, 144.5594676176201, 144.79280095095342]	2020_Nov_25_1235	59.79971257157196	1	0.375
1	25	FALSE	VV	a	['P', 'C', 'G', 'A', 'W', 'Z', 'J', 'K', 'T', 'R', 'surprise', 'E', 'V', 'X', 'S', 'M']	[1456, 829, 944, 697, 2448, 2911, 1029, 1122, 1888, 1587, 'stimAuditory/all_stimAuditory/117.wav', 904, 2245, 4000, 1731, 1224]	14	Present	NA	NA	ABSENT	1.15059494972229	146.7516849040985	148.762708902359	150.0460503418507	150.39605224917932	152.89666891098022	4.133960008621216	[146.7884590625763, 146.90545511245728, 147.8799910545349, 148.05672407150269, 148.80736899375916, 148.92427492141724, 149.04086709022522, 149.15780997276306, 149.27463698387146, 149.3913300037384, 149.5079619884491, 149.6247959136963, 149.7417380809784, 149.85837697982788, 149.975270986557, 150.09208989143372, 150.20879793167114, 150.32556295394897, 150.44232892990112, 150.55923199653625, 150.67604398727417, 150.89666891098022]	[146.79280095095342, 146.90946761761342, 147.89246761761342, 148.0591676176134, 148.8091676176134, 148.9258342842734, 149.0425009509334, 149.1591676175934, 149.2758342842534, 149.3925009509134, 149.50916761757338, 149.62583428423338, 149.74250095089337, 149.85916761755337, 149.97583428421336, 150.09250095087336, 150.20916761753335, 150.32583428419335, 150.44250095085334, 150.55916761751334, 150.67583428417333, 150.90916761750665]	2020_Nov_25_1235	59.79971257157196	1	0.375
1	26	FALSE	NN	a	['V', 'P', 'J', 'G', 'Z', 'W', 'K', 'T', 'H', 'M', 'B', 'E', 'R', 'A', 'U', 'Y']	[2245, 1456, 1029, 944, 2911, 2448, 1122, 1888, 986, 1224, 760, 904, 1587, 697, 2059, 2670]	13	Absent	NA	NA	ABSENT	1.5873150825500488	152.87483406066897	154.878977060318	156.0456506410568	156.3956525483854	159.01303601264954	4.134058952331543	[152.91160702705383, 153.02851700782776, 153.99636006355286, 154.17956399917603, 154.93040204048157, 155.04724287986755, 155.16401410102844, 155.2806739807129, 155.39767789840698, 155.51448798179626, 155.631117105484, 155.74786806106567, 155.86474108695984, 155.98148894309998, 156.09816908836365, 156.21509408950806, 156.33196091651917, 156.44856905937195, 156.56554198265076, 156.68231511116028, 156.79907202720642, 157.01303601264954]	[152.90916761750665, 153.02583428416665, 154.00883428416665, 154.17553428416664, 154.92553428416664, 155.04220095082664, 155.15886761748664, 155.27553428414663, 155.39220095080663, 155.50886761746662, 155.62553428412662, 155.7422009507866, 155.8588676174466, 155.9755342841066, 156.0922009507666, 156.2088676174266, 156.3255342840866, 156.44220095074658, 156.55886761740658, 156.67553428406657, 156.79220095072657, 157.0255342840599]	2020_Nov_25_1235	59.79971257157196	1	0.375
1	27	FALSE	NV	a	['R', 'U', 'M', 'G', 'B', 'C', 'N', 'H', 'W', 'V', 'A', 'S', 'X', 'J', 'E', 'K']	[1587, 2059, 1224, 944, 760, 829, 1335, 986, 2448, 2245, 697, 1731, 4000, 1029, 904, 1122]	13	Present	NA	NA	AUDITORY	0.19237303733825684	158.9979910850525	160.99537992477417	162.16205374393155	162.51205565126017	165.12940311431885	4.134023189544678	[159.034765958786, 159.1346321105957, 160.11272597312927, 160.28601598739624, 161.03652501106262, 161.1535038948059, 161.2701449394226, 161.38737988471985, 161.50372409820557, 161.62070107460022, 161.7373058795929, 161.85401797294617, 161.97105193138123, 162.08792090415955, 162.20455598831177, 162.32143092155457, 162.43813300132751, 162.55506896972656, 162.67178297042847, 162.78865909576416, 162.9053831100464, 163.12940406799316]	[159.0255342840599, 159.14220095071988, 160.1252009507199, 160.29190095071988, 161.04190095071988, 161.15856761737987, 161.27523428403987, 161.39190095069986, 161.50856761735986, 161.62523428401985, 161.74190095067985, 161.85856761733984, 161.97523428399984, 162.09190095065983, 162.20856761731983, 162.32523428397982, 162.44190095063982, 162.55856761729981, 162.6752342839598, 162.7919009506198, 162.9085676172798, 163.14190095061312]	2020_Nov_25_1235	59.79971257157196	1	0.375
1	28	FALSE	NN	a	['Y', 'S', 'W', 'K', 'A', 'T', 'U', 'G', 'H', 'V', 'P', 'Z', 'B', 'R', 'C', 'E']	[2670, 1731, 2448, 1122, 697, 1888, 2059, 944, 986, 2245, 1456, 2911, 760, 1587, 829, 904]	12	Absent	NA	NA	ABSENT	0.2611050605773926	165.10419607162476	167.11191296577454	168.16192107194624	168.51192297927486	171.24576902389526	4.1338560581207275	[165.14096999168396, 165.25785207748413, 166.2290918827057, 166.40877509117126, 167.15960097312927, 167.27663588523865, 167.3932340145111, 167.51023888587952, 167.62691688537598, 167.743479013443, 167.8604700565338, 167.97730898857117, 168.09418296813965, 168.21083998680115, 168.3277289867401, 168.44433903694153, 168.5612940788269, 168.67785906791687, 168.7948648929596, 168.91138792037964, 169.02826309204102, 169.24576902389526]	[165.14190095061312, 165.25856761727312, 166.24156761727312, 166.4082676172731, 167.1582676172731, 167.2749342839331, 167.3916009505931, 167.5082676172531, 167.6249342839131, 167.7416009505731, 167.85826761723308, 167.97493428389308, 168.09160095055307, 168.20826761721307, 168.32493428387306, 168.44160095053306, 168.55826761719305, 168.67493428385305, 168.79160095051304, 168.90826761717304, 169.02493428383303, 169.25826761716635]	2020_Nov_25_1235	59.79971257157196	1	0.375
1	29	FALSE	AV	a	['G', 'M', 'S', 'B', 'Z', 'T', 'surprise', 'V', 'J', 'X', 'E', 'A', 'H', 'C', 'P', 'W']	[944, 1224, 1731, 760, 2911, 1888, 'stimAuditory/all_stimAuditory/202.wav', 2245, 1029, 4000, 904, 697, 986, 829, 1456, 2448]	10	Present	stimAuditory/all_stimAuditory/210.wav	NA	AUDITORY	0.09062695503234865	171.22720408439636	173.22817492485046	174.04484969770215	174.3948516050308	177.362135887146	4.133960962295532	[171.26398992538452, 171.3809199333191, 172.34545588493347, 172.53202891349792, 173.28276300430298, 173.39966011047363, 173.51615500450134, 173.63306999206543, 173.75005102157593, 173.84983706474304, 173.98352003097534, 174.1000690460205, 174.20023202896118, 174.3170289993286, 174.43373107910156, 174.5506420135498, 174.66735696792603, 174.78425407409668, 174.90102696418762, 175.0177481174469, 175.13451290130615, 175.362135887146]	[171.25826761716635, 171.37493428382635, 172.35793428382635, 172.52463428382634, 173.27463428382634, 173.39130095048634, 173.50796761714633, 173.62463428380633, 173.74130095046633, 173.85796761712632, 173.97463428378632, 174.0913009504463, 174.2079676171063, 174.3246342837663, 174.4413009504263, 174.5579676170863, 174.6746342837463, 174.79130095040628, 174.90796761706628, 175.02463428372627, 175.14130095038627, 175.3746342837196]	2020_Nov_25_1235	59.79971257157196	1	0.375
1	30	FALSE	NV	a	['Y', 'E', 'N', 'S', 'W', 'P', 'Z', 'J', 'H', 'X', 'U', 'M', 'B', 'V', 'A', 'T']	[2670, 904, 1335, 1731, 2448, 1456, 2911, 1029, 986, 4000, 2059, 1224, 760, 2245, 697, 1888]	10	Present	NA	NA	AUDITORY	0.02263212203979492	177.33359909057617	179.34449195861816	180.16116553937695	180.5111686387985	183.4785029888153	4.1340110301971444	[177.37037301063538, 177.48714900016785, 178.4618239402771, 178.63821697235107, 179.38902401924133, 179.50637888908386, 179.62260389328003, 179.73952507972717, 179.85618710517883, 179.97293710708618, 180.08979606628418, 180.2066900730133, 180.3233358860016, 180.44015192985535, 180.55692505836487, 180.67376589775085, 180.7906630039215, 180.90716791152954, 181.02424001693726, 181.14096903800964, 181.25780510902405, 181.478502035141]	[177.3746342837196, 177.49130095037958, 178.4743009503796, 178.64100095037958, 179.39100095037958, 179.50766761703957, 179.62433428369957, 179.74100095035956, 179.85766761701956, 179.97433428367955, 180.09100095033955, 180.20766761699954, 180.32433428365954, 180.44100095031953, 180.55766761697953, 180.67433428363952, 180.79100095029952, 180.90766761695951, 181.0243342836195, 181.1410009502795, 181.2576676169395, 181.49100095027282]	2020_Nov_25_1235	59.79971257157196	1	0.375
1	31	FALSE	NV	a	['A', 'G', 'K', 'N', 'J', 'U', 'T', 'P', 'R', 'S', 'M', 'H', 'X', 'C', 'V', 'Z']	[697, 944, 1122, 1335, 1029, 2059, 1888, 1456, 1587, 1731, 1224, 986, 4000, 829, 2245, 2911]	13	Present	NA	NA	AUDITORY	0.20337414741516113	183.4564139842987	185.4607949256897	186.6274696985214	186.97747160585	189.59486889839172	4.134073972702026	[183.49319005012512, 183.61009001731873, 184.57819390296936, 184.76126098632812, 185.51206398010254, 185.6289439201355, 185.74584889411926, 185.86252307891846, 185.97926092147827, 186.09607791900635, 186.21287488937378, 186.329528093338, 186.44649410247803, 186.56322288513184, 186.68013191223145, 186.79673290252686, 186.91359996795654, 187.0303270816803, 187.1472179889679, 187.2639720439911, 187.38068294525146, 187.59487009048462]	[183.49100095027282, 183.60766761693282, 184.59066761693282, 184.7573676169328, 185.5073676169328, 185.6240342835928, 185.7407009502528, 185.8573676169128, 185.9740342835728, 186.0907009502328, 186.20736761689278, 186.32403428355278, 186.44070095021277, 186.55736761687277, 186.67403428353276, 186.79070095019276, 186.90736761685275, 187.02403428351275, 187.14070095017274, 187.25736761683274, 187.37403428349273, 187.60736761682605]	2020_Nov_25_1235	59.79971257157196	1	0.375
1	32	FALSE	NV	a	['W', 'H', 'E', 'S', 'A', 'T', 'K', 'Z', 'M', 'X', 'G', 'C', 'U', 'J', 'Y', 'B']	[2448, 986, 904, 1731, 697, 1888, 1122, 2911, 1224, 4000, 944, 829, 2059, 1029, 2670, 760]	10	Present	NA	NA	AUDITORY	0.1686880588531494	189.579696893692	191.57717490196228	192.39384967481396	192.7438515821426	195.71123695373535	4.134062051773071	[189.6164710521698, 189.71625304222107, 190.69455909729004, 190.86773800849915, 191.63553190231323, 191.73528289794922, 191.85190296173096, 191.96869611740112, 192.0854790210724, 192.20236611366272, 192.31902408599854, 192.43592405319214, 192.5527219772339, 192.6693298816681, 192.78624892234802, 192.90299105644226, 193.0198690891266, 193.1366729736328, 193.25353598594666, 193.37012100219727, 193.4870948791504, 193.71123600006104]	[189.60736761682605, 189.72403428348605, 190.70703428348605, 190.87373428348604, 191.62373428348604, 191.74040095014604, 191.85706761680603, 191.97373428346603, 192.09040095012602, 192.20706761678602, 192.32373428344602, 192.440400950106, 192.557067616766, 192.673734283426, 192.790400950086, 192.907067616746, 193.023734283406, 193.14040095006598, 193.25706761672598, 193.37373428338597, 193.49040095004597, 193.7237342833793]	2020_Nov_25_1235	59.79971257157196	1	0.375
1	33	FALSE	NV	a	['Z', 'M', 'P', 'K', 'A', 'J', 'B', 'E', 'X', 'V', 'T', 'W', 'S', 'G', 'C', 'U']	[2911, 1224, 1456, 1122, 697, 1029, 760, 904, 4000, 2245, 1888, 2448, 1731, 944, 829, 2059]	9	Present	NA	NA	AUDITORY	0.07733011245727539	195.68585801124573	197.69361400604248	198.3936218738156	198.7436240195628	201.82760310173035	4.133989095687866	[195.72263288497925, 195.83956289291382, 196.8109269142151, 196.9906361103058, 197.74135303497314, 197.8580720424652, 197.97506093978882, 198.09167790412903, 198.20861792564392, 198.32551503181458, 198.4419651031494, 198.55906510353088, 198.67583894729614, 198.79241800308228, 198.90933895111084, 199.0259850025177, 199.14295196533203, 199.25982403755188, 199.37649488449097, 199.49322891235352, 199.61005401611328, 199.82760190963745]	[195.7237342833793, 195.84040095003928, 196.8234009500393, 196.99010095003928, 197.74010095003928, 197.85676761669927, 197.97343428335927, 198.09010095001926, 198.20676761667926, 198.32343428333925, 198.44010094999925, 198.55676761665924, 198.67343428331924, 198.79010094997923, 198.90676761663923, 199.02343428329922, 199.14010094995922, 199.25676761661921, 199.3734342832792, 199.4901009499392, 199.6067676165992, 199.84010094993252]	2020_Nov_25_1235	59.79971257157196	1	0.375
1	34	FALSE	AN	a	['S', 'N', 'H', 'V', 'E', 'Y', 'B', 'U', 'M', 'R', 'surprise', 'W', 'A', 'Z', 'C', 'T']	[1731, 1335, 986, 2245, 904, 2670, 760, 2059, 1224, 1587, 'stimAuditory/all_stimAuditory/211.wav', 2448, 697, 2911, 829, 1888]	14	Absent	stimAuditory/all_stimAuditory/117.wav	NA	ABSENT	0.3868889808654785	201.80932307243347	203.8097460269928	205.0930872280659	205.4430893738131	207.94396901130676	4.134222984313965	[201.846097946167, 201.96241307258606, 202.92729091644287, 203.11348509788513, 203.8644950389862, 203.9811511039734, 204.09807896614075, 204.21492195129395, 204.3316888809204, 204.44855904579163, 204.5650520324707, 204.66518092155457, 204.78198409080505, 204.89873003959656, 205.01553392410278, 205.13233304023743, 205.24904894828796, 205.36582207679749, 205.48263907432556, 205.59943294525146, 205.71624994277954, 205.94396901130676]	[201.84010094993252, 201.95676761659251, 202.93976761659252, 203.1064676165925, 203.8564676165925, 203.9731342832525, 204.0898009499125, 204.2064676165725, 204.3231342832325, 204.4398009498925, 204.55646761655248, 204.67313428321248, 204.78980094987247, 204.90646761653247, 205.02313428319246, 205.13980094985246, 205.25646761651245, 205.37313428317245, 205.48980094983244, 205.60646761649244, 205.72313428315243, 205.95646761648575]	2020_Nov_25_1235	59.79971257157196	1	0.375
1	35	FALSE	NA	a	['S', 'K', 'E', 'R', 'V', 'M', 'H', 'W', 'A', 'X', 'B', 'G', 'P', 'N', 'Y', 'Z']	[1731, 1122, 904, 1587, 2245, 1224, 986, 2448, 697, 4000, 760, 944, 1456, 1335, 2670, 2911]	10	Present	NA	NA	AUDITORY	0.3910257816314697	207.91512799263	209.9264690876007	210.7431426683595	211.09314457568817	214.0603370666504	4.133867979049683	[207.9519009590149, 208.06892609596252, 209.04365992546082, 209.21993899345398, 209.9707179069519, 210.0877070426941, 210.2043890953064, 210.32109999656677, 210.43792700767517, 210.55457592010498, 210.67149901390076, 210.78823900222778, 210.9050691127777, 211.02172088623047, 211.13866305351257, 211.2554531097412, 211.37231492996216, 211.4891140460968, 211.60596704483032, 211.72255897521973, 211.83921909332275, 212.0603380203247]	[207.95646761648575, 208.07313428314575, 209.05613428314575, 209.22283428314574, 209.97283428314574, 210.08950094980574, 210.20616761646573, 210.32283428312573, 210.43950094978572, 210.55616761644572, 210.67283428310571, 210.7895009497657, 210.9061676164257, 211.0228342830857, 211.1395009497457, 211.2561676164057, 211.37283428306569, 211.48950094972568, 211.60616761638568, 211.72283428304567, 211.83950094970567, 212.072834283039]	2020_Nov_25_1235	59.79971257157196	1	0.375
1	36	FALSE	NV	a	['T', 'E', 'S', 'H', 'A', 'W', 'P', 'X', 'M', 'V', 'G', 'K', 'C', 'R', 'Y', 'B']	[1888, 904, 1731, 986, 697, 2448, 1456, 4000, 1224, 2245, 944, 1122, 829, 1587, 2670, 760]	8	Present	NA	NA	AUDITORY	0.4757368564605713	214.0382568836212	216.04283905029297	216.6261812050804	216.9761833508276	220.1767029762268	4.133863925933838	[214.07503199577332, 214.19187593460083, 215.1600260734558, 215.34316992759705, 216.09376788139343, 216.21045207977295, 216.32742309570312, 216.44422388076782, 216.56093406677246, 216.67770504951477, 216.79449605941772, 216.91113996505737, 217.02791905403137, 217.1448199748993, 217.26179099082947, 217.3784019947052, 217.49540901184082, 217.61205005645752, 217.7288339138031, 217.84547209739685, 217.96223402023315, 218.1767029762268]	[214.072834283039, 214.18950094969898, 215.17250094969899, 215.33920094969898, 216.08920094969898, 216.20586761635897, 216.32253428301897, 216.43920094967896, 216.55586761633896, 216.67253428299895, 216.78920094965895, 216.90586761631894, 217.02253428297894, 217.13920094963893, 217.25586761629893, 217.37253428295892, 217.48920094961892, 217.6058676162789, 217.7225342829389, 217.8392009495989, 217.9558676162589, 218.18920094959222]	2020_Nov_25_1235	59.79971257157196	1	0.375
1	37	FALSE	NA	a	['V', 'Z', 'N', 'S', 'P', 'C', 'B', 'K', 'A', 'U', 'X', 'G', 'Y', 'E', 'T', 'R']	[2245, 2911, 1335, 1731, 1456, 829, 760, 1122, 697, 2059, 4000, 944, 2670, 904, 1888, 1587]	11	Present	NA	NA	AUDITORY	0.08099198341369629	220.1613929271698	222.1589810848236	223.0923213322424	223.44232323957104	226.29307007789612	4.13408899307251	[220.19816708564758, 220.29795694351196, 221.27639198303223, 221.44957089424133, 222.21684408187866, 222.31699991226196, 222.43363404273987, 222.55057501792908, 222.66726899147034, 222.78385210037231, 222.9008469581604, 223.0174651145935, 223.13449096679688, 223.25124311447144, 223.36791396141052, 223.48483896255493, 223.601557970047, 223.7182490825653, 223.83525395393372, 223.95182299613953, 224.06872010231018, 224.29306888580322]	[220.18920094959222, 220.30586761625221, 221.28886761625222, 221.4555676162522, 222.2055676162522, 222.3222342829122, 222.4389009495722, 222.5555676162322, 222.6722342828922, 222.7889009495522, 222.90556761621218, 223.02223428287218, 223.13890094953217, 223.25556761619217, 223.37223428285216, 223.48890094951216, 223.60556761617215, 223.72223428283215, 223.83890094949214, 223.95556761615214, 224.07223428281213, 224.30556761614545]	2020_Nov_25_1235	59.79971257157196	1	0.375
1	38	FALSE	VV	a	['B', 'S', 'K', 'M', 'Z', 'A', 'T', 'P', 'J', 'R', 'surprise', 'Y', 'N', 'X', 'U', 'W']	[760, 1731, 1122, 1224, 2911, 697, 1888, 1456, 1029, 1587, 'stimAuditory/all_stimAuditory/221.wav', 2670, 1335, 4000, 2059, 2448]	14	Present	NA	NA	AUDITORY	0.23768901824951172	226.26753401756287	228.2753598690033	229.558701308495	229.9087032158236	232.40943694114685	4.134077072143555	[226.30430793762207, 226.42123293876648, 227.39275693893433, 227.57243609428406, 228.3231430053711, 228.43981790542603, 228.55688405036926, 228.67333889007568, 228.7903950214386, 228.90714192390442, 229.02390789985657, 229.14068603515625, 229.25741505622864, 229.37412691116333, 229.49101400375366, 229.60771298408508, 229.72473907470703, 229.8412709236145, 229.95826601982117, 230.07501697540283, 230.19168496131897, 230.40943694114685]	[226.30556761614545, 226.42223428280545, 227.40523428280545, 227.57193428280544, 228.32193428280544, 228.43860094946544, 228.55526761612543, 228.67193428278543, 228.78860094944542, 228.90526761610542, 229.02193428276541, 229.1386009494254, 229.2552676160854, 229.3719342827454, 229.4886009494054, 229.6052676160654, 229.72193428272539, 229.83860094938538, 229.95526761604538, 230.07193428270537, 230.18860094936537, 230.4219342826987]	2020_Nov_25_1235	59.79971257157196	1	0.375
1	39	FALSE	NA	a	['N', 'K', 'C', 'T', 'J', 'E', 'P', 'A', 'S', 'X', 'V', 'H', 'Y', 'M', 'U', 'G']	[1335, 1122, 829, 1888, 1029, 904, 1456, 697, 1731, 4000, 2245, 986, 2670, 1224, 2059, 944]	10	Present	NA	NA	AUDITORY	0.34709596633911133	232.39077496528623	234.39161491394043	235.2082896867921	235.55829159412076	238.52580404281616	4.134189128875732	[232.42755007743835, 232.54425597190857, 233.50912594795227, 233.69516110420227, 234.446053981781, 234.56295895576477, 234.67984795570374, 234.79662609100342, 234.91328811645508, 235.03020596504211, 235.1467170715332, 235.2637710571289, 235.36364793777466, 235.48036909103394, 235.59725308418274, 235.71400904655457, 235.8307909965515, 235.94757390022278, 236.06432008743286, 236.18115305900574, 236.29798293113708, 236.52580308914185]	[232.4219342826987, 232.53860094935868, 233.52160094935869, 233.68830094935868, 234.43830094935868, 234.55496761601867, 234.67163428267867, 234.78830094933866, 234.90496761599866, 235.02163428265865, 235.13830094931865, 235.25496761597864, 235.37163428263864, 235.48830094929863, 235.60496761595863, 235.72163428261862, 235.83830094927862, 235.9549676159386, 236.0716342825986, 236.1883009492586, 236.3049676159186, 236.53830094925192]	2020_Nov_25_1235	59.79971257157196	1	0.375
1	40	FALSE	NV	a	['U', 'C', 'N', 'V', 'Z', 'J', 'H', 'M', 'R', 'P', 'X', 'B', 'Y', 'E', 'G', 'S']	[2059, 829, 1335, 2245, 2911, 1029, 986, 1224, 1587, 1456, 4000, 760, 2670, 904, 944, 1731]	11	Present	NA	NA	AUDITORY	0.07138800621032715	238.4968729019165	240.50812792778015	241.4414684136175	241.79147032094616	244.64216899871823	4.13404107093811	[238.5336480140686, 238.65036797523499, 239.6254940032959, 239.8017020225525, 240.55238795280457, 240.66907596588135, 240.7860770225525, 240.90287709236145, 241.01974892616272, 241.13632893562317, 241.25319290161133, 241.36982798576355, 241.48688507080078, 241.60352301597595, 241.72033309936523, 241.83729791641235, 241.9540150165558, 242.07069611549377, 242.18764901161194, 242.30421590805054, 242.4213891029358, 242.64216899871826]	[238.53830094925192, 238.65496761591191, 239.63796761591192, 239.8046676159119, 240.5546676159119, 240.6713342825719, 240.7880009492319, 240.9046676158919, 241.0213342825519, 241.1380009492119, 241.25466761587188, 241.37133428253188, 241.48800094919187, 241.60466761585187, 241.72133428251186, 241.83800094917186, 241.95466761583185, 242.07133428249185, 242.18800094915184, 242.30466761581184, 242.42133428247183, 242.65466761580515]	2020_Nov_25_1235	59.79971257157196	1	0.375
1	41	FALSE	NV	a	['B', 'P', 'C', 'V', 'Y', 'M', 'A', 'E', 'W', 'G', 'S', 'K', 'X', 'J', 'Z', 'U']	[760, 1456, 829, 2245, 2670, 1224, 697, 904, 2448, 944, 1731, 1122, 4000, 1029, 2911, 2059]	13	Present	NA	NA	AUDITORY	0.22814106941223145	244.62001991271973	246.62450289726257	247.79117767009427	248.1411795774229	250.75853610038757	4.134033203125	[244.6567940711975, 244.77343702316284, 245.74185991287231, 245.92480492591858, 246.67554807662964, 246.79222702980042, 246.90918803215027, 247.0257909297943, 247.14274096488953, 247.25931310653687, 247.37633204460144, 247.49312090873718, 247.60989594459534, 247.72658801078796, 247.84337210655212, 247.96004390716553, 248.0768129825592, 248.19388103485107, 248.31064200401306, 248.42732501029968, 248.54415106773376, 248.75853610038757]	[244.65466761580515, 244.77133428246515, 245.75433428246515, 245.92103428246514, 246.67103428246514, 246.78770094912514, 246.90436761578513, 247.02103428244513, 247.13770094910512, 247.25436761576512, 247.37103428242511, 247.4877009490851, 247.6043676157451, 247.7210342824051, 247.8377009490651, 247.9543676157251, 248.07103428238509, 248.18770094904508, 248.30436761570508, 248.42103428236507, 248.53770094902507, 248.77103428235839]	2020_Nov_25_1235	59.79971257157196	1	0.375
1	42	FALSE	NV	a	['T', 'M', 'Z', 'H', 'U', 'G', 'Y', 'X', 'B', 'K', 'P', 'W', 'R', 'A', 'S', 'C']	[1888, 1224, 2911, 986, 2059, 944, 2670, 4000, 760, 1122, 1456, 2448, 1587, 697, 1731, 829]	8	Present	NA	NA	AUDITORY	0.20912814140319824	250.74289894104004	252.74094009399417	253.32428034143297	253.67428224876156	256.8749029636383	4.133962869644165	[250.77967309951782, 250.87969303131104, 251.8582239151001, 252.0309190750122, 252.7987720966339, 252.89872789382935, 253.0154640674591, 253.13232588768005, 253.24896097183228, 253.36585187911987, 253.4825930595398, 253.5994210243225, 253.7162470817566, 253.83297300338745, 253.949805021286, 254.0664119720459, 254.18328189849854, 254.30008792877197, 254.41689801216125, 254.53355407714844, 254.65050792694092, 254.874902009964]	[250.77103428235839, 250.88770094901838, 251.87070094901839, 252.03740094901838, 252.78740094901838, 252.90406761567837, 253.02073428233837, 253.13740094899836, 253.25406761565836, 253.37073428231835, 253.48740094897835, 253.60406761563834, 253.72073428229834, 253.83740094895833, 253.95406761561833, 254.07073428227832, 254.18740094893832, 254.3040676155983, 254.4207342822583, 254.5374009489183, 254.6540676155783, 254.88740094891162]	2020_Nov_25_1235	59.79971257157196	1	0.375
1	43	FALSE	NN	a	['A', 'P', 'C', 'N', 'B', 'Z', 'G', 'H', 'Y', 'M', 'V', 'T', 'S', 'J', 'R', 'K']	[697, 1456, 829, 1335, 760, 2911, 944, 986, 2670, 1224, 2245, 1888, 1731, 1029, 1587, 1122]	9	Absent	NA	NA	ABSENT	0.34976720809936523	256.84930300712585	258.8571469783783	259.55715508457	259.9071569918986	262.9912700653076	4.134123086929321	[256.8860778808594, 257.00341510772705, 257.9745910167694, 258.15413308143616, 258.90489196777344, 259.0214729309082, 259.1383099555969, 259.2552111148834, 259.3720049858093, 259.4886140823364, 259.60537099838257, 259.7223451137543, 259.83910608291626, 259.95593905448914, 260.07265305519104, 260.1895101070404, 260.30625796318054, 260.423054933548, 260.5398700237274, 260.6567130088806, 260.77334094047546, 260.9912700653076]	[256.8874009489116, 257.0040676155716, 257.9870676155716, 258.1537676155716, 258.9037676155716, 259.02043428223163, 259.13710094889166, 259.2537676155517, 259.3704342822117, 259.4871009488717, 259.60376761553175, 259.7204342821918, 259.8371009488518, 259.9537676155118, 260.07043428217185, 260.18710094883187, 260.3037676154919, 260.4204342821519, 260.53710094881194, 260.65376761547196, 260.770434282132, 261.00376761546534]	2020_Nov_25_1235	59.79971257157196	1	0.375
1	44	FALSE	NV	a	['A', 'G', 'C', 'P', 'W', 'Y', 'M', 'V', 'K', 'J', 'U', 'X', 'B', 'R', 'N', 'S']	[697, 944, 829, 1456, 2448, 2670, 1224, 2245, 1122, 1029, 2059, 4000, 760, 1587, 1335, 1731]	12	Present	NA	NA	AUDITORY	0.6751651763916016	262.9725489616394	264.97362995147705	266.0236380576487	266.37363996497737	269.10763597488403	4.134006023406982	[263.0093240737915, 263.1259560585022, 264.09096002578735, 264.27717995643616, 265.0276999473572, 265.14460802078247, 265.2612569332123, 265.3784120082855, 265.4951419830322, 265.61188292503357, 265.72860288619995, 265.84525895118713, 265.96215200424194, 266.07911705970764, 266.178955078125, 266.2957580089569, 266.4125530719757, 266.52930903434753, 266.6460831165314, 266.76294207572937, 266.8796100616455, 267.10763692855835]	[263.00376761546534, 263.12043428212536, 264.10343428212536, 264.27013428212535, 265.02013428212535, 265.1368009487854, 265.2534676154454, 265.3701342821054, 265.48680094876545, 265.6034676154255, 265.7201342820855, 265.8368009487455, 265.95346761540554, 266.07013428206557, 266.1868009487256, 266.3034676153856, 266.42013428204564, 266.53680094870566, 266.6534676153657, 266.7701342820257, 266.88680094868573, 267.1201342820191]	2020_Nov_25_1235	59.79971257157196	1	0.375
1	45	FALSE	NV	a	['G', 'B', 'W', 'J', 'V', 'S', 'C', 'R', 'U', 'Y', 'Z', 'X', 'E', 'A', 'H', 'N']	[944, 760, 2448, 1029, 2245, 1731, 829, 1587, 2059, 2670, 2911, 4000, 904, 697, 986, 1335]	12	Present	NA	NA	ABSENT	0.2796940803527832	269.0785450935364	271.08984303474426	272.13984994882304	272.48985209457027	275.22400307655334	4.134160041809082	[269.1153190135956, 269.2323229312897, 270.20732593536377, 270.38345193862915, 271.1341381072998, 271.25111198425293, 271.3677830696106, 271.4846661090851, 271.60128688812256, 271.71819591522217, 271.8351080417633, 271.95169591903687, 272.0687110424042, 272.18528008461, 272.3021430969238, 272.4192349910736, 272.53579902648926, 272.6524291038513, 272.7690930366516, 272.88605403900146, 273.00294494628906, 273.22400307655334]	[269.1201342820191, 269.2368009486791, 270.2198009486791, 270.3865009486791, 271.1365009486791, 271.2531676153391, 271.36983428199915, 271.48650094865917, 271.6031676153192, 271.7198342819792, 271.83650094863924, 271.95316761529926, 272.0698342819593, 272.1865009486193, 272.30316761527934, 272.41983428193936, 272.5365009485994, 272.6531676152594, 272.76983428191943, 272.88650094857945, 273.0031676152395, 273.2365009485728]	2020_Nov_25_1235	59.79971257157196	1	0.375
1	46	FALSE	VA	a	['H', 'Y', 'V', 'T', 'B', 'U', 'surprise', 'Z', 'C', 'X', 'K', 'P', 'N', 'A', 'M', 'G']	[986, 2670, 2245, 1888, 760, 2059, 'stimAuditory/all_stimAuditory/209.wav', 2911, 829, 4000, 1122, 1456, 1335, 697, 1224, 944]	10	Present	NA	NA	AUDITORY	0.5403389930725098	275.2019159793854	277.2063000202179	278.0229736009767	278.3729757467239	281.34036898612976	4.134068965911865	[275.2386929988861, 275.3553879261017, 276.3236939907074, 276.506539106369, 277.25736594200134, 277.3740119934082, 277.49096488952637, 277.6075611114502, 277.72430896759033, 277.8412621021271, 277.95808005332947, 278.074903011322, 278.19147992134094, 278.30837988853455, 278.4252278804779, 278.54201197624207, 278.65865206718445, 278.7755460739136, 278.89224195480347, 279.0091550350189, 279.12586402893066, 279.34036898612976]	[275.2365009485728, 275.35316761523285, 276.33616761523285, 276.50286761523284, 277.25286761523284, 277.36953428189287, 277.4862009485529, 277.6028676152129, 277.71953428187294, 277.83620094853296, 277.952867615193, 278.069534281853, 278.18620094851303, 278.30286761517306, 278.4195342818331, 278.5362009484931, 278.6528676151531, 278.76953428181315, 278.8862009484732, 279.0028676151332, 279.1195342817932, 279.35286761512657]	2020_Nov_25_1235	59.79971257157196	1	0.375
1	47	FALSE	NA	a	['G', 'K', 'R', 'J', 'C', 'N', 'H', 'W', 'E', 'U', 'S', 'X', 'Y', 'B', 'V', 'M']	[944, 1122, 1587, 1029, 829, 1335, 986, 2448, 904, 2059, 1731, 4000, 2670, 760, 2245, 1224]	12	Present	NA	NA	AUDITORY	0.19362306594848633	281.3248929977417	283.32271099090576	284.37271909707744	284.7227210044061	287.4567360877991	4.1340250968933105	[281.36168789863586, 281.4783079624176, 282.4400599002838, 282.6131920814514, 283.3802011013031, 283.4805359840393, 283.5973289012909, 283.7139050960541, 283.83089900016785, 283.9474399089813, 284.06436705589294, 284.1810030937195, 284.2980589866638, 284.4146010875702, 284.5316319465637, 284.6483209133148, 284.76519107818604, 284.8819479942322, 284.99857687950134, 285.11545491218567, 285.23238492012024, 285.4567360877991]	[281.35286761512657, 281.4695342817866, 282.4525342817866, 282.6192342817866, 283.3692342817866, 283.4859009484466, 283.60256761510664, 283.71923428176666, 283.8359009484267, 283.9525676150867, 284.06923428174673, 284.18590094840675, 284.3025676150668, 284.4192342817268, 284.5359009483868, 284.65256761504685, 284.7692342817069, 284.8859009483669, 285.0025676150269, 285.11923428168694, 285.23590094834697, 285.4692342816803]	2020_Nov_25_1235	59.79971257157196	1	0.375
1	48	FALSE	NN	a	['Y', 'W', 'Z', 'M', 'P', 'N', 'A', 'B', 'C', 'T', 'K', 'S', 'H', 'R', 'U', 'G']	[2670, 2448, 2911, 1224, 1456, 1335, 697, 760, 829, 1888, 1122, 1731, 986, 1587, 2059, 944]	8	Absent	NA	NA	ABSENT	0.5663471221923828	287.4312460422516	289.43905806541443	290.02239926652754	290.37240141227477	293.5731029510498	4.134044885635376	[287.46804094314575, 287.58463191986084, 288.55642795562744, 288.7360770702362, 289.48653197288513, 289.60349011421204, 289.72015500068665, 289.8370668888092, 289.9539740085602, 290.0705940723419, 290.1873459815979, 290.30429005622864, 290.4210510253906, 290.53792810440063, 290.65468406677246, 290.77155208587646, 290.88826990127563, 291.00493001937866, 291.121906042099, 291.2387840747833, 291.35536098480225, 291.5731029510498]	[287.4692342816803, 287.58590094834034, 288.56890094834034, 288.73560094834033, 289.48560094834033, 289.60226761500036, 289.7189342816604, 289.8356009483204, 289.9522676149804, 290.06893428164045, 290.1856009483005, 290.3022676149605, 290.4189342816205, 290.53560094828055, 290.65226761494057, 290.7689342816006, 290.8856009482606, 291.00226761492064, 291.11893428158066, 291.2356009482407, 291.3522676149007, 291.58560094823406]	2020_Nov_25_1235	59.79971257157196	1	0.375
1	49	FALSE	NV	a	['V', 'W', 'A', 'B', 'K', 'H', 'Y', 'E', 'M', 'X', 'P', 'G', 'R', 'J', 'U', 'N']	[2245, 2448, 697, 760, 1122, 986, 2670, 904, 1224, 4000, 1456, 944, 1587, 1029, 2059, 1335]	10	Present	NA	NA	AUDITORY	0.2595360279083252	293.5546510219574	295.555566072464	296.3722406068971	296.7222427526443	299.6894700527191	4.133903980255127	[293.5914258956909, 293.70763993263245, 294.6727910041809, 294.85911893844604, 295.6098129749298, 295.72660207748413, 295.8432569503784, 295.96025490760803, 296.07690501213074, 296.1938419342041, 296.310555934906, 296.42716002464294, 296.5272400379181, 296.6441218852997, 296.76087498664856, 296.8775839805603, 296.9944930076599, 297.1112790107727, 297.22801995277405, 297.3448429107666, 297.4616069793701, 297.6894700527191]	[293.58560094823406, 293.7022676148941, 294.6852676148941, 294.8519676148941, 295.6019676148941, 295.7186342815541, 295.8353009482141, 295.95196761487415, 296.0686342815342, 296.1853009481942, 296.3019676148542, 296.41863428151424, 296.53530094817427, 296.6519676148343, 296.7686342814943, 296.88530094815434, 297.00196761481436, 297.1186342814744, 297.2353009481344, 297.35196761479443, 297.46863428145446, 297.7019676147878]	2020_Nov_25_1235	59.79971257157196	1	0.375
1	50	FALSE	NV	a	['R', 'S', 'N', 'J', 'A', 'E', 'P', 'C', 'K', 'Y', 'V', 'X', 'H', 'T', 'M', 'G']	[1587, 1731, 1335, 1029, 697, 904, 1456, 829, 1122, 2670, 2245, 4000, 986, 1888, 1224, 944]	12	Present	NA	NA	NONE	-1	299.66074800491333	301.67167806625366	302.72168498033244	303.0716868876611	305.82041692733765	4.148738861083984	[299.69752192497253, 299.81409192085266, 300.78916001319885, 300.9653820991516, 301.7162079811096, 301.8331229686737, 301.9498538970947, 302.0665030479431, 302.1834330558777, 302.30006408691406, 302.4168200492859, 302.5336420536041, 302.65034890174866, 302.7672209739685, 302.8841350078583, 303.00092911720276, 303.1174819469452, 303.2344250679016, 303.3512179851532, 303.46832609176636, 303.58489894866943, 303.80583691596985]	[299.7019676147878, 299.8186342814478, 300.80163428144783, 300.9683342814478, 301.7183342814478, 301.83500094810785, 301.95166761476787, 302.0683342814279, 302.1850009480879, 302.30166761474794, 302.41833428140797, 302.535000948068, 302.651667614728, 302.76833428138804, 302.88500094804806, 303.0016676147081, 303.1183342813681, 303.23500094802813, 303.35166761468815, 303.4683342813482, 303.5850009480082, 303.81833428134155]	2020_Nov_25_1235	59.79971257157196	1	0.375
1	51	FALSE	AV	a	['H', 'P', 'M', 'B', 'S', 'A', 'N', 'J', 'E', 'V', 'surprise', 'Z', 'T', 'X', 'G', 'U']	[986, 1456, 1224, 760, 1731, 697, 1335, 1029, 904, 2245, 'stimAuditory/all_stimAuditory/102.wav', 2911, 1888, 4000, 944, 2059]	14	Present	stimAuditory/all_stimAuditory/202.wav	NA	AUDITORY	0.5324039459228516	305.8002529144287	307.7881259918213	309.07146743131295	309.4214693386416	311.92220306396484	4.134077072143555	[305.8370270729065, 305.9373960494995, 306.90552592277527, 307.0885798931122, 307.83921790122986, 307.9559290409088, 308.0727438926697, 308.18968391418457, 308.30646800994873, 308.423180103302, 308.5398910045624, 308.656800031662, 308.7734670639038, 308.8903501033783, 309.00706911087036, 309.1240289211273, 309.240700006485, 309.35755610466003, 309.47438788414, 309.5911328792572, 309.7079620361328, 309.92220306396484]	[305.81833428134155, 305.9350009480016, 306.9180009480016, 307.08470094800157, 307.83470094800157, 307.9513676146616, 308.0680342813216, 308.18470094798164, 308.30136761464166, 308.4180342813017, 308.5347009479617, 308.65136761462173, 308.76803428128176, 308.8847009479418, 309.0013676146018, 309.1180342812618, 309.23470094792185, 309.3513676145819, 309.4680342812419, 309.5847009479019, 309.70136761456195, 309.9347009478953]	2020_Nov_25_1235	59.79971257157196	1	0.375
1	52	FALSE	NA	a	['Z', 'W', 'G', 'S', 'J', 'Y', 'H', 'B', 'V', 'M', 'K', 'X', 'A', 'U', 'P', 'E']	[2911, 2448, 944, 1731, 1029, 2670, 986, 760, 2245, 1224, 1122, 4000, 697, 2059, 1456, 904]	12	Present	NA	NA	AUDITORY	0.1377098560333252	311.90687894821167	313.90456104278564	314.95456891053874	315.30457105628597	318.03856897354126	4.134007930755615	[311.94365310668945, 312.0603621006012, 313.0218939781189, 313.1948220729828, 313.962690114975, 314.06239104270935, 314.1792550086975, 314.2959339618683, 314.41262102127075, 314.5296399593353, 314.6464169025421, 314.7632179260254, 314.87994289398193, 314.9965970516205, 315.11359095573425, 315.23028802871704, 315.34689497947693, 315.4639530181885, 315.5806140899658, 315.69751596450806, 315.8143980503082, 316.03856897354126]	[311.9347009478953, 312.0513676145553, 313.0343676145553, 313.2010676145553, 313.9510676145553, 314.06773428121534, 314.18440094787536, 314.3010676145354, 314.4177342811954, 314.53440094785543, 314.65106761451545, 314.7677342811755, 314.8844009478355, 315.0010676144955, 315.11773428115555, 315.2344009478156, 315.3510676144756, 315.4677342811356, 315.58440094779564, 315.70106761445567, 315.8177342811157, 316.05106761444904]	2020_Nov_25_1235	59.79971257157196	1	0.375
1	53	FALSE	NV	a	['Z', 'G', 'M', 'K', 'J', 'H', 'Y', 'B', 'R', 'U', 'X', 'T', 'A', 'N', 'S', 'E']	[2911, 944, 1224, 1122, 1029, 986, 2670, 760, 1587, 2059, 4000, 1888, 697, 1335, 1731, 904]	11	Present	NA	NA	AUDITORY	0.1422560214996338	318.0131130218506	320.0208730697632	320.954213317182	321.3042164166035	324.1549370288849	4.134063959121704	[318.0498878955841, 318.1666069030762, 319.1382598876953, 319.3177819252014, 320.06870102882385, 320.1854500770569, 320.3023419380188, 320.41902589797974, 320.5359148979187, 320.6525340080261, 320.76934003829956, 320.88629388809204, 321.0030119419098, 321.1199450492859, 321.2364730834961, 321.35347294807434, 321.4700028896332, 321.58696603775024, 321.70379304885864, 321.82052993774414, 321.93721890449524, 322.1549370288849]	[318.05106761444904, 318.16773428110906, 319.15073428110907, 319.31743428110906, 320.06743428110906, 320.1841009477691, 320.3007676144291, 320.41743428108913, 320.53410094774915, 320.6507676144092, 320.7674342810692, 320.8841009477292, 321.00076761438925, 321.11743428104927, 321.2341009477093, 321.3507676143693, 321.46743428102934, 321.58410094768936, 321.7007676143494, 321.8174342810094, 321.93410094766944, 322.1674342810028]	2020_Nov_25_1235	59.79971257157196	1	0.375
1	54	FALSE	VA	a	['J', 'W', 'N', 'A', 'U', 'Y', 'S', 'G', 'R', 'P', 'surprise', 'T', 'H', 'X', 'B', 'E']	[1029, 2448, 1335, 697, 2059, 2670, 1731, 944, 1587, 1456, 'stimAuditory/all_stimAuditory/110.wav', 1888, 986, 4000, 760, 904]	14	Present	NA	NA	AUDITORY	0.2918269634246826	324.13664388656616	326.1369380950928	327.42027929616586	327.7702812034945	330.271301984787	4.134363889694214	[324.17341899871826, 324.2897720336914, 325.2546260356903, 325.4411129951477, 326.19181394577026, 326.308629989624, 326.425311088562, 326.54194808006287, 326.6590349674225, 326.7756700515747, 326.87566590309143, 326.9924108982086, 327.1092619895935, 327.22598004341125, 327.3428249359131, 327.4596209526062, 327.5764079093933, 327.69310903549194, 327.80991196632385, 327.9267020225525, 328.0435299873352, 328.271301984787]	[324.1674342810028, 324.2841009476628, 325.2671009476628, 325.4338009476628, 326.1838009476628, 326.3004676143228, 326.41713428098285, 326.5338009476429, 326.6504676143029, 326.7671342809629, 326.88380094762294, 327.00046761428297, 327.117134280943, 327.233800947603, 327.35046761426304, 327.46713428092306, 327.5838009475831, 327.7004676142431, 327.81713428090313, 327.93380094756316, 328.0504676142232, 328.28380094755653]	2020_Nov_25_1235	59.79971257157196	1	0.375
1	55	FALSE	NN	a	['C', 'K', 'J', 'Z', 'Y', 'M', 'H', 'T', 'P', 'N', 'S', 'G', 'V', 'E', 'B', 'A']	[829, 1122, 1029, 2911, 2670, 1224, 986, 1888, 1456, 1335, 1731, 944, 2245, 904, 760, 697]	12	Absent	NA	NA	AUDITORY	0.7043261528015137	330.24263310432434	332.25381302833557	333.30381994241435	333.6538220881616	336.3876700401306	4.133857011795044	[330.27940702438354, 330.39620089530945, 331.37099289894104, 331.5473749637604, 332.29800510406494, 332.41490292549133, 332.5317449569702, 332.6484830379486, 332.76533007621765, 332.88197898864746, 332.9989049434662, 333.11563205718994, 333.232458114624, 333.34918093681335, 333.4662940502167, 333.58293199539185, 333.69962096214294, 333.81648206710815, 333.93315291404724, 334.050008058548, 334.1667079925537, 334.3876690864563]	[330.28380094755653, 330.40046761421655, 331.38346761421656, 331.55016761421655, 332.30016761421655, 332.41683428087657, 332.5335009475366, 332.6501676141966, 332.76683428085664, 332.88350094751667, 333.0001676141767, 333.1168342808367, 333.23350094749674, 333.35016761415676, 333.4668342808168, 333.5835009474768, 333.70016761413683, 333.81683428079685, 333.9335009474569, 334.0501676141169, 334.1668342807769, 334.4001676141103]	2020_Nov_25_1235	59.79971257157196	1	0.375
1	56	FALSE	NV	a	['S', 'Z', 'U', 'Y', 'R', 'N', 'E', 'T', 'G', 'J', 'W', 'K', 'A', 'X', 'P', 'V']	[1731, 2911, 2059, 2670, 1587, 1335, 904, 1888, 944, 1029, 2448, 1122, 697, 4000, 1456, 2245]	14	Present	NA	NA	AUDITORY	0.25266194343566895	336.36569905281067	338.37007904052734	339.65342024160043	340.00342238734765	342.50403690338135	4.133957862854004	[336.40247201919556, 336.51929688453674, 337.48736000061035, 337.6704409122467, 338.4210960865021, 338.538006067276, 338.6546549797058, 338.77158308029175, 338.8884379863739, 339.0051701068878, 339.12180399894714, 339.2388439178467, 339.35541701316833, 339.47237491607666, 339.58916687965393, 339.7058959007263, 339.8225989341736, 339.939337015152, 340.056382894516, 340.1731159687042, 340.28971695899963, 340.50403690338135]	[336.4001676141103, 336.5168342807703, 337.4998342807703, 337.6665342807703, 338.4165342807703, 338.5332009474303, 338.64986761409034, 338.76653428075036, 338.8832009474104, 338.9998676140704, 339.11653428073043, 339.23320094739046, 339.3498676140505, 339.4665342807105, 339.5832009473705, 339.69986761403055, 339.8165342806906, 339.9332009473506, 340.0498676140106, 340.16653428067065, 340.28320094733067, 340.516534280664]	2020_Nov_25_1235	59.79971257157196	1	0.375
1	57	FALSE	NA	a	['Y', 'A', 'G', 'R', 'B', 'V', 'W', 'X', 'C', 'S', 'E', 'Z', 'T', 'M', 'K', 'P']	[2670, 697, 944, 1587, 760, 2245, 2448, 4000, 829, 1731, 904, 2911, 1888, 1224, 1122, 1456]	8	Present	NA	NA	AUDITORY	0.05797290802001953	342.48860692977905	344.48646306991577	345.0698042710289	345.4198064167761	348.62040400505066	4.133940935134888	[342.52538204193115, 342.62544798851013, 343.60372710227966, 343.7768590450287, 344.54429292678833, 344.64441990852356, 344.76098108291626, 344.8778290748596, 344.99458503723145, 345.1115050315857, 345.22840905189514, 345.34506702423096, 345.46191906929016, 345.57867789268494, 345.69553899765015, 345.81217908859253, 345.9290680885315, 346.04584097862244, 346.16245889663696, 346.27951097488403, 346.3960690498352, 346.62040400505066]	[342.516534280664, 342.63320094732404, 343.61620094732405, 343.78290094732404, 344.53290094732404, 344.64956761398406, 344.7662342806441, 344.8829009473041, 344.99956761396413, 345.11623428062416, 345.2329009472842, 345.3495676139442, 345.4662342806042, 345.58290094726425, 345.6995676139243, 345.8162342805843, 345.9329009472443, 346.04956761390434, 346.16623428056437, 346.2829009472244, 346.3995676138844, 346.63290094721776]	2020_Nov_25_1235	59.79971257157196	1	0.375
1	58	FALSE	NN	a	['E', 'V', 'J', 'C', 'M', 'S', 'R', 'G', 'W', 'K', 'B', 'Y', 'P', 'U', 'N', 'Z']	[904, 2245, 1029, 829, 1224, 1731, 1587, 944, 2448, 1122, 760, 2670, 1456, 2059, 1335, 2911]	13	Absent	NA	NA	ABSENT	0.2626171112060547	348.5951850414276	350.60265493392944	351.76932970676114	352.1193316140898	354.7367699146271	4.134114980697632	[348.6319589614868, 348.7486410140991, 349.7200930118561, 349.8999180793762, 350.6505789756775, 350.7674570083618, 350.88417291641235, 351.0009329319, 351.117919921875, 351.2345519065857, 351.3512420654297, 351.46815609931946, 351.5850040912628, 351.7015619277954, 351.81840205192566, 351.9351921081543, 352.0520749092102, 352.1687219142914, 352.2857630252838, 352.402302980423, 352.519504070282, 352.73676896095276]	[348.63290094721776, 348.7495676138778, 349.7325676138778, 349.8992676138778, 350.6492676138778, 350.7659342805378, 350.88260094719783, 350.99926761385785, 351.1159342805179, 351.2326009471779, 351.3492676138379, 351.46593428049795, 351.58260094715797, 351.699267613818, 351.815934280478, 351.93260094713804, 352.04926761379807, 352.1659342804581, 352.2826009471181, 352.39926761377814, 352.51593428043816, 352.7492676137715]	2020_Nov_25_1235	59.79971257157196	1	0.375
1	59	FALSE	NA	a	['J', 'K', 'Y', 'H', 'M', 'W', 'A', 'T', 'N', 'Z', 'E', 'C', 'V', 'X', 'R', 'G']	[1029, 1122, 2670, 986, 1224, 2448, 697, 1888, 1335, 2911, 904, 829, 2245, 4000, 1587, 944]	14	Present	NA	NA	AUDITORY	0.08417105674743652	354.71846199035645	356.7191081047058	358.0024493057789	358.35245121310754	360.85313606262207	4.13402795791626	[354.75523591041565, 354.8718559741974, 355.8364610671997, 356.02292799949646, 356.7736179828644, 356.89039301872253, 357.00753808021545, 357.124165058136, 357.2409620285034, 357.35751700401306, 357.4576630592346, 357.5743091106415, 357.691123008728, 357.80798602104187, 357.92474699020386, 358.0414938926697, 358.15831899642944, 358.2751340866089, 358.39189100265503, 358.50875210762024, 358.62544989585876, 358.85313606262207]	[354.7492676137715, 354.86593428043153, 355.84893428043154, 356.0156342804315, 356.7656342804315, 356.88230094709155, 356.9989676137516, 357.1156342804116, 357.2323009470716, 357.34896761373165, 357.46563428039167, 357.5823009470517, 357.6989676137117, 357.81563428037174, 357.93230094703176, 358.0489676136918, 358.1656342803518, 358.28230094701183, 358.39896761367186, 358.5156342803319, 358.6323009469919, 358.86563428032525]	2020_Nov_25_1235	59.79971257157196	1	0.375
1	60	FALSE	NN	a	['R', 'K', 'U', 'M', 'E', 'P', 'C', 'N', 'H', 'Z', 'G', 'A', 'B', 'W', 'J', 'V']	[1587, 1122, 2059, 1224, 904, 1456, 829, 1335, 986, 2911, 944, 697, 760, 2448, 1029, 2245]	13	Absent	NA	NA	ABSENT	0.26453208923339844	360.82456398010254	362.8353600502014	364.0020336309402	364.35203553826886	366.9695019721985	4.13414192199707	[360.86133790016174, 360.9779279232025, 361.9528269767761, 362.12930607795715, 362.8800230026245, 362.99681305885315, 363.11351108551025, 363.2304790019989, 363.34706807136536, 363.4640839099884, 363.58070707321167, 363.69752502441406, 363.81451511383057, 363.9311330318451, 364.04802894592285, 364.1648619174957, 364.28137493133545, 364.39872193336487, 364.5150339603424, 364.6320130825043, 364.7486789226532, 364.9695029258728]	[360.86563428032525, 360.9823009469853, 361.9653009469853, 362.1320009469853, 362.8820009469853, 362.9986676136453, 363.1153342803053, 363.23200094696534, 363.34866761362537, 363.4653342802854, 363.5820009469454, 363.69866761360544, 363.81533428026546, 363.9320009469255, 364.0486676135855, 364.16533428024553, 364.28200094690555, 364.3986676135656, 364.5153342802256, 364.6320009468856, 364.74866761354565, 364.982000946879]	2020_Nov_25_1235	59.79971257157196	1	0.375
1	61	FALSE	NA	a	['W', 'V', 'K', 'T', 'S', 'B', 'A', 'Z', 'J', 'X', 'Y', 'U', 'M', 'N', 'E', 'P']	[2448, 2245, 1122, 1888, 1731, 760, 697, 2911, 1029, 4000, 2670, 2059, 1224, 1335, 904, 1456]	10	Present	NA	NA	AUDITORY	0.06905102729797363	366.9475259780884	368.95187497138977	369.76854855214856	370.1185516515701	373.0858690738678	4.133994102478027	[366.9843111038208, 367.1012840270996, 368.06919288635254, 368.2522599697113, 369.0030870437622, 369.1199700832367, 369.2368609905243, 369.35352993011475, 369.4703230857849, 369.5871410369873, 369.70390701293945, 369.8207368850708, 369.93739795684814, 370.05420303344727, 370.17089104652405, 370.2878849506378, 370.4046220779419, 370.5213348865509, 370.63822889328003, 370.75483798980713, 370.8718559741974, 371.0858700275421]	[366.982000946879, 367.098667613539, 368.081667613539, 368.248367613539, 368.998367613539, 369.11503428019904, 369.23170094685906, 369.3483676135191, 369.4650342801791, 369.58170094683913, 369.69836761349916, 369.8150342801592, 369.9317009468192, 370.04836761347923, 370.16503428013925, 370.2817009467993, 370.3983676134593, 370.5150342801193, 370.63170094677935, 370.74836761343937, 370.8650342800994, 371.09836761343274]	2020_Nov_25_1235	59.79971257157196	1	0.375
1	62	FALSE	VA	a	['B', 'V', 'M', 'A', 'Z', 'surprise', 'P', 'Y', 'X', 'H', 'J', 'C', 'W', 'T', 'N', 'K']	[760, 2245, 1224, 697, 2911, 'stimAuditory/all_stimAuditory/107.wav', 1456, 2670, 4000, 986, 1029, 829, 2448, 1888, 1335, 1122]	9	Present	NA	NA	AUDITORY	0.05834293365478515	373.0707221031189	375.0683519840241	375.76836009021577	376.1183619975443	379.2022359371186	4.133883953094482	[373.1074960231781, 373.2074511051178, 374.1855568885803, 374.35862493515015, 375.12664008140564, 375.22635293006897, 375.34314703941345, 375.4599220752716, 375.5767889022827, 375.6934530735016, 375.81011509895325, 375.92705392837524, 376.0438859462738, 376.160630941391, 376.2772240638733, 376.394238948822, 376.51110196113586, 376.62788009643555, 376.7444109916687, 376.8611979484558, 376.9781289100647, 377.20223689079285]	[373.09836761343274, 373.21503428009277, 374.19803428009277, 374.36473428009276, 375.11473428009276, 375.2314009467528, 375.3480676134128, 375.46473428007283, 375.58140094673286, 375.6980676133929, 375.8147342800529, 375.9314009467129, 376.04806761337295, 376.164734280033, 376.281400946693, 376.398067613353, 376.51473428001304, 376.63140094667307, 376.7480676133331, 376.8647342799931, 376.98140094665314, 377.2147342799865]	2020_Nov_25_1235	59.79971257157196	1	0.375
1	63	FALSE	NA	a	['Y', 'K', 'C', 'A', 'E', 'N', 'T', 'J', 'H', 'R', 'V', 'X', 'P', 'W', 'M', 'G']	[2670, 1122, 829, 697, 904, 1335, 1888, 1029, 986, 1587, 2245, 4000, 1456, 2448, 1224, 944]	12	Present	NA	NA	AUDITORY	0.11880111694335938	379.176903963089	381.1845989227295	382.2346070289012	382.5846089362298	385.31860303878784	4.13400411605835	[379.2136778831482, 379.33061599731445, 380.30192708969116, 380.48190689086914, 381.23249888420105, 381.349406003952, 381.4660539627075, 381.58295702934265, 381.69966411590576, 381.81652307510376, 381.9332220554352, 382.049978017807, 382.16689109802246, 382.2837851047516, 382.40041303634644, 382.51730489730835, 382.6339340209961, 382.75073194503784, 382.8677730560303, 382.98435401916504, 383.101331949234, 383.31860303878784]	[379.2147342799865, 379.3314009466465, 380.3144009466465, 380.4811009466465, 381.2311009466465, 381.34776761330653, 381.46443427996655, 381.5811009466266, 381.6977676132866, 381.8144342799466, 381.93110094660665, 382.04776761326667, 382.1644342799267, 382.2811009465867, 382.39776761324674, 382.51443427990677, 382.6311009465668, 382.7477676132268, 382.86443427988684, 382.98110094654686, 383.0977676132069, 383.33110094654023]	2020_Nov_25_1235	59.79971257157196	1	0.375
1	64	FALSE	NA	a	['T', 'W', 'C', 'Y', 'A', 'J', 'E', 'K', 'X', 'V', 'H', 'S', 'M', 'B', 'P', 'N']	[1888, 2448, 829, 2670, 697, 1029, 904, 1122, 4000, 2245, 986, 1731, 1224, 760, 1456, 1335]	9	Present	NA	NA	AUDITORY	0.0361790657043457	385.3004500865936	387.3008599281311	388.0008670806485	388.3508689879771	391.43496894836426	4.134109020233154	[385.33722400665283, 385.45374393463135, 386.41829204559326, 386.60481095314026, 387.3556170463562, 387.47254610061646, 387.5893340110779, 387.7061469554901, 387.8228089809418, 387.9397211074829, 388.0565230846405, 388.1564259529114, 388.27319288253784, 388.389986038208, 388.5067310333252, 388.62352991104126, 388.7403099536896, 388.85711002349854, 388.97392296791077, 389.0907189846039, 389.2075181007385, 389.43496894836426]	[385.33110094654023, 385.44776761320026, 386.43076761320026, 386.59746761320025, 387.34746761320025, 387.4641342798603, 387.5808009465203, 387.6974676131803, 387.81413427984035, 387.93080094650037, 388.0474676131604, 388.1641342798204, 388.28080094648044, 388.39746761314046, 388.5141342798005, 388.6308009464605, 388.74746761312053, 388.86413427978056, 388.9808009464406, 389.0974676131006, 389.21413427976063, 389.447467613094]	2020_Nov_25_1235	59.79971257157196	1	0.375
1	65	FALSE	VV	a	['J', 'Z', 'V', 'K', 'Y', 'M', 'surprise', 'C', 'E', 'X', 'A', 'S', 'N', 'T', 'B', 'P']	[1029, 2911, 2245, 1122, 2670, 1224, 'stimAuditory/all_stimAuditory/204.wav', 829, 904, 4000, 697, 1731, 1335, 1888, 760, 1456]	10	Present	NA	NA	AUDITORY	0.09677791595458984	391.40635895729065	393.41718006134033	394.2338536420991	394.58385554942777	397.5513370037079	4.134156942367554	[391.44313406944275, 391.560005903244, 392.5346601009369, 392.7112030982971, 393.4619851112366, 393.57891392707825, 393.69556403160095, 393.8124439716339, 393.9292869567871, 394.04609298706055, 394.16270089149475, 394.27963495254517, 394.39660811424255, 394.51298904418945, 394.6298830509186, 394.7468180656433, 394.8634328842163, 394.98028802871704, 395.0970079898834, 395.2138419151306, 395.3307340145111, 395.55133605003357]	[391.447467613094, 391.564134279754, 392.547134279754, 392.713834279754, 393.463834279754, 393.580500946414, 393.69716761307404, 393.81383427973407, 393.9305009463941, 394.0471676130541, 394.16383427971414, 394.28050094637416, 394.3971676130342, 394.5138342796942, 394.63050094635423, 394.74716761301426, 394.8638342796743, 394.9805009463343, 395.0971676129943, 395.21383427965435, 395.3305009463144, 395.5638342796477]	2020_Nov_25_1235	59.79971257157196	1	0.375
1	66	FALSE	NN	a	['G', 'W', 'J', 'V', 'N', 'K', 'U', 'M', 'Y', 'R', 'T', 'E', 'C', 'S', 'B', 'A']	[944, 2448, 1029, 2245, 1335, 1122, 2059, 1224, 2670, 1587, 1888, 904, 829, 1731, 760, 697]	13	Absent	NA	NA	ABSENT	0.22933697700500488	397.5294280052185	399.5336050987244	400.7002796331375	401.0502815404662	403.6677029132843	4.1340978145599365	[397.5662031173706, 397.6832630634308, 398.6510241031647, 398.83436489105225, 399.5850350856781, 399.70190691947937, 399.8187310695648, 399.935467004776, 400.05231189727783, 400.1689119338989, 400.285945892334, 400.40265107154846, 400.5193569660187, 400.63626408576965, 400.75309896469116, 400.8697509765625, 400.9866850376129, 401.10330295562744, 401.2200310230255, 401.3367819786072, 401.4537560939789, 401.6677029132843]	[397.5638342796477, 397.68050094630775, 398.66350094630775, 398.83020094630774, 399.58020094630774, 399.69686761296776, 399.8135342796278, 399.9302009462878, 400.04686761294784, 400.16353427960786, 400.2802009462679, 400.3968676129279, 400.51353427958793, 400.63020094624795, 400.746867612908, 400.863534279568, 400.980200946228, 401.09686761288805, 401.21353427954807, 401.3302009462081, 401.4468676128681, 401.68020094620147]	2020_Nov_25_1235	59.79971257157196	1	0.375
1	67	FALSE	NN	a	['M', 'J', 'Z', 'B', 'R', 'V', 'K', 'A', 'H', 'U', 'P', 'G', 'S', 'C', 'N', 'Y']	[1224, 1029, 2911, 760, 1587, 2245, 1122, 697, 986, 2059, 1456, 944, 1731, 829, 1335, 2670]	9	Absent	NA	NA	ABSENT	0.26652002334594727	403.6525089740753	405.65007495880127	406.350083064993	406.7000849723216	409.7840700149536	4.133995056152344	[403.6892840862274, 403.78928804397583, 404.7673931121826, 404.94094610214233, 405.6912078857422, 405.8082950115204, 405.92480397224426, 406.04188895225525, 406.1586010456085, 406.275465965271, 406.3920578956604, 406.50908493995667, 406.6256079673767, 406.74254298210144, 406.85928297042847, 406.9761550426483, 407.09288597106934, 407.20988488197327, 407.3265290260315, 407.44344091415405, 407.5601499080658, 407.7840690612793]	[403.68020094620147, 403.7968676128615, 404.7798676128615, 404.9465676128615, 405.6965676128615, 405.8132342795215, 405.92990094618153, 406.04656761284156, 406.1632342795016, 406.2799009461616, 406.3965676128216, 406.51323427948165, 406.6299009461417, 406.7465676128017, 406.8632342794617, 406.97990094612175, 407.09656761278177, 407.2132342794418, 407.3299009461018, 407.44656761276184, 407.56323427942186, 407.7965676127552]	2020_Nov_25_1235	59.79971257157196	1	0.375
1	68	FALSE	NN	a	['H', 'C', 'T', 'W', 'K', 'A', 'B', 'Z', 'U', 'N', 'E', 'M', 'R', 'P', 'G', 'Y']	[986, 829, 1888, 2448, 1122, 697, 760, 2911, 2059, 1335, 904, 1224, 1587, 1456, 944, 2670]	11	Absent	NA	NA	ABSENT	0.17521095275878906	409.75903391838074	411.766361951828	412.6997024376654	413.0497052986683	415.9004371166229	4.134075164794922	[409.7958080768585, 409.9125680923462, 410.88376092910767, 411.0638439655304, 411.8143970966339, 411.931401014328, 412.0480399131775, 412.16492104530334, 412.28166699409485, 412.39837408065796, 412.5151538848877, 412.63215708732605, 412.74874901771545, 412.86575508117676, 412.9825038909912, 413.09898591041565, 413.2160680294037, 413.33263301849365, 413.4496400356293, 413.56644010543823, 413.6831259727478, 413.9004349708557]	[409.7965676127552, 409.91323427941524, 410.89623427941524, 411.06293427941523, 411.81293427941523, 411.92960094607525, 412.0462676127353, 412.1629342793953, 412.2796009460553, 412.39626761271535, 412.5129342793754, 412.6296009460354, 412.7462676126954, 412.86293427935544, 412.97960094601547, 413.0962676126755, 413.2129342793355, 413.32960094599554, 413.44626761265556, 413.5629342793156, 413.6796009459756, 413.91293427930896]	2020_Nov_25_1235	59.79971257157196	1	0.375
1	69	FALSE	NN	a	['M', 'H', 'B', 'S', 'Y', 'U', 'C', 'A', 'J', 'N', 'Z', 'E', 'V', 'K', 'G', 'W']	[1224, 986, 760, 1731, 2670, 2059, 829, 697, 1029, 1335, 2911, 904, 2245, 1122, 944, 2448]	9	Absent	NA	NA	ABSENT	0.15662479400634766	415.88223004341125	417.8828990459442	418.58290596004304	418.9329078673716	422.01680302619934	4.133903980255127	[415.9190049171448, 416.0357840061188, 417.000128030777, 417.1869580745697, 417.9376029968262, 418.0542230606079, 418.1712510585785, 418.28784108161926, 418.40479588508606, 418.5047039985657, 418.6215250492096, 418.7383279800415, 418.85513401031494, 418.9719319343567, 419.08873891830444, 419.20543003082275, 419.32226300239563, 419.4390449523926, 419.55584192276, 419.67259788513184, 419.78953194618225, 420.01680397987366]	[415.91293427930896, 416.029600945969, 417.012600945969, 417.179300945969, 417.929300945969, 418.045967612629, 418.162634279289, 418.27930094594905, 418.39596761260907, 418.5126342792691, 418.6293009459291, 418.74596761258914, 418.86263427924916, 418.9793009459092, 419.0959676125692, 419.21263427922923, 419.32930094588926, 419.4459676125493, 419.5626342792093, 419.67930094586933, 419.79596761252935, 420.0293009458627]	2020_Nov_25_1235	59.79971257157196	1	0.375
1	70	FALSE	NV	a	['P', 'V', 'U', 'J', 'R', 'B', 'W', 'C', 'N', 'Z', 'K', 'X', 'H', 'G', 'S', 'T']	[1456, 2245, 2059, 1029, 1587, 760, 2448, 829, 1335, 2911, 1122, 4000, 986, 944, 1731, 1888]	12	Present	NA	NA	AUDITORY	0.03287291526794433	421.98840403556824	423.998988866806	425.0489960193034	425.398997926632	428.1331698894501	4.134181022644043	[422.02517795562744, 422.1420269012451, 423.11649107933044, 423.29313111305237, 424.0438199043274, 424.1608920097351, 424.277517080307, 424.3944480419159, 424.5111210346222, 424.62794303894043, 424.7446599006653, 424.86144495010376, 424.97830510139465, 425.09503698349, 425.2117910385132, 425.3287079334259, 425.44578194618225, 425.5623550415039, 425.6791310310364, 425.79575300216675, 425.91271901130676, 426.13316893577576]	[422.0293009458627, 422.1459676125227, 423.12896761252273, 423.2956676125227, 424.0456676125227, 424.16233427918274, 424.27900094584277, 424.3956676125028, 424.5123342791628, 424.62900094582284, 424.74566761248286, 424.8623342791429, 424.9790009458029, 425.09566761246293, 425.21233427912296, 425.329000945783, 425.445667612443, 425.562334279103, 425.67900094576305, 425.7956676124231, 425.9123342790831, 426.14566761241645]	2020_Nov_25_1235	59.79971257157196	1	0.375
1	71	FALSE	NN	a	['H', 'Z', 'G', 'C', 'A', 'U', 'V', 'W', 'N', 'Y', 'S', 'B', 'J', 'T', 'E', 'K']	[986, 2911, 944, 829, 697, 2059, 2245, 2448, 1335, 2670, 1731, 760, 1029, 1888, 904, 1122]	12	Absent	NA	NA	ABSENT	0.1976170539855957	428.1115040779114	430.1154770851135	431.1654839991923	431.51548590652095	434.2495369911194	4.134059906005859	[428.1482779979706, 428.265114068985, 429.2328600883484, 429.41621494293213, 430.16690707206726, 430.28365898132324, 430.40076994895935, 430.51736187934875, 430.6343901157379, 430.75087308883667, 430.86787509918213, 430.98453092575073, 431.1014471054077, 431.2181820869446, 431.33491110801697, 431.4516260623932, 431.56864404678345, 431.6852490901947, 431.802227973938, 431.91888093948364, 432.0357370376587, 432.24953603744507]	[428.14566761241645, 428.26233427907647, 429.2453342790765, 429.41203427907647, 430.16203427907647, 430.2787009457365, 430.3953676123965, 430.51203427905654, 430.62870094571656, 430.7453676123766, 430.8620342790366, 430.97870094569663, 431.09536761235665, 431.2120342790167, 431.3287009456767, 431.4453676123367, 431.56203427899675, 431.6787009456568, 431.7953676123168, 431.9120342789768, 432.02870094563684, 432.2620342789702]	2020_Nov_25_1235	59.79971257157196	1	0.375
1	72	FALSE	NN	a	['S', 'K', 'N', 'Z', 'Y', 'T', 'E', 'C', 'A', 'W', 'B', 'R', 'U', 'J', 'P', 'G']	[1731, 1122, 1335, 2911, 2670, 1888, 904, 829, 697, 2448, 760, 1587, 2059, 1029, 1456, 944]	14	Absent	NA	NA	ABSENT	0.10694384574890135	434.2346379756927	436.2319190502167	437.51525929761544	437.8652612049441	440.3659019470215	4.13398289680481	[434.27141189575195, 434.3713610172272, 435.3492259979248, 435.52305603027344, 436.27331590652466, 436.39030504226685, 436.50688004493713, 436.6238479614258, 436.74045491218567, 436.8574221134186, 436.9742031097412, 437.09099793434143, 437.2077178955078, 437.32458305358887, 437.44119596481323, 437.55823588371277, 437.67484188079834, 437.7917959690094, 437.90843296051025, 438.025288105011, 438.14212799072266, 438.3659019470215]	[434.2620342789702, 434.3787009456302, 435.3617009456302, 435.5284009456302, 436.2784009456302, 436.39506761229023, 436.51173427895026, 436.6284009456103, 436.7450676122703, 436.8617342789303, 436.97840094559035, 437.0950676122504, 437.2117342789104, 437.3284009455704, 437.44506761223045, 437.56173427889047, 437.6784009455505, 437.7950676122105, 437.91173427887054, 438.02840094553056, 438.1450676121906, 438.37840094552394]	2020_Nov_25_1235	59.79971257157196	1	0.375
1	73	FALSE	VA	a	['W', 'K', 'Y', 'M', 'N', 'surprise', 'S', 'G', 'X', 'C', 'B', 'P', 'Z', 'H', 'E', 'V']	[2448, 1122, 2670, 1224, 1335, 'stimAuditory/all_stimAuditory/119.wav', 1731, 944, 4000, 829, 760, 1456, 2911, 986, 904, 2245]	9	Present	NA	NA	AUDITORY	0.135422945022583	440.3410210609436	442.3481330871582	443.04814095493134	443.3981431006785	446.4822690486908	4.134135961532593	[440.3778169155121, 440.4946069717407, 441.4655930995941, 441.6456289291382, 442.39644289016724, 442.5133469104767, 442.63010001182556, 442.7469530105591, 442.8637330532074, 442.98046493530273, 443.0972399711609, 443.2140920162201, 443.3308598995209, 443.4474461078644, 443.5644199848175, 443.68112206459045, 443.798052072525, 443.9147799015045, 444.0315270423889, 444.14817810058594, 444.2651319503784, 444.4822700023651]	[440.37840094552394, 440.49506761218396, 441.47806761218396, 441.64476761218395, 442.39476761218395, 442.511434278844, 442.628100945504, 442.744767612164, 442.86143427882405, 442.9781009454841, 443.0947676121441, 443.2114342788041, 443.32810094546414, 443.44476761212417, 443.5614342787842, 443.6781009454442, 443.79476761210424, 443.91143427876426, 444.0281009454243, 444.1447676120843, 444.26143427874433, 444.4947676120777]	2020_Nov_25_1235	59.79971257157196	1	0.375
1	74	FALSE	NN	a	['Y', 'V', 'C', 'Z', 'E', 'T', 'W', 'U', 'N', 'M', 'B', 'P', 'A', 'S', 'R', 'G']	[2670, 2245, 829, 2911, 904, 1888, 2448, 2059, 1335, 1224, 760, 1456, 697, 1731, 1587, 944]	10	Absent	NA	NA	ABSENT	0.23681306838989255	446.4641978740692	448.46430587768555	449.2809806505372	449.6309825578659	452.5986371040344	4.134331226348877	[446.5009729862213, 446.61744499206543, 447.58195996284485, 447.7686040401459, 448.519495010376, 448.63628005981445, 448.7531669139862, 448.8530979156494, 448.9698739051819, 449.0867409706116, 449.2035119533539, 449.32033109664917, 449.43705105781555, 449.5538239479065, 449.6706130504608, 449.7873361110687, 449.90422201156616, 450.0209391117096, 450.1377499103546, 450.2545518875122, 450.37136006355286, 450.5986371040344]	[446.4947676120777, 446.6114342787377, 447.5944342787377, 447.7611342787377, 448.5111342787377, 448.6278009453977, 448.74446761205775, 448.86113427871777, 448.9778009453778, 449.0944676120378, 449.21113427869784, 449.32780094535786, 449.4444676120179, 449.5611342786779, 449.67780094533794, 449.79446761199796, 449.911134278658, 450.027800945318, 450.14446761197803, 450.26113427863805, 450.3778009452981, 450.6111342786314]	2020_Nov_25_1235	59.79971257157196	1	0.375
1	75	FALSE	NN	a	['Z', 'G', 'T', 'C', 'S', 'E', 'H', 'J', 'Y', 'P', 'R', 'U', 'K', 'A', 'W', 'M']	[2911, 944, 1888, 829, 1731, 904, 986, 1029, 2670, 1456, 1587, 2059, 1122, 697, 2448, 1224]	14	Absent	NA	NA	ABSENT	0.1451210975646973	452.5703830718994	454.5810179710388	455.8643594105305	456.2143603641848	458.7150020599365	4.133984088897705	[452.6071569919586, 452.7239410877228, 453.6983280181885, 453.875118970871, 454.6258659362793, 454.74260091781616, 454.8594069480896, 454.9761459827423, 455.0929899215698, 455.2098081111908, 455.32666397094727, 455.4434599876404, 455.560350894928, 455.67711305618286, 455.7937219142914, 455.9106559753418, 456.02747106552124, 456.14429092407227, 456.26106309890747, 456.37801003456116, 456.49462389945984, 456.71500301361084]	[452.6111342786314, 452.72780094529145, 453.71080094529145, 453.87750094529144, 454.62750094529144, 454.74416761195147, 454.8608342786115, 454.9775009452715, 455.09416761193154, 455.21083427859156, 455.3275009452516, 455.4441676119116, 455.56083427857163, 455.67750094523166, 455.7941676118917, 455.9108342785517, 456.0275009452117, 456.14416761187175, 456.2608342785318, 456.3775009451918, 456.4941676118518, 456.72750094518517]	2020_Nov_25_1235	59.79971257157196	1	0.375
1	76	FALSE	NV	a	['Y', 'Z', 'J', 'S', 'H', 'B', 'C', 'E', 'G', 'M', 'W', 'R', 'N', 'X', 'K', 'U']	[2670, 2911, 1029, 1731, 986, 760, 829, 904, 944, 1224, 2448, 1587, 1335, 4000, 1122, 2059]	14	Present	NA	NA	AUDITORY	0.15799999237060547	458.6935250759125	460.69746804237366	461.9808104355397	462.3308123428683	464.83136892318726	4.133900880813599	[458.7302989959717, 458.8471601009369, 459.81469202041626, 459.9984040260315, 460.74898290634155, 460.8657670021057, 460.9826560020447, 461.09930896759033, 461.21625208854675, 461.3328559398651, 461.44973492622375, 461.5664780139923, 461.683296918869, 461.80020093917847, 461.91702103614807, 462.0335838794708, 462.15030789375305, 462.26724910736084, 462.3840889930725, 462.50098299980164, 462.61747694015503, 462.83136892318726]	[458.72750094518517, 458.8441676118452, 459.8271676118452, 459.9938676118452, 460.7438676118452, 460.8605342785052, 460.97720094516524, 461.09386761182526, 461.2105342784853, 461.3272009451453, 461.44386761180533, 461.56053427846535, 461.6772009451254, 461.7938676117854, 461.9105342784454, 462.02720094510545, 462.1438676117655, 462.2605342784255, 462.3772009450855, 462.49386761174554, 462.61053427840557, 462.8438676117389]	2020_Nov_25_1235	59.79971257157196	1	0.375
1	77	FALSE	NV	a	['J', 'H', 'N', 'G', 'M', 'K', 'S', 'V', 'T', 'U', 'X', 'R', 'Z', 'E', 'C', 'Y']	[1029, 986, 1335, 944, 1224, 1122, 1731, 2245, 1888, 2059, 4000, 1587, 2911, 904, 829, 2670]	11	Present	NA	NA	AUDITORY	0.1070549488067627	464.8166949748993	466.81373405456543	467.74707525565856	468.0970774014057	470.94773602485657	4.134001970291138	[464.8534679412842, 464.9532790184021, 465.9310600757599, 466.1045289039612, 466.85546803474426, 466.9721930027008, 467.088809967041, 467.2058210372925, 467.3224530220032, 467.4394769668579, 467.5560510158539, 467.67273902893066, 467.7897939682007, 467.9065179824829, 468.02326011657715, 468.13997507095337, 468.2568039894104, 468.37377095222473, 468.49047803878784, 468.6072509288788, 468.72403597831726, 468.9477369785309]	[464.8438676117389, 464.96053427839894, 465.94353427839894, 466.11023427839893, 466.86023427839893, 466.97690094505896, 467.093567611719, 467.210234278379, 467.32690094503903, 467.44356761169905, 467.5602342783591, 467.6769009450191, 467.7935676116791, 467.91023427833915, 468.02690094499917, 468.1435676116592, 468.2602342783192, 468.37690094497924, 468.49356761163926, 468.6102342782993, 468.7269009449593, 468.96023427829266]	2020_Nov_25_1235	59.79971257157196	1	0.375
1	78	FALSE	NA	a	['U', 'P', 'R', 'A', 'T', 'J', 'C', 'Y', 'S', 'X', 'B', 'H', 'M', 'N', 'W', 'V']	[2059, 1456, 1587, 697, 1888, 1029, 829, 2670, 1731, 4000, 760, 986, 1224, 1335, 2448, 2245]	10	Present	NA	NA	AUDITORY	0.11977100372314452	470.9228649139404	472.930025100708	473.7466986814668	474.09670058879544	477.064101934433	4.134076833724976	[470.9596390724182, 471.076623916626, 472.0474259853363, 472.2276780605316, 472.9783959388733, 473.09542298316956, 473.2121059894562, 473.32887411117554, 473.44562888145447, 473.56238293647766, 473.6791980266571, 473.7960228919983, 473.9126501083374, 474.029541015625, 474.14634108543396, 474.2629859447479, 474.37990403175354, 474.49658489227295, 474.6134150028229, 474.73022389411926, 474.8470039367676, 475.0641028881073]	[470.96023427829266, 471.0769009449527, 472.0599009449527, 472.2266009449527, 472.9766009449527, 473.0932676116127, 473.2099342782727, 473.32660094493275, 473.4432676115928, 473.5599342782528, 473.6766009449128, 473.79326761157284, 473.90993427823287, 474.0266009448929, 474.1432676115529, 474.25993427821294, 474.37660094487296, 474.493267611533, 474.609934278193, 474.72660094485303, 474.84326761151306, 475.0766009448464]	2020_Nov_25_1235	59.79971257157196	1	0.375
1	79	FALSE	VN	a	['M', 'A', 'J', 'G', 'W', 'R', 'T', 'U', 'surprise', 'K', 'H', 'E', 'V', 'Z', 'S', 'P']	[1224, 697, 1029, 944, 2448, 1587, 1888, 2059, 'stimAuditory/all_stimAuditory/223.wav', 1122, 986, 904, 2245, 2911, 1731, 1456]	12	Absent	NA	NA	ABSENT	0.12493586540222168	477.04627799987793	479.0464580059051	480.09646587365825	480.4464680194055	483.1804699897766	4.13401198387146	[477.08305191993713, 477.1995520591736, 478.1637930870056, 478.3508439064026, 479.101665019989, 479.2014539241791, 479.3181960582733, 479.4349799156189, 479.5517599582672, 479.668643951416, 479.7853970527649, 479.9021620750427, 480.01899099349976, 480.1357579231262, 480.25255489349365, 480.36928391456604, 480.4862790107727, 480.60295701026917, 480.7196888923645, 480.8366639614105, 480.95330595970154, 481.1804690361023]	[477.0766009448464, 477.1932676115064, 478.17626761150643, 478.3429676115064, 479.0929676115064, 479.20963427816645, 479.32630094482647, 479.4429676114865, 479.5596342781465, 479.67630094480654, 479.79296761146657, 479.9096342781266, 480.0263009447866, 480.14296761144664, 480.25963427810666, 480.3763009447667, 480.4929676114267, 480.60963427808673, 480.72630094474675, 480.8429676114068, 480.9596342780668, 481.19296761140015]	2020_Nov_25_1235	59.79971257157196	1	0.375
