participant	trial_num	practice	task	condition	RSVP	RAP	probePos	probe_presence	surprise_sound	surprise_img	probe_response	probe_resp_time	first_fixation_time	trial_start_time	surprise_start_time	probe_start_time	trial_end_time	trial_duration	actualEventTimes	plannedEventTimes	date	framerate	marker_vol	RAP_vol
5	1	FALSE	NA	a	['G', 'N', 'R', 'H', 'K', 'J', 'W', 'U', 'Y', 'V', 'C', 'X', 'T', 'E', 'Z', 'P']	[944, 1335, 1587, 986, 1122, 1029, 2448, 2059, 2670, 2245, 829, 4000, 1888, 904, 2911, 1456]	12	Present	NA	NA	PRESENT	0.549591064453125	1.9073486328125e-6	2.000680923461914	3.050690936982236	3.400692844310869	6.1038689613342285	4.1031880378723145	[0.009068012237548828, 0.12560391426086426, 1.087190866470337, 1.2599198818206787, 2.0274930000305176, 2.1275148391723633, 2.244386911392212, 2.361268997192383, 2.4778900146484375, 2.594836950302124, 2.7114150524139404, 2.828356981277466, 2.9450008869171143, 3.0620200634002686, 3.1786739826202393, 3.2956559658050537, 3.412255048751831, 3.528970956802368, 3.6458919048309326, 3.7625279426574707, 3.8794710636138916, 4.1038689613342285]	[9.5367431640625e-07, 0.11666762033431641, 1.0996676203343163, 1.2663676203343164, 2.016367620334316, 2.133034286994316, 2.249700953654316, 2.3663676203143162, 2.4830342869743163, 2.5997009536343163, 2.7163676202943163, 2.8330342869543164, 2.9497009536143164, 3.0663676202743164, 3.1830342869343164, 3.2997009535943165, 3.4163676202543165, 3.5330342869143165, 3.6497009535743166, 3.7663676202343166, 3.8830342868943166, 4.11636762022765]	2020_Nov_26_1249	59.97397598355054	1	0.375
5	2	FALSE	NV	a	['Z', 'N', 'P', 'R', 'B', 'S', 'W', 'J', 'U', 'T', 'Y', 'C', 'X', 'A', 'V', 'G']	[2911, 1335, 1456, 1587, 760, 1731, 2448, 1029, 2059, 1888, 2670, 829, 4000, 697, 2245, 944]	13	Present	NA	NA	PRESENT	0.8185908794403076	6.106044054031372	8.114075899124146	9.280750671955834	9.630752579284469	12.220237016677856	4.106161117553711	[6.115109920501709, 6.231981039047241, 7.203557968139648, 7.383146047592163, 8.133945941925049, 8.250686883926392, 8.36755084991455, 8.484421014785767, 8.601253032684326, 8.717973947525024, 8.83476996421814, 8.951658964157104, 9.068449020385742, 9.18549394607544, 9.302127838134766, 9.418612003326416, 9.53554105758667, 9.652282953262329, 9.768972873687744, 9.885724067687988, 10.002712965011597, 10.220234870910645]	[6.11636762022765, 6.23303428688765, 7.216034286887649, 7.382734286887649, 8.132734286887649, 8.24940095354765, 8.36606762020765, 8.48273428686765, 8.59940095352765, 8.716067620187651, 8.832734286847652, 8.949400953507652, 9.066067620167653, 9.182734286827653, 9.299400953487654, 9.416067620147654, 9.532734286807655, 9.649400953467655, 9.766067620127656, 9.882734286787656, 9.999400953447656, 10.232734286780989]	2020_Nov_26_1249	59.97397598355054	1	0.375
5	3	FALSE	NV	a	['U', 'Z', 'Y', 'C', 'R', 'K', 'N', 'V', 'G', 'J', 'X', 'A', 'W', 'M', 'B', 'T']	[2059, 2911, 2670, 829, 1587, 1122, 1335, 2245, 944, 1029, 4000, 697, 2448, 1224, 760, 1888]	11	Present	NA	NA	PRESENT	1.0557639598846436	12.22917890548706	14.23011302947998	15.163453276898776	15.513455184227409	18.336601972579956	4.106488943099976	[12.238245010375977, 12.355212926864624, 13.319928884506226, 13.506285905838013, 14.25729489326477, 14.374106884002686, 14.49082088470459, 14.607647895812988, 14.724411964416504, 14.841063022613525, 14.957864046096802, 15.057886838912964, 15.17467188835144, 15.291523933410645, 15.408313035964966, 15.525110960006714, 15.641963005065918, 15.758601903915405, 15.875351905822754, 15.992177963256836, 16.109012842178345, 16.33660387992859]	[12.232734286780989, 12.34940095344099, 13.33240095344099, 13.49910095344099, 14.24910095344099, 14.365767620100991, 14.482434286760991, 14.599100953420992, 14.715767620080992, 14.832434286740993, 14.949100953400993, 15.065767620060994, 15.182434286720994, 15.299100953380995, 15.415767620040995, 15.532434286700996, 15.649100953360996, 15.765767620020997, 15.882434286680997, 15.999100953340998, 16.115767620000998, 16.349100953334332]	2020_Nov_26_1249	59.97397598355054	1	0.375
5	4	FALSE	NV	a	['T', 'R', 'H', 'U', 'A', 'P', 'G', 'B', 'S', 'Y', 'Z', 'V', 'X', 'K', 'M', 'C']	[1888, 1587, 986, 2059, 697, 1456, 944, 760, 1731, 2670, 2911, 2245, 4000, 1122, 1224, 829]	13	Present	NA	NA	NONE	-1	18.33585286140442	20.34653401374817	21.51320854816128	21.863210693908492	24.467979907989506	4.121445894241333	[18.344918966293335, 18.461616039276123, 19.436295986175537, 19.61333394050598, 20.363558053970337, 20.48060894012451, 20.59714984893799, 20.71415686607361, 20.830697059631348, 20.94780683517456, 21.064476013183594, 21.18125605583191, 21.29813003540039, 21.414716005325317, 21.53169298171997, 21.64827299118042, 21.765251874923706, 21.88179898262024, 21.998755931854248, 22.115485906600952, 22.23244285583496, 22.452970027923584]	[18.349100953334332, 18.46576761999433, 19.44876761999433, 19.61546761999433, 20.36546761999433, 20.48213428665433, 20.598800953314328, 20.715467619974326, 20.832134286634325, 20.948800953294324, 21.065467619954322, 21.18213428661432, 21.29880095327432, 21.41546761993432, 21.532134286594317, 21.648800953254316, 21.765467619914315, 21.882134286574313, 21.998800953234312, 22.11546761989431, 22.23213428655431, 22.465467619887644]	2020_Nov_26_1249	59.97397598355054	1	0.375
5	5	FALSE	NN	a	['T', 'E', 'Y', 'C', 'H', 'B', 'M', 'W', 'P', 'U', 'K', 'A', 'Z', 'S', 'J', 'G']	[1888, 904, 2670, 829, 986, 760, 1224, 2448, 1456, 2059, 1122, 697, 2911, 1731, 1029, 944]	13	Absent	NA	NA	ABSENT	0.3606269359588623	24.47584295272827	26.463114976882935	27.62979070338894	27.97979356439189	30.569336891174316	4.106221914291382	[24.484909057617188, 24.584944009780884, 25.552660942077637, 25.73604106903076, 26.486815929412842, 26.603524923324585, 26.720399856567383, 26.837352991104126, 26.954203844070435, 27.070689916610718, 27.187785863876343, 27.304690837860107, 27.42131805419922, 27.53817105293274, 27.654708862304688, 27.77176785469055, 27.88844084739685, 28.005308866500854, 28.121981859207153, 28.23861789703369, 28.355674028396606, 28.5693359375]	[24.465467619887644, 24.582134286547642, 25.565134286547643, 25.73183428654764, 26.48183428654764, 26.59850095320764, 26.71516761986764, 26.831834286527638, 26.948500953187636, 27.065167619847635, 27.181834286507634, 27.298500953167633, 27.41516761982763, 27.53183428648763, 27.64850095314763, 27.765167619807627, 27.881834286467626, 27.998500953127625, 28.115167619787623, 28.231834286447622, 28.34850095310762, 28.581834286440955]	2020_Nov_26_1249	59.97397598355054	1	0.375
5	6	FALSE	NA	a	['H', 'T', 'S', 'M', 'J', 'P', 'G', 'C', 'Y', 'X', 'Z', 'N', 'V', 'A', 'K', 'R']	[986, 1888, 1731, 1224, 1029, 1456, 944, 829, 2670, 4000, 2911, 1335, 2245, 697, 1122, 1587]	10	Present	NA	NA	PRESENT	0.7820308208465576	30.582520961761475	32.579118967056274	33.395793501489386	33.7457956472366	36.68570399284363	4.1065850257873535	[30.591588020324707, 30.69124984741211, 31.66902804374695, 31.842550039291382, 32.59325289726257, 32.71022987365723, 32.8268358707428, 32.94384694099426, 33.06050205230713, 33.17742705345154, 33.29407501220703, 33.410868883132935, 33.527567863464355, 33.64463996887207, 33.76132297515869, 33.87816500663757, 33.99506497383118, 34.11159086227417, 34.22835993766785, 34.345130920410156, 34.46208691596985, 34.68570399284363]	[30.581834286440955, 30.698500953100954, 31.681500953100954, 31.848200953100953, 32.59820095310096, 32.71486761976096, 32.83153428642096, 32.94820095308096, 33.064867619740966, 33.18153428640097, 33.29820095306097, 33.41486761972097, 33.531534286380975, 33.64820095304098, 33.76486761970098, 33.88153428636098, 33.998200953020984, 34.114867619680986, 34.23153428634099, 34.34820095300099, 34.46486761966099, 34.69820095299433]	2020_Nov_26_1249	59.97397598355054	1	0.375
5	7	FALSE	VA	a	['Z', 'M', 'A', 'U', 'N', 'S', 'Y', 'C', 'surprise', 'R', 'T', 'X', 'B', 'H', 'E', 'V']	[2911, 1224, 697, 2059, 1335, 1731, 2670, 829, 'stimAuditory/all_stimAuditory/217.wav', 1587, 1888, 4000, 760, 986, 904, 2245]	12	Present	NA	NA	ABSENT	1.9066340923309328	36.68864703178406	38.695740938186646	39.74574785226544	40.09574999801265	42.80206990242005	4.106328964233398	[36.69771194458008, 36.814724922180176, 37.785390853881836, 37.965736865997314, 38.716532945632935, 38.833417892456055, 38.95024585723877, 39.06702494621277, 39.183714866638184, 39.300703048706055, 39.41727304458618, 39.5339560508728, 39.65097188949585, 39.76760292053223, 39.88453388214111, 40.00123190879822, 40.118130922317505, 40.23519206047058, 40.3515419960022, 40.468416929244995, 40.58532905578613, 40.80207085609436]	[36.69820095299433, 36.81486761965433, 37.797867619654326, 37.964567619654325, 38.714567619654325, 38.83123428631433, 38.94790095297433, 39.06456761963433, 39.181234286294334, 39.297900952954336, 39.41456761961434, 39.53123428627434, 39.64790095293434, 39.764567619594345, 39.88123428625435, 39.99790095291435, 40.11456761957435, 40.231234286234354, 40.347900952894356, 40.46456761955436, 40.58123428621436, 40.814567619547695]	2020_Nov_26_1249	59.97397598355054	1	0.375
5	8	FALSE	NN	a	['K', 'P', 'C', 'Z', 'S', 'R', 'E', 'H', 'N', 'B', 'T', 'J', 'Y', 'W', 'V', 'A']	[1122, 1456, 829, 2911, 1731, 1587, 904, 986, 1335, 760, 1888, 1029, 2670, 2448, 2245, 697]	9	Absent	NA	NA	ABSENT	0.9438130855560304	42.812052965164185	44.811903953552246	45.511912059743935	45.86191396707257	48.918437004089355	4.106533050537109	[42.821117877960205, 42.93782091140747, 43.901761054992676, 44.08904004096985, 44.839762926101685, 44.939805030822754, 45.05662202835083, 45.17333698272705, 45.290098905563354, 45.406986951828, 45.52373790740967, 45.6404869556427, 45.757277965545654, 45.874099016189575, 45.990901947021484, 46.107861042022705, 46.22438597679138, 46.34122705459595, 46.45817303657532, 46.57501196861267, 46.69171595573425, 46.91843605041504]	[42.814567619547695, 42.9312342862077, 43.914234286207694, 44.08093428620769, 44.83093428620769, 44.947600952867695, 45.0642676195277, 45.1809342861877, 45.2976009528477, 45.414267619507704, 45.53093428616771, 45.64760095282771, 45.76426761948771, 45.88093428614771, 45.997600952807716, 46.11426761946772, 46.23093428612772, 46.34760095278772, 46.464267619447725, 46.58093428610773, 46.69760095276773, 46.93093428610106]	2020_Nov_26_1249	59.97397598355054	1	0.375
5	9	FALSE	NV	a	['H', 'T', 'M', 'Z', 'A', 'S', 'V', 'U', 'E', 'Y', 'G', 'K', 'X', 'N', 'B', 'J']	[986, 1888, 1224, 2911, 697, 1731, 2245, 2059, 904, 2670, 944, 1122, 4000, 1335, 760, 1029]	13	Present	NA	NA	PRESENT	0.47648000717163086	48.918253898620605	50.92814803123474	52.09482256564785	52.444824711395064	55.03480291366577	4.10665488243103	[48.92732000350952, 49.04433584213257, 50.01812386512756, 50.195950984954834, 50.946228981018066, 51.0630898475647, 51.1798038482666, 51.29668092727661, 51.41334295272827, 51.53014302253723, 51.646968841552734, 51.76397705078125, 51.88075494766235, 51.99741983413696, 52.11430788040161, 52.23093390464783, 52.3479208946228, 52.46449398994446, 52.581339836120605, 52.69814991950989, 52.814931869506836, 53.03480100631714]	[48.93093428610106, 49.047600952761066, 50.03060095276106, 50.19730095276106, 50.94730095276106, 51.063967619421064, 51.180634286081066, 51.29730095274107, 51.41396761940107, 51.53063428606107, 51.647300952721075, 51.76396761938108, 51.88063428604108, 51.99730095270108, 52.113967619361084, 52.230634286021086, 52.34730095268109, 52.46396761934109, 52.58063428600109, 52.697300952661095, 52.8139676193211, 53.04730095265443]	2020_Nov_26_1249	59.97397598355054	1	0.375
5	10	FALSE	NA	a	['B', 'Z', 'V', 'U', 'T', 'E', 'G', 'R', 'M', 'J', 'Y', 'N', 'A', 'X', 'P', 'H']	[760, 2911, 2245, 2059, 1888, 904, 944, 1587, 1224, 1029, 2670, 1335, 697, 4000, 1456, 986]	14	Present	NA	NA	PRESENT	1.209099054336548	55.04153895378113	57.04478096961975	58.328122170692865	58.67812431644008	61.15117001533508	4.106389045715332	[55.05060386657715, 55.167479038238525, 56.1344940662384, 56.318541049957275, 57.06949996948242, 57.186168909072876, 57.30306601524353, 57.41998600959778, 57.53677701950073, 57.6533989906311, 57.77020788192749, 57.887024879455566, 58.00387501716614, 58.12057089805603, 58.23725891113281, 58.354289054870605, 58.47089505195618, 58.58763098716736, 58.704411029815674, 58.821250915527344, 58.938299894332886, 59.15116786956787]	[55.04730095265443, 55.163967619314434, 56.14696761931443, 56.31366761931443, 57.06366761931443, 57.18033428597443, 57.297000952634434, 57.413667619294436, 57.53033428595444, 57.64700095261444, 57.76366761927444, 57.880334285934445, 57.99700095259445, 58.11366761925445, 58.23033428591445, 58.347000952574454, 58.46366761923446, 58.58033428589446, 58.69700095255446, 58.81366761921446, 58.930334285874466, 59.1636676192078]	2020_Nov_26_1249	59.97397598355054	1	0.375
5	11	FALSE	NV	a	['T', 'V', 'M', 'S', 'J', 'B', 'Y', 'X', 'K', 'E', 'P', 'W', 'N', 'H', 'C', 'R']	[1888, 2245, 1224, 1731, 1029, 760, 2670, 4000, 1122, 904, 1456, 2448, 1335, 986, 829, 1587]	8	Present	NA	NA	NONE	-1	61.14794683456421	63.161314964294434	63.744655211733225	64.09465831115476	67.28025984764099	4.118944883346558	[61.15701198577881, 61.27399492263794, 62.2508590221405, 62.42509698867798, 63.17584705352783, 63.29284405708313, 63.409536838531494, 63.52646088600159, 63.643136978149414, 63.760053873062134, 63.87673091888428, 63.99351096153259, 64.11033296585083, 64.22715497016907, 64.3439998626709, 64.46062302589417, 64.57752299308777, 64.69424200057983, 64.8110740184784, 64.9277229309082, 65.04469799995422, 65.2675359249115]	[61.1636676192078, 61.2803342858678, 62.2633342858678, 62.4300342858678, 63.1800342858678, 63.2967009525278, 63.4133676191878, 63.530034285847805, 63.64670095250781, 63.76336761916781, 63.88003428582781, 63.996700952487814, 64.11336761914781, 64.2300342858078, 64.3467009524678, 64.4633676191278, 64.58003428578779, 64.69670095244778, 64.81336761910778, 64.93003428576777, 65.04670095242777, 65.2800342857611]	2020_Nov_26_1249	59.97397598355054	1	0.375
5	12	FALSE	NV	a	['H', 'G', 'S', 'Z', 'M', 'J', 'K', 'P', 'U', 'R', 'X', 'C', 'V', 'Y', 'A', 'N']	[986, 944, 1731, 2911, 1224, 1029, 1122, 1456, 2059, 1587, 4000, 829, 2245, 2670, 697, 1335]	11	Present	NA	NA	PRESENT	0.5707550048828125	67.2880790233612	69.27735900878906	70.21070020988218	70.56070235562939	73.38390302658081	4.106544017791748	[67.29714584350586, 67.39715504646301, 68.36722683906555, 68.54808402061462, 69.29942584037781, 69.41593885421753, 69.53292202949524, 69.64959692955017, 69.76637291908264, 69.88317894935608, 70.00001692771912, 70.1166319847107, 70.23385190963745, 70.35028386116028, 70.4672019481659, 70.58389806747437, 70.70075798034668, 70.81761193275452, 70.93426990509033, 71.05108404159546, 71.16767501831055, 71.38390398025513]	[67.2800342857611, 67.3967009524211, 68.3797009524211, 68.54640095242111, 69.29640095242111, 69.4130676190811, 69.5297342857411, 69.6464009524011, 69.76306761906109, 69.87973428572109, 69.99640095238108, 70.11306761904108, 70.22973428570107, 70.34640095236107, 70.46306761902106, 70.57973428568106, 70.69640095234105, 70.81306761900105, 70.92973428566104, 71.04640095232104, 71.16306761898103, 71.39640095231437]	2020_Nov_26_1249	59.97397598355054	1	0.375
5	13	FALSE	NV	a	['H', 'Y', 'W', 'B', 'Z', 'V', 'G', 'U', 'X', 'R', 'P', 'N', 'K', 'T', 'C', 'J']	[986, 2670, 2448, 760, 2911, 2245, 944, 2059, 4000, 1587, 1456, 1335, 1122, 1888, 829, 1029]	9	Present	NA	NA	PRESENT	0.41605496406555176	73.39457201957703	75.39372301101685	76.09373087878996	76.44373302453717	79.50026988983154	4.106546878814697	[73.40363788604736, 73.52034497261047, 74.48359394073486, 74.67167901992798, 75.42232203483582, 75.52231884002686, 75.6391429901123, 75.75608491897583, 75.87279891967773, 75.9895179271698, 76.10628700256348, 76.22313284873962, 76.33991599082947, 76.45688390731812, 76.57361793518066, 76.69026899337769, 76.80712890625, 76.92381286621094, 77.040776014328, 77.15749287605286, 77.2743890285492, 77.50027084350586]	[73.39640095231437, 73.51306761897436, 74.49606761897437, 74.66276761897437, 75.41276761897437, 75.52943428563437, 75.64610095229436, 75.76276761895436, 75.87943428561435, 75.99610095227435, 76.11276761893434, 76.22943428559434, 76.34610095225433, 76.46276761891433, 76.57943428557432, 76.69610095223432, 76.81276761889431, 76.92943428555431, 77.0461009522143, 77.1627676188743, 77.2794342855343, 77.51276761886763]	2020_Nov_26_1249	59.97397598355054	1	0.375
5	14	FALSE	NV	a	['M', 'Z', 'Y', 'J', 'S', 'H', 'V', 'E', 'T', 'X', 'N', 'R', 'K', 'B', 'G', 'C']	[1224, 2911, 2670, 1029, 1731, 986, 2245, 904, 1888, 4000, 1335, 1587, 1122, 760, 944, 829]	10	Present	NA	NA	PRESENT	0.5726981163024902	79.50093388557434	81.51012086868286	82.32679564153455	82.67679754886318	85.61663699150085	4.106516122817993	[79.51001191139221, 79.62703585624695, 80.59995794296265, 80.77840399742126, 81.52880692481995, 81.64581203460693, 81.76257801055908, 81.87926387786865, 81.99604105949402, 82.11278891563416, 82.22975993156433, 82.3465359210968, 82.46329092979431, 82.5799388885498, 82.69706702232361, 82.81344890594482, 82.93034386634827, 83.04700183868408, 83.16408705711365, 83.28075695037842, 83.3976218700409, 83.61663603782654]	[79.51276761886763, 79.62943428552762, 80.61243428552763, 80.77913428552763, 81.52913428552763, 81.64580095218763, 81.76246761884762, 81.87913428550762, 81.99580095216761, 82.11246761882761, 82.2291342854876, 82.3458009521476, 82.4624676188076, 82.57913428546759, 82.69580095212758, 82.81246761878758, 82.92913428544757, 83.04580095210757, 83.16246761876756, 83.27913428542756, 83.39580095208755, 83.62913428542089]	2020_Nov_26_1249	59.97397598355054	1	0.375
5	15	FALSE	NA	a	['T', 'N', 'G', 'C', 'U', 'A', 'Z', 'Y', 'X', 'H', 'P', 'K', 'S', 'W', 'R', 'B']	[1888, 1335, 944, 829, 2059, 697, 2911, 2670, 4000, 986, 1456, 1122, 1731, 2448, 1587, 760]	9	Present	NA	NA	PRESENT	0.6253108978271484	85.62430787086487	87.6264238357544	88.32643194194608	88.67643384927472	91.73300194740295	4.10657811164856	[85.63337397575378, 85.74995803833008, 86.71632385253906, 86.90143489837646, 87.65209698677063, 87.76893997192383, 87.88562893867493, 88.00232696533203, 88.11923694610596, 88.2359299659729, 88.3528139591217, 88.4695098400116, 88.5865159034729, 88.70313501358032, 88.82020592689514, 88.93679189682007, 89.05362200737, 89.17039704322815, 89.28726196289062, 89.40398597717285, 89.52080583572388, 89.73300099372864]	[85.62913428542089, 85.74580095208088, 86.72880095208089, 86.8955009520809, 87.6455009520809, 87.76216761874089, 87.87883428540088, 87.99550095206088, 88.11216761872087, 88.22883428538087, 88.34550095204087, 88.46216761870086, 88.57883428536086, 88.69550095202085, 88.81216761868085, 88.92883428534084, 89.04550095200084, 89.16216761866083, 89.27883428532083, 89.39550095198082, 89.51216761864082, 89.74550095197415]	2020_Nov_26_1249	59.97397598355054	1	0.375
5	16	FALSE	NV	a	['B', 'K', 'R', 'S', 'G', 'V', 'H', 'X', 'Y', 'M', 'E', 'C', 'A', 'W', 'N', 'T']	[760, 1122, 1587, 1731, 944, 2245, 986, 4000, 2670, 1224, 904, 829, 697, 2448, 1335, 1888]	8	Present	NA	NA	PRESENT	0.6944930553436279	91.73067092895508	93.74293184280396	94.32627328233563	94.67627518966428	97.84936904907228	4.1064372062683105	[91.739737033844, 91.85661196708679, 92.83269786834717, 93.00772905349731, 93.75847887992859, 93.87550187110901, 93.99219489097595, 94.10891103744507, 94.22575497627258, 94.34256505966187, 94.45937204360962, 94.57604885101318, 94.69291090965271, 94.809809923172, 94.92636704444885, 95.04334592819214, 95.16016387939453, 95.27679491043091, 95.39380192756653, 95.5104558467865, 95.62732100486755, 95.8493709564209]	[91.74550095197415, 91.86216761863415, 92.84516761863415, 93.01186761863416, 93.76186761863416, 93.87853428529415, 93.99520095195415, 94.11186761861414, 94.22853428527414, 94.34520095193413, 94.46186761859413, 94.57853428525412, 94.69520095191412, 94.81186761857411, 94.92853428523411, 95.0452009518941, 95.1618676185541, 95.27853428521409, 95.39520095187409, 95.51186761853408, 95.62853428519408, 95.86186761852741]	2020_Nov_26_1249	59.97397598355054	1	0.375
5	17	FALSE	NV	a	['B', 'H', 'K', 'E', 'Z', 'W', 'M', 'N', 'C', 'U', 'T', 'R', 'Y', 'X', 'S', 'P']	[760, 986, 1122, 904, 2911, 2448, 1224, 1335, 829, 2059, 1888, 1587, 2670, 4000, 1731, 1456]	14	Present	NA	NA	PRESENT	1.2589459419250488	97.8539469242096	99.85932683944702	101.1426673252644	101.49266923259304	103.96573686599731	4.106410026550293	[97.86301183700562, 97.97958302497864, 98.94906187057495, 99.13099098205566, 99.88175392150879, 99.99866890907288, 100.1154408454895, 100.23250389099121, 100.34900903701782, 100.46570801734924, 100.58260798454285, 100.69920992851257, 100.81602692604065, 100.93299293518066, 101.04979491233826, 101.16639685630798, 101.28338885307312, 101.40000486373901, 101.51679396629333, 101.6336259841919, 101.75034499168396, 101.96573686599731]	[97.86186761852741, 97.97853428518741, 98.96153428518741, 99.12823428518742, 99.87823428518742, 99.99490095184741, 100.11156761850741, 100.2282342851674, 100.3449009518274, 100.4615676184874, 100.57823428514739, 100.69490095180738, 100.81156761846738, 100.92823428512737, 101.04490095178737, 101.16156761844736, 101.27823428510736, 101.39490095176735, 101.51156761842735, 101.62823428508734, 101.74490095174734, 101.97823428508067]	2020_Nov_26_1249	59.97397598355054	1	0.375
5	18	FALSE	NA	a	['T', 'E', 'N', 'B', 'V', 'R', 'K', 'X', 'J', 'G', 'P', 'Z', 'W', 'Y', 'S', 'H']	[1888, 904, 1335, 760, 2245, 1587, 1122, 4000, 1029, 944, 1456, 2911, 2448, 2670, 1731, 986]	8	Present	NA	NA	PRESENT	0.4082660675048828	103.97703003883362	105.97543096542358	106.5587721665367	106.90877431228392	110.08210301399232	4.106672048568726	[103.98609590530396, 104.10293197631836, 105.06542801856995, 105.23738884925842, 106.00492405891418, 106.10510802268982, 106.22173190116882, 106.3385739326477, 106.455482006073, 106.57227492332458, 106.68900394439697, 106.80599594116211, 106.92256689071655, 107.03951501846313, 107.15620493888855, 107.27286505699158, 107.38975596427917, 107.50643706321716, 107.62343502044678, 107.7399549484253, 107.85701394081116, 108.08210396766663]	[103.97823428508067, 104.09490095174067, 105.07790095174067, 105.24460095174068, 105.99460095174068, 106.11126761840067, 106.22793428506067, 106.34460095172066, 106.46126761838066, 106.57793428504066, 106.69460095170065, 106.81126761836065, 106.92793428502064, 107.04460095168064, 107.16126761834063, 107.27793428500063, 107.39460095166062, 107.51126761832062, 107.62793428498061, 107.7446009516406, 107.8612676183006, 108.09460095163394]	2020_Nov_26_1249	59.97397598355054	1	0.375
5	19	FALSE	NA	a	['V', 'Z', 'H', 'K', 'U', 'M', 'B', 'N', 'T', 'S', 'J', 'X', 'W', 'A', 'E', 'R']	[2245, 2911, 986, 1122, 2059, 1224, 760, 1335, 1888, 1731, 1029, 4000, 2448, 697, 904, 1587]	12	Present	NA	NA	PRESENT	0.5650990009307861	110.083566904068	112.0919098854065	113.14191799157818	113.4919198989068	116.19846892356873	4.1065590381622314	[110.09263300895691, 110.20983290672302, 111.18179488182068, 111.36057806015015, 112.11146306991577, 112.22815585136414, 112.34517502784729, 112.4619128704071, 112.5787239074707, 112.69540691375732, 112.81231904029846, 112.92912983894348, 113.04577684402466, 113.16253089904785, 113.27925896644592, 113.39608693122864, 113.51298093795776, 113.62981295585632, 113.74645686149597, 113.86333799362183, 113.98007392883301, 114.19846987724304]	[110.09460095163394, 110.21126761829393, 111.19426761829394, 111.36096761829394, 112.11096761829394, 112.22763428495394, 112.34430095161393, 112.46096761827393, 112.57763428493392, 112.69430095159392, 112.81096761825391, 112.9276342849139, 113.0443009515739, 113.1609676182339, 113.27763428489389, 113.39430095155389, 113.51096761821388, 113.62763428487388, 113.74430095153387, 113.86096761819387, 113.97763428485386, 114.2109676181872]	2020_Nov_26_1249	59.97397598355054	1	0.375
5	20	FALSE	NN	a	['R', 'P', 'E', 'G', 'B', 'Y', 'K', 'M', 'J', 'C', 'A', 'T', 'Z', 'H', 'U', 'V']	[1587, 1456, 904, 944, 760, 2670, 1122, 1224, 1029, 829, 697, 1888, 2911, 986, 2059, 2245]	14	Absent	NA	NA	ABSENT	0.3139040470123291	116.20688796043396	118.20811891555786	119.49145916295666	119.8414622623782	122.31483697891235	4.106718063354492	[116.21595287322998, 116.33278393745422, 117.29815983772278, 117.48389196395874, 118.23457384109497, 118.35137701034546, 118.46834301948547, 118.58506202697754, 118.70193386077881, 118.81859493255615, 118.93550395965576, 119.05232000350952, 119.16899585723877, 119.28588199615479, 119.40250205993652, 119.51945400238037, 119.63630986213684, 119.73617386817932, 119.85289692878723, 119.9697060585022, 120.08651089668274, 120.31483697891235]	[116.2109676181872, 116.32763428484719, 117.3106342848472, 117.4773342848472, 118.2273342848472, 118.3440009515072, 118.4606676181672, 118.57733428482719, 118.69400095148718, 118.81066761814718, 118.92733428480717, 119.04400095146717, 119.16066761812716, 119.27733428478716, 119.39400095144715, 119.51066761810715, 119.62733428476714, 119.74400095142714, 119.86066761808713, 119.97733428474713, 120.09400095140712, 120.32733428474046]	2020_Nov_26_1249	59.97397598355054	1	0.375
5	21	FALSE	NA	a	['P', 'E', 'M', 'H', 'G', 'U', 'J', 'A', 'T', 'Z', 'V', 'X', 'W', 'N', 'R', 'C']	[1456, 904, 1224, 986, 944, 2059, 1029, 697, 1888, 2911, 2245, 4000, 2448, 1335, 1587, 829]	12	Present	NA	NA	PRESENT	0.7107889652252197	122.31317400932312	124.32460498809814	125.37461285585124	125.72461500159848	128.43120288848877	4.106597900390625	[122.32223892211914, 122.43914985656738, 123.4145278930664, 123.59029793739319, 124.34110593795776, 124.4580090045929, 124.57475185394287, 124.69146084785461, 124.8083770275116, 124.9250259399414, 125.0419750213623, 125.15880489349365, 125.27570986747742, 125.39217805862427, 125.50909185409546, 125.62582588195801, 125.74271988868713, 125.85957884788513, 125.97633504867554, 126.0929639339447, 126.20996403694153, 126.43120384216309]	[122.32733428474046, 122.44400095140045, 123.42700095140046, 123.59370095140046, 124.34370095140046, 124.46036761806046, 124.57703428472045, 124.69370095138045, 124.81036761804044, 124.92703428470044, 125.04370095136044, 125.16036761802043, 125.27703428468043, 125.39370095134042, 125.51036761800042, 125.62703428466041, 125.7437009513204, 125.8603676179804, 125.9770342846404, 126.09370095130039, 126.21036761796039, 126.44370095129372]	2020_Nov_26_1249	59.97397598355054	1	0.375
5	22	FALSE	NA	a	['U', 'K', 'Y', 'P', 'T', 'G', 'C', 'V', 'A', 'H', 'E', 'X', 'B', 'N', 'Z', 'R']	[2059, 1122, 2670, 1456, 1888, 944, 829, 2245, 697, 986, 904, 4000, 760, 1335, 2911, 1587]	12	Present	NA	NA	PRESENT	0.37932801246643066	128.4365599155426	130.44092297554016	131.49092988961897	131.84093203536617	134.54756999015808	4.10664701461792	[128.4456250667572, 128.56240105628967, 129.5308940410614, 129.71358394622803, 130.4647500514984, 130.5811288356781, 130.6979079246521, 130.81481504440308, 130.93159294128418, 131.04846906661987, 131.16500687599182, 131.28197193145752, 131.39875102043152, 131.51551294326782, 131.63223099708557, 131.7490029335022, 131.8657510280609, 131.98261284828186, 132.0994689464569, 132.21622705459595, 132.33304500579834, 132.54756903648376]	[128.44370095129372, 128.56036761795372, 129.54336761795372, 129.7100676179537, 130.4600676179537, 130.5767342846137, 130.6934009512737, 130.8100676179337, 130.9267342845937, 131.0434009512537, 131.16006761791368, 131.27673428457368, 131.39340095123367, 131.51006761789367, 131.62673428455366, 131.74340095121366, 131.86006761787365, 131.97673428453365, 132.09340095119364, 132.21006761785364, 132.32673428451363, 132.56006761784695]	2020_Nov_26_1249	59.97397598355054	1	0.375
5	23	FALSE	NV	a	['V', 'U', 'Z', 'E', 'J', 'K', 'W', 'A', 'X', 'Y', 'N', 'C', 'R', 'B', 'H', 'P']	[2245, 2059, 2911, 904, 1029, 1122, 2448, 697, 4000, 2670, 1335, 829, 1587, 760, 986, 1456]	9	Present	NA	NA	PRESENT	0.37659597396850586	134.55980396270752	136.55751490592957	137.25752301212125	137.6075249194499	140.6639368534088	4.106421947479248	[134.56887006759644, 134.66871190071106, 135.64725995063782, 135.81990385055542, 136.58762001991272, 136.68762683868408, 136.80449199676514, 136.92114400863647, 137.0380699634552, 137.15477395057678, 137.27174496650696, 137.38831686973572, 137.50530886650085, 137.62187099456787, 137.73884391784668, 137.85566186904907, 137.9723949432373, 138.0890610218048, 138.20595693588257, 138.32263803482056, 138.4396300315857, 138.6639358997345]	[134.56006761784695, 134.67673428450695, 135.65973428450695, 135.82643428450695, 136.57643428450695, 136.69310095116694, 136.80976761782694, 136.92643428448693, 137.04310095114693, 137.15976761780692, 137.27643428446692, 137.3931009511269, 137.5097676177869, 137.6264342844469, 137.7431009511069, 137.8597676177669, 137.9764342844269, 138.09310095108688, 138.20976761774688, 138.32643428440687, 138.44310095106687, 138.6764342844002]	2020_Nov_26_1249	59.97397598355054	1	0.375
5	24	FALSE	AV	a	['G', 'J', 'S', 'M', 'B', 'H', 'Y', 'A', 'surprise', 'K', 'C', 'X', 'E', 'Z', 'U', 'N']	[944, 1029, 1731, 1224, 760, 986, 2670, 697, 'stimAuditory/all_stimAuditory/120.wav', 1122, 829, 4000, 904, 2911, 2059, 1335]	12	Present	stimAuditory/all_stimAuditory/217.wav	NA	ABSENT	0.8931241035461426	140.66650891304016	142.6736409664154	143.72364883416853	144.07365097991573	146.78030395507812	4.10666298866272	[140.6755759716034, 140.79215097427368, 141.76362705230713, 141.943274974823, 142.69404983520508, 142.8110010623932, 142.92778301239014, 143.04433798789978, 143.16137886047363, 143.27795600891113, 143.39491605758667, 143.51151204109192, 143.62835788726807, 143.74512195587158, 143.86204504966736, 143.97873091697693, 144.09570789337158, 144.21239805221558, 144.32924890518188, 144.44584202766418, 144.56270790100098, 144.7803030014038]	[140.6764342844002, 140.79310095106018, 141.7761009510602, 141.94280095106018, 142.69280095106018, 142.80946761772017, 142.92613428438017, 143.04280095104016, 143.15946761770016, 143.27613428436015, 143.39280095102015, 143.50946761768014, 143.62613428434014, 143.74280095100013, 143.85946761766013, 143.97613428432012, 144.09280095098012, 144.20946761764012, 144.3261342843001, 144.4428009509601, 144.5594676176201, 144.79280095095342]	2020_Nov_26_1249	59.97397598355054	1	0.375
5	25	FALSE	NN	a	['M', 'P', 'K', 'G', 'S', 'Z', 'Y', 'C', 'E', 'J', 'V', 'U', 'A', 'B', 'T', 'H']	[1224, 1456, 1122, 944, 1731, 2911, 2670, 829, 904, 1029, 2245, 2059, 697, 760, 1888, 986]	11	Absent	NA	NA	ABSENT	1.2427170276641846	146.78943490982056	148.79020595550537	149.72354620292415	150.07354834867138	152.89666986465454	4.10646390914917	[146.79850006103516, 146.91536402702332, 147.87999391555786, 148.06635785102844, 148.81720304489136, 148.93421983718872, 149.0508189201355, 149.16764402389526, 149.28462505340576, 149.40130805969238, 149.5011830329895, 149.61796402931213, 149.73482990264893, 149.8515920639038, 149.96833300590515, 150.08519291877747, 150.20223999023438, 150.31873202323914, 150.43557786941528, 150.55232787132263, 150.66910099983215, 150.89666891098022]	[146.79280095095342, 146.90946761761342, 147.89246761761342, 148.0591676176134, 148.8091676176134, 148.9258342842734, 149.0425009509334, 149.1591676175934, 149.2758342842534, 149.3925009509134, 149.50916761757338, 149.62583428423338, 149.74250095089337, 149.85916761755337, 149.97583428421336, 150.09250095087336, 150.20916761753335, 150.32583428419335, 150.44250095085334, 150.55916761751334, 150.67583428417333, 150.90916761750665]	2020_Nov_26_1249	59.97397598355054	1	0.375
5	26	FALSE	NN	a	['C', 'B', 'K', 'U', 'V', 'P', 'J', 'Y', 'W', 'A', 'N', 'R', 'M', 'E', 'T', 'S']	[829, 760, 1122, 2059, 2245, 1456, 1029, 2670, 2448, 697, 1335, 1587, 1224, 904, 1888, 1731]	9	Absent	NA	NA	ABSENT	0.43912696838378906	152.895840883255	154.90648293495178	155.60648984905058	155.9564919947978	159.01303696632385	4.10655403137207	[152.90490794181824, 153.02165699005127, 153.99636101722717, 154.17300295829773, 154.92372393608093, 155.04047799110413, 155.15739703178406, 155.27412605285645, 155.3911108970642, 155.50772285461426, 155.62466502189636, 155.74126386642456, 155.85809803009033, 155.97483205795288, 156.0917580127716, 156.20846700668335, 156.32542896270752, 156.44205403327942, 156.55879092216492, 156.67563605308533, 156.79272294044495, 157.01303601264954]	[152.90916761750665, 153.02583428416665, 154.00883428416665, 154.17553428416664, 154.92553428416664, 155.04220095082664, 155.15886761748664, 155.27553428414663, 155.39220095080663, 155.50886761746662, 155.62553428412662, 155.7422009507866, 155.8588676174466, 155.9755342841066, 156.0922009507666, 156.2088676174266, 156.3255342840866, 156.44220095074658, 156.55886761740658, 156.67553428406657, 156.79220095072657, 157.0255342840599]	2020_Nov_26_1249	59.97397598355054	1	0.375
5	27	FALSE	NA	a	['V', 'Z', 'N', 'J', 'M', 'S', 'W', 'H', 'E', 'B', 'X', 'C', 'Y', 'P', 'T', 'U']	[2245, 2911, 1335, 1029, 1224, 1731, 2448, 986, 904, 760, 4000, 829, 2670, 1456, 1888, 2059]	11	Present	NA	NA	PRESENT	0.4755890369415283	159.01902198791504	161.02292704582214	161.95626729324093	162.30626920056957	165.12940287590027	4.106475830078125	[159.02808785438538, 159.14508605003357, 160.1127278804779, 160.29653000831604, 161.04702806472778, 161.16362285614014, 161.28064584732056, 161.3973469734192, 161.51419305801392, 161.6310908794403, 161.74761700630188, 161.8645899295807, 161.98131585121155, 162.0982210636139, 162.21478486061096, 162.33168506622314, 162.44838404655457, 162.56527996063232, 162.68195796012878, 162.79872298240662, 162.91560292243958, 163.12940192222595]	[159.0255342840599, 159.14220095071988, 160.1252009507199, 160.29190095071988, 161.04190095071988, 161.15856761737987, 161.27523428403987, 161.39190095069986, 161.50856761735986, 161.62523428401985, 161.74190095067985, 161.85856761733984, 161.97523428399984, 162.09190095065983, 162.20856761731983, 162.32523428397982, 162.44190095063982, 162.55856761729981, 162.6752342839598, 162.7919009506198, 162.9085676172798, 163.14190095061312]	2020_Nov_26_1249	59.97397598355054	1	0.375
5	28	FALSE	NN	a	['G', 'W', 'J', 'A', 'K', 'Z', 'Y', 'P', 'R', 'U', 'V', 'N', 'C', 'T', 'B', 'M']	[944, 2448, 1029, 697, 1122, 2911, 2670, 1456, 1587, 2059, 2245, 1335, 829, 1888, 760, 1224]	13	Absent	NA	NA	ABSENT	0.56890106201171875	165.14238095283508	167.1391680240631	168.30584255847623	168.65584470422343	171.24576997756958	4.10660195350647	[165.1514458656311, 165.25134897232056, 166.22909283638, 166.40261602401733, 167.15329504013062, 167.27039003372192, 167.38717794418335, 167.50375604629517, 167.62067794799805, 167.73736691474915, 167.85423302650452, 167.97096586227417, 168.0877969264984, 168.20450496673584, 168.32143998146057, 168.43818593025208, 168.55509090423584, 168.6717450618744, 168.78856587409973, 168.9054069519043, 169.02223205566406, 169.24576902389526]	[165.14190095061312, 165.25856761727312, 166.24156761727312, 166.4082676172731, 167.1582676172731, 167.2749342839331, 167.3916009505931, 167.5082676172531, 167.6249342839131, 167.7416009505731, 167.85826761723308, 167.97493428389308, 168.09160095055307, 168.20826761721307, 168.32493428387306, 168.44160095053306, 168.55826761719305, 168.67493428385305, 168.79160095051304, 168.90826761717304, 169.02493428383303, 169.25826761716635]	2020_Nov_26_1249	59.97397598355054	1	0.375
5	29	FALSE	NN	a	['T', 'S', 'M', 'A', 'C', 'W', 'H', 'J', 'N', 'V', 'R', 'U', 'E', 'G', 'P', 'B']	[1888, 1731, 1224, 697, 829, 2448, 986, 1029, 1335, 2245, 1587, 2059, 904, 944, 1456, 760]	12	Absent	NA	NA	ABSENT	0.4694321155548096	171.24909687042236	173.25580406188965	174.30581192964277	174.6558138369714	177.3621368408203	4.106332778930664	[171.25816202163696, 171.37453603744507, 172.34547591209412, 172.52594184875488, 173.27663803100586, 173.39341592788696, 173.51032185554504, 173.6269450187683, 173.74371695518494, 173.86055898666382, 173.9776110649109, 174.09427285194397, 174.21107006072998, 174.32766389846802, 174.44444298744202, 174.5614719390869, 174.67820286750793, 174.79491591453552, 174.91172885894775, 175.02872490882874, 175.1453549861908, 175.3621368408203]	[171.25826761716635, 171.37493428382635, 172.35793428382635, 172.52463428382634, 173.27463428382634, 173.39130095048634, 173.50796761714633, 173.62463428380633, 173.74130095046633, 173.85796761712632, 173.97463428378632, 174.0913009504463, 174.2079676171063, 174.3246342837663, 174.4413009504263, 174.5579676170863, 174.6746342837463, 174.79130095040628, 174.90796761706628, 175.02463428372627, 175.14130095038627, 175.3746342837196]	2020_Nov_26_1249	59.97397598355054	1	0.375
5	30	FALSE	NN	a	['M', 'T', 'C', 'G', 'Y', 'P', 'R', 'V', 'N', 'S', 'J', 'Z', 'W', 'E', 'U', 'K']	[1224, 1888, 829, 944, 2670, 1456, 1587, 2245, 1335, 1731, 1029, 2911, 2448, 904, 2059, 1122]	9	Absent	NA	NA	ABSENT	0.49867892265319824	177.372132062912	179.37195801734924	180.07196683879667	180.4219689845439	183.4785039424896	4.106545925140381	[177.381196975708, 177.49795603752136, 178.46182703971863, 178.6491768360138, 179.39981293678284, 179.49981784820557, 179.61660289764404, 179.7335069179535, 179.85029792785645, 179.96704006195068, 180.08389902114868, 180.2006859779358, 180.3173840045929, 180.43419098854065, 180.55099391937256, 180.66782093048096, 180.78457498550415, 180.90142703056335, 181.01839995384216, 181.13525485992432, 181.2518389225006, 181.47850489616394]	[177.3746342837196, 177.49130095037958, 178.4743009503796, 178.64100095037958, 179.39100095037958, 179.50766761703957, 179.62433428369957, 179.74100095035956, 179.85766761701956, 179.97433428367955, 180.09100095033955, 180.20766761699954, 180.32433428365954, 180.44100095031953, 180.55766761697953, 180.67433428363952, 180.79100095029952, 180.90766761695951, 181.0243342836195, 181.1410009502795, 181.2576676169395, 181.49100095027282]	2020_Nov_26_1249	59.97397598355054	1	0.375
5	31	FALSE	NN	a	['Z', 'B', 'R', 'W', 'H', 'U', 'K', 'P', 'T', 'E', 'A', 'N', 'G', 'J', 'Y', 'C']	[2911, 760, 1587, 2448, 986, 2059, 1122, 1456, 1888, 904, 697, 1335, 944, 1029, 2670, 829]	14	Absent	NA	NA	ABSENT	1.095107078552246	183.47827100753784	185.4884078502655	186.7717502434315	187.1217523891787	189.59486985206604	4.106462001800537	[183.48733687400818, 183.60436701774597, 184.57819390296936, 184.75561594963074, 185.50637793540955, 185.62311100959778, 185.74010586738586, 185.8567328453064, 185.9736828804016, 186.09034991264343, 186.20728206634521, 186.32438492774963, 186.44070386886597, 186.55746006965637, 186.67427492141724, 186.79160404205322, 186.90792202949524, 187.02462005615234, 187.1413290500641, 187.2582938671112, 187.37517786026, 187.59486889839172]	[183.49100095027282, 183.60766761693282, 184.59066761693282, 184.7573676169328, 185.5073676169328, 185.6240342835928, 185.7407009502528, 185.8573676169128, 185.9740342835728, 186.0907009502328, 186.20736761689278, 186.32403428355278, 186.44070095021277, 186.55736761687277, 186.67403428353276, 186.79070095019276, 186.90736761685275, 187.02403428351275, 187.14070095017274, 187.25736761683274, 187.37403428349273, 187.60736761682605]	2020_Nov_26_1249	59.97397598355054	1	0.375
5	32	FALSE	NN	a	['M', 'J', 'U', 'C', 'K', 'E', 'A', 'Z', 'N', 'T', 'S', 'P', 'V', 'H', 'R', 'G']	[1224, 1029, 2059, 829, 1122, 904, 697, 2911, 1335, 1888, 1731, 1456, 2245, 986, 1587, 944]	8	Absent	NA	NA	PRESENT	0.4117610454559326	189.6017329692841	191.60460495948792	192.1879463990196	192.53794830634823	195.71123695373535	4.1066319942474365	[189.61079788208008, 189.72752690315247, 190.69455885887146, 190.87897205352783, 191.6299479007721, 191.74644994735718, 191.8632628917694, 191.9800078868866, 192.09671592712402, 192.21371603012085, 192.3302538394928, 192.44721388816833, 192.56374406814575, 192.6807839870453, 192.7974989414215, 192.91434693336487, 193.03101706504822, 193.14799189567566, 193.26469898223877, 193.38149094581604, 193.49825501441956, 193.71123600006104]	[189.60736761682605, 189.72403428348605, 190.70703428348605, 190.87373428348604, 191.62373428348604, 191.74040095014604, 191.85706761680603, 191.97373428346603, 192.09040095012602, 192.20706761678602, 192.32373428344602, 192.440400950106, 192.557067616766, 192.673734283426, 192.790400950086, 192.907067616746, 193.023734283406, 193.14040095006598, 193.25706761672598, 193.37373428338597, 193.49040095004597, 193.7237342833793]	2020_Nov_26_1249	59.97397598355054	1	0.375
5	33	FALSE	VV	a	['W', 'Y', 'C', 'Z', 'N', 'H', 'surprise', 'U', 'M', 'X', 'P', 'J', 'K', 'A', 'S', 'R']	[2448, 2670, 829, 2911, 1335, 986, 'stimAuditory/all_stimAuditory/123.wav', 2059, 1224, 4000, 1456, 1029, 1122, 697, 1731, 1587]	10	Present	NA	NA	ABSENT	0.9051520824432372	195.7080609798431	197.72092604637143	198.53760058080456	198.8876027265518	201.82760190963745	4.106675863265991	[195.71712589263916, 195.83391094207764, 196.8109269142151, 196.98529505729675, 197.73592901229858, 197.85285091400146, 197.96975803375244, 198.08631801605225, 198.20340704917908, 198.31995606422424, 198.43696403503418, 198.55360198020935, 198.67032384872437, 198.78707790374756, 198.90388989448547, 199.02090191841125, 199.13771891593933, 199.25432205200195, 199.37110304832458, 199.48793196678162, 199.6046440601349, 199.82760405540466]	[195.7237342833793, 195.84040095003928, 196.8234009500393, 196.99010095003928, 197.74010095003928, 197.85676761669927, 197.97343428335927, 198.09010095001926, 198.20676761667926, 198.32343428333925, 198.44010094999925, 198.55676761665924, 198.67343428331924, 198.79010094997923, 198.90676761663923, 199.02343428329922, 199.14010094995922, 199.25676761661921, 199.3734342832792, 199.4901009499392, 199.6067676165992, 199.84010094993252]	2020_Nov_26_1249	59.97397598355054	1	0.375
5	34	FALSE	NV	a	['R', 'W', 'K', 'G', 'J', 'U', 'N', 'X', 'H', 'E', 'B', 'M', 'Y', 'V', 'P', 'S']	[1587, 2448, 1122, 944, 1029, 2059, 1335, 4000, 986, 904, 760, 1224, 2670, 2245, 1456, 1731]	8	Present	NA	NA	PRESENT	0.3897371292114258	201.8318738937378	203.8373579978943	204.4206991990074	204.7707013447546	207.94396901130676	4.106611013412476	[201.8409390449524, 201.95724487304688, 202.9272940158844, 203.10850191116333, 203.85929203033447, 203.97599697113037, 204.09279203414917, 204.20972800254822, 204.32630801200867, 204.44323801994324, 204.5599880218506, 204.67682886123657, 204.7935688495636, 204.91042494773865, 205.02705597877502, 205.14403200149536, 205.26069402694702, 205.37765383720398, 205.4945249557495, 205.61124300956726, 205.72791695594788, 205.94396996498108]	[201.84010094993252, 201.95676761659251, 202.93976761659252, 203.1064676165925, 203.8564676165925, 203.9731342832525, 204.0898009499125, 204.2064676165725, 204.3231342832325, 204.4398009498925, 204.55646761655248, 204.67313428321248, 204.78980094987247, 204.90646761653247, 205.02313428319246, 205.13980094985246, 205.25646761651245, 205.37313428317245, 205.48980094983244, 205.60646761649244, 205.72313428315243, 205.95646761648575]	2020_Nov_26_1249	59.97397598355054	1	0.375
5	35	FALSE	NN	a	['M', 'K', 'Z', 'S', 'R', 'B', 'P', 'E', 'U', 'T', 'A', 'W', 'Y', 'C', 'V', 'H']	[1224, 1122, 2911, 1731, 1587, 760, 1456, 904, 2059, 1888, 697, 2448, 2670, 829, 2245, 986]	13	Absent	NA	NA	ABSENT	0.4509198665618897	207.95458889007568	209.95396399497983	211.12063757571863	211.47063972146583	214.0603370666504	4.106373071670532	[207.9636549949646, 208.08052396774292, 209.04366207122803, 209.2147660255432, 209.9824719429016, 210.08253693580627, 210.19933605194092, 210.31612992286682, 210.43283605575562, 210.54970693588257, 210.66671204566956, 210.7831790447235, 210.90010285377502, 211.01681089401245, 211.13388586044312, 211.25059604644775, 211.3671109676361, 211.48394989967346, 211.60094594955444, 211.71768403053284, 211.83433198928833, 212.06033492088318]	[207.95646761648575, 208.07313428314575, 209.05613428314575, 209.22283428314574, 209.97283428314574, 210.08950094980574, 210.20616761646573, 210.32283428312573, 210.43950094978572, 210.55616761644572, 210.67283428310571, 210.7895009497657, 210.9061676164257, 211.0228342830857, 211.1395009497457, 211.2561676164057, 211.37283428306569, 211.48950094972568, 211.60616761638568, 211.72283428304567, 211.83950094970567, 212.072834283039]	2020_Nov_26_1249	59.97397598355054	1	0.375
5	36	FALSE	NA	a	['N', 'S', 'M', 'K', 'V', 'T', 'G', 'J', 'Y', 'U', 'E', 'R', 'X', 'B', 'W', 'C']	[1335, 1731, 1224, 1122, 2245, 1888, 944, 1029, 2670, 2059, 904, 1587, 4000, 760, 2448, 829]	13	Present	NA	NA	PRESENT	0.2956860065460205	214.06119799613953	216.07020092010495	217.23687569293668	217.5868776002653	220.1767020225525	4.10650110244751	[214.07026600837708, 214.18688488006592, 215.16002893447876, 215.33818888664246, 216.0890748500824, 216.20578002929688, 216.3226249217987, 216.43935990333557, 216.55617094039917, 216.6729769706726, 216.79010105133057, 216.90643787384033, 217.02315402030945, 217.14003705978394, 217.2567858695984, 217.37378406524658, 217.49055099487305, 217.60737586021423, 217.723965883255, 217.84070301055908, 217.9577009677887, 218.1767020225525]	[214.072834283039, 214.18950094969898, 215.17250094969899, 215.33920094969898, 216.08920094969898, 216.20586761635897, 216.32253428301897, 216.43920094967896, 216.55586761633896, 216.67253428299895, 216.78920094965895, 216.90586761631894, 217.02253428297894, 217.13920094963893, 217.25586761629893, 217.37253428295892, 217.48920094961892, 217.6058676162789, 217.7225342829389, 217.8392009495989, 217.9558676162589, 218.18920094959222]	2020_Nov_26_1249	59.97397598355054	1	0.375
5	37	FALSE	NA	a	['K', 'M', 'T', 'S', 'Y', 'B', 'P', 'E', 'A', 'H', 'C', 'G', 'X', 'R', 'V', 'J']	[1122, 1224, 1888, 1731, 2670, 760, 1456, 904, 697, 986, 829, 944, 4000, 1587, 2245, 1029]	13	Present	NA	NA	PRESENT	0.25217294692993164	220.18435096740723	222.18636083602905	223.35303465518643	223.70303656251505	226.2930698394775	4.106709003448486	[220.19341683387756, 220.3100779056549, 221.27639293670654, 221.46162486076355, 222.2120509147644, 222.32905101776123, 222.4458999633789, 222.5626950263977, 222.67933988571167, 222.79624104499817, 222.91284704208374, 223.02983498573303, 223.1465630531311, 223.26323103904724, 223.38006401062012, 223.49682092666626, 223.61360001564026, 223.73043990135193, 223.84727001190186, 223.96416187286377, 224.08092999458313, 224.29307103157043]	[220.18920094959222, 220.30586761625221, 221.28886761625222, 221.4555676162522, 222.2055676162522, 222.3222342829122, 222.4389009495722, 222.5555676162322, 222.6722342828922, 222.7889009495522, 222.90556761621218, 223.02223428287218, 223.13890094953217, 223.25556761619217, 223.37223428285216, 223.48890094951216, 223.60556761617215, 223.72223428283215, 223.83890094949214, 223.95556761615214, 224.07223428281213, 224.30556761614545]	2020_Nov_26_1249	59.97397598355054	1	0.375
5	38	FALSE	AA	a	['K', 'C', 'U', 'H', 'J', 'M', 'N', 'P', 'E', 'surprise', 'S', 'W', 'X', 'A', 'T', 'Y']	[1122, 829, 2059, 986, 1029, 1224, 1335, 1456, 904, 'stimAuditory/all_stimAuditory/219.wav', 1731, 2448, 4000, 697, 1888, 2670]	13	Present	stimAuditory/all_stimAuditory/120.wav	NA	PRESENT	0.5932891368865967	226.29074788093567	228.3028659820557	229.46953956279447	229.8195417085417	232.40943694114685	4.1065709590911865	[226.29981398582458, 226.4166910648346, 227.39276099205017, 227.56790804862976, 228.31858706474304, 228.4356369972229, 228.55237197875977, 228.66899299621582, 228.78595495224, 228.90271306037903, 229.01949095726013, 229.13615489006042, 229.25316286087036, 229.3697919845581, 229.48672699928284, 229.60345005989075, 229.72020888328552, 229.8370349407196, 229.95367002487183, 230.07054591178894, 230.18742084503174, 230.40943694114685]	[226.30556761614545, 226.42223428280545, 227.40523428280545, 227.57193428280544, 228.32193428280544, 228.43860094946544, 228.55526761612543, 228.67193428278543, 228.78860094944542, 228.90526761610542, 229.02193428276541, 229.1386009494254, 229.2552676160854, 229.3719342827454, 229.4886009494054, 229.6052676160654, 229.72193428272539, 229.83860094938538, 229.95526761604538, 230.07193428270537, 230.18860094936537, 230.4219342826987]	2020_Nov_26_1249	59.97397598355054	1	0.375
5	39	FALSE	NV	a	['U', 'C', 'W', 'G', 'B', 'S', 'J', 'A', 'E', 'K', 'R', 'N', 'X', 'T', 'M', 'H']	[2059, 829, 2448, 944, 760, 1731, 1029, 697, 904, 1122, 1587, 1335, 4000, 1888, 1224, 986]	13	Present	NA	NA	PRESENT	0.24605083465576172	232.41447687149048	234.41914892196655	235.58582369479825	235.93582560212687	238.52580404281616	4.106655120849609	[232.4235429763794, 232.53985404968262, 233.50912499427795, 233.69094395637512, 234.4420609474182, 234.55864095687866, 234.67543005943298, 234.7924098968506, 234.9090759754181, 235.02592706680298, 235.14258003234863, 235.2596230506897, 235.37610602378845, 235.49310684204102, 235.6096649169922, 235.72659301757812, 235.8434488773346, 235.9601230621338, 236.0769510269165, 236.19373202323914, 236.31045794487, 236.52580285072327]	[232.4219342826987, 232.53860094935868, 233.52160094935869, 233.68830094935868, 234.43830094935868, 234.55496761601867, 234.67163428267867, 234.78830094933866, 234.90496761599866, 235.02163428265865, 235.13830094931865, 235.25496761597864, 235.37163428263864, 235.48830094929863, 235.60496761595863, 235.72163428261862, 235.83830094927862, 235.9549676159386, 236.0716342825986, 236.1883009492586, 236.3049676159186, 236.53830094925192]	2020_Nov_26_1249	59.97397598355054	1	0.375
5	40	FALSE	NA	a	['C', 'T', 'N', 'G', 'H', 'A', 'Z', 'R', 'W', 'B', 'K', 'S', 'X', 'J', 'E', 'V']	[829, 1888, 1335, 944, 986, 697, 2911, 1587, 2448, 760, 1122, 1731, 4000, 1029, 904, 2245]	13	Present	NA	NA	PRESENT	0.25927209854125977	238.5373020172119	240.5356569290161	241.7023317018478	242.05233360917643	244.64216899871823	4.106512069702148	[238.54636788368225, 238.66320395469666, 239.6254918575287, 239.79753398895264, 240.56499600410461, 240.6653609275818, 240.7820918560028, 240.89871883392334, 241.0156488418579, 241.1322638988495, 241.24921894073486, 241.36579084396362, 241.48278093338013, 241.59944200515747, 241.71641087532043, 241.83307790756226, 241.94991302490234, 242.0666379928589, 242.18380498886108, 242.30029702186584, 242.41698288917542, 242.64216899871826]	[238.53830094925192, 238.65496761591191, 239.63796761591192, 239.8046676159119, 240.5546676159119, 240.6713342825719, 240.7880009492319, 240.9046676158919, 241.0213342825519, 241.1380009492119, 241.25466761587188, 241.37133428253188, 241.48800094919187, 241.60466761585187, 241.72133428251186, 241.83800094917186, 241.95466761583185, 242.07133428249185, 242.18800094915184, 242.30466761581184, 242.42133428247183, 242.65466761580515]	2020_Nov_26_1249	59.97397598355054	1	0.375
5	41	FALSE	NV	a	['R', 'N', 'V', 'H', 'A', 'K', 'B', 'U', 'X', 'P', 'C', 'Z', 'W', 'S', 'J', 'Y']	[1587, 1335, 2245, 986, 697, 1122, 760, 2059, 4000, 1456, 829, 2911, 2448, 1731, 1029, 2670]	9	Present	NA	NA	PRESENT	0.311931848526001	244.64381194114685	246.6519410610199	247.351948928793	247.70195083612165	250.7585370540619	4.106595993041992	[244.65287685394287, 244.7694890499115, 245.741858959198, 245.92066287994385, 246.67153096199036, 246.78907299041748, 246.90529799461365, 247.0218949317932, 247.13870787620544, 247.25552701950073, 247.37241888046265, 247.48925304412842, 247.60576701164246, 247.7228410243988, 247.83944988250732, 247.95635390281677, 248.07303595542908, 248.1899619102478, 248.30659699440002, 248.42357397079468, 248.54026699066162, 248.758535861969]	[244.65466761580515, 244.77133428246515, 245.75433428246515, 245.92103428246514, 246.67103428246514, 246.78770094912514, 246.90436761578513, 247.02103428244513, 247.13770094910512, 247.25436761576512, 247.37103428242511, 247.4877009490851, 247.6043676157451, 247.7210342824051, 247.8377009490651, 247.9543676157251, 248.07103428238509, 248.18770094904508, 248.30436761570508, 248.42103428236507, 248.53770094902507, 248.77103428235839]	2020_Nov_26_1249	59.97397598355054	1	0.375
5	42	FALSE	NV	a	['S', 'Y', 'Z', 'M', 'P', 'B', 'V', 'N', 'T', 'G', 'X', 'J', 'C', 'H', 'A', 'W']	[1731, 2670, 2911, 1224, 1456, 760, 2245, 1335, 1888, 944, 4000, 1029, 829, 986, 697, 2448]	11	Present	NA	NA	PRESENT	0.3731839656829834	250.7669939994812	252.76852202415463	253.70186417892208	254.051865370995	256.8749029636383	4.106380939483643	[250.77606892585754, 250.89273691177368, 251.8582260608673, 252.04408288002014, 252.79521083831787, 252.91172790527344, 253.0282120704651, 253.14514589309692, 253.2621169090271, 253.3786599636078, 253.4955370426178, 253.61225700378418, 253.72898387908936, 253.8459689617157, 253.9626660346985, 254.0793788433075, 254.17939400672913, 254.29623889923096, 254.41306686401367, 254.52986884117126, 254.64667296409607, 254.8749029636383]	[250.77103428235839, 250.88770094901838, 251.87070094901839, 252.03740094901838, 252.78740094901838, 252.90406761567837, 253.02073428233837, 253.13740094899836, 253.25406761565836, 253.37073428231835, 253.48740094897835, 253.60406761563834, 253.72073428229834, 253.83740094895833, 253.95406761561833, 254.07073428227832, 254.18740094893832, 254.3040676155983, 254.4207342822583, 254.5374009489183, 254.6540676155783, 254.88740094891162]	2020_Nov_26_1249	59.97397598355054	1	0.375
5	43	FALSE	NA	a	['M', 'Y', 'W', 'S', 'G', 'V', 'P', 'X', 'N', 'C', 'T', 'Z', 'J', 'R', 'E', 'K']	[1224, 2670, 2448, 1731, 944, 2245, 1456, 4000, 1335, 829, 1888, 2911, 1029, 1587, 904, 1122]	8	Present	NA	NA	PRESENT	0.31359410285949707	256.8734848499298	258.88470482826233	259.4680453141197	259.81804722144835	262.9912700653076	4.106565237045288	[256.8825509548187, 256.9992079734802, 257.9745919704437, 258.15058183670044, 258.90129804611206, 259.01804089546204, 259.13504695892334, 259.2517240047455, 259.3686480522156, 259.48526191711426, 259.60209488868713, 259.7188329696655, 259.8355288505554, 259.95236992836, 260.0692460536957, 260.18596601486206, 260.3029098510742, 260.41960191726685, 260.5363259315491, 260.65302205085754, 260.7699489593506, 260.9912700653076]	[256.8874009489116, 257.0040676155716, 257.9870676155716, 258.1537676155716, 258.9037676155716, 259.02043428223163, 259.13710094889166, 259.2537676155517, 259.3704342822117, 259.4871009488717, 259.60376761553175, 259.7204342821918, 259.8371009488518, 259.9537676155118, 260.07043428217185, 260.18710094883187, 260.3037676154919, 260.4204342821519, 260.53710094881194, 260.65376761547196, 260.770434282132, 261.00376761546534]	2020_Nov_26_1249	59.97397598355054	1	0.375
5	44	FALSE	AN	a	['E', 'P', 'S', 'B', 'V', 'Y', 'H', 'surprise', 'K', 'W', 'M', 'R', 'C', 'T', 'G', 'Z']	[904, 1456, 1731, 760, 2245, 2670, 986, 'stimAuditory/all_stimAuditory/107.wav', 1122, 2448, 1224, 1587, 829, 1888, 944, 2911]	11	Absent	stimAuditory/all_stimAuditory/123.wav	NA	ABSENT	0.7341299057006836	262.99697494506836	265.00110697746277	265.9344481785559	266.28445032430307	269.10763597488403	4.106528997421265	[263.0060420036316, 263.12241888046265, 264.09095788002014, 264.2735719680786, 265.02443385124207, 265.1413588523865, 265.2581260204315, 265.37475299835205, 265.49156188964844, 265.6084270477295, 265.7251069545746, 265.8420100212097, 265.95867896080017, 266.07572197914124, 266.1924469470978, 266.3092129230499, 266.42601203918457, 266.5428249835968, 266.65946102142334, 266.7764389514923, 266.89314103126526, 267.10763597488403]	[263.00376761546534, 263.12043428212536, 264.10343428212536, 264.27013428212535, 265.02013428212535, 265.1368009487854, 265.2534676154454, 265.3701342821054, 265.48680094876545, 265.6034676154255, 265.7201342820855, 265.8368009487455, 265.95346761540554, 266.07013428206557, 266.1868009487256, 266.3034676153856, 266.42013428204564, 266.53680094870566, 266.6534676153657, 266.7701342820257, 266.88680094868573, 267.1201342820191]	2020_Nov_26_1249	59.97397598355054	1	0.375
5	45	FALSE	NA	a	['M', 'Y', 'R', 'Z', 'K', 'N', 'U', 'C', 'B', 'X', 'G', 'T', 'W', 'E', 'S', 'P']	[1224, 2670, 1587, 2911, 1122, 1335, 2059, 829, 760, 4000, 944, 1888, 2448, 904, 1731, 1456]	10	Present	NA	NA	PRESENT	0.5073771476745605	269.11996698379517	271.1174030303955	271.9340775648286	272.28407971057584	275.22400403022766	4.106600999832153	[269.1290328502655, 269.22881388664246, 270.20732498168945, 270.38007402420044, 271.1309289932251, 271.2477309703827, 271.36471605300903, 271.48130106925964, 271.5981390476227, 271.71488094329834, 271.831748008728, 271.9484419822693, 272.06520199775696, 272.1823389530182, 272.2987730503082, 272.41569805145264, 272.5324399471283, 272.64936804771423, 272.7660629749298, 272.8829860687256, 272.9996509552002, 273.22400403022766]	[269.1201342820191, 269.2368009486791, 270.2198009486791, 270.3865009486791, 271.1365009486791, 271.2531676153391, 271.36983428199915, 271.48650094865917, 271.6031676153192, 271.7198342819792, 271.83650094863924, 271.95316761529926, 272.0698342819593, 272.1865009486193, 272.30316761527934, 272.41983428193936, 272.5365009485994, 272.6531676152594, 272.76983428191943, 272.88650094857945, 273.0031676152395, 273.2365009485728]	2020_Nov_26_1249	59.97397598355054	1	0.375
5	46	FALSE	NA	a	['S', 'T', 'B', 'N', 'E', 'H', 'Z', 'R', 'G', 'M', 'X', 'J', 'Y', 'P', 'C', 'V']	[1731, 1888, 760, 1335, 904, 986, 2911, 1587, 944, 1224, 4000, 1029, 2670, 1456, 829, 2245]	11	Present	NA	NA	PRESENT	0.647968053817749	275.2264380455017	277.23389983177185	278.16724031760924	278.51724222493783	281.3403699398041	4.106470108032227	[275.2355148792267, 275.35219502449036, 276.3236949443817, 276.5034968852997, 277.25409293174744, 277.3710150718689, 277.4879629611969, 277.604642868042, 277.7211928367615, 277.8380858898163, 277.95487999916077, 278.07162284851074, 278.1884639263153, 278.30539894104004, 278.4219739437103, 278.5389869213104, 278.6557068824768, 278.7725479602814, 278.8892078399658, 279.0059449672699, 279.1229519844055, 279.3403699398041]	[275.2365009485728, 275.35316761523285, 276.33616761523285, 276.50286761523284, 277.25286761523284, 277.36953428189287, 277.4862009485529, 277.6028676152129, 277.71953428187294, 277.83620094853296, 277.952867615193, 278.069534281853, 278.18620094851303, 278.30286761517306, 278.4195342818331, 278.5362009484931, 278.6528676151531, 278.76953428181315, 278.8862009484732, 279.0028676151332, 279.1195342817932, 279.35286761512657]	2020_Nov_26_1249	59.97397598355054	1	0.375
5	47	FALSE	NV	a	['P', 'H', 'Y', 'C', 'E', 'W', 'B', 'V', 'X', 'M', 'S', 'G', 'T', 'R', 'A', 'N']	[1456, 986, 2670, 829, 904, 2448, 760, 2245, 4000, 1224, 1731, 944, 1888, 1587, 697, 1335]	9	Present	NA	NA	PRESENT	0.7094287872314453	281.34947204589844	283.3501658439636	284.050172996481	284.4001749038096	287.4567370414734	4.106571197509766	[281.3585379123688, 281.47550201416016, 282.4400579929352, 282.62672901153564, 283.3776099681854, 283.4941990375519, 283.6109879016876, 283.7278869152069, 283.8447070121765, 283.96140003204346, 284.0613429546356, 284.178169965744, 284.2949450016022, 284.41170501708984, 284.5284969806671, 284.64530205726624, 284.7621078491211, 284.878839969635, 284.995698928833, 285.1126239299774, 285.2292449474335, 285.4567370414734]	[281.35286761512657, 281.4695342817866, 282.4525342817866, 282.6192342817866, 283.3692342817866, 283.4859009484466, 283.60256761510664, 283.71923428176666, 283.8359009484267, 283.9525676150867, 284.06923428174673, 284.18590094840675, 284.3025676150668, 284.4192342817268, 284.5359009483868, 284.65256761504685, 284.7692342817069, 284.8859009483669, 285.0025676150269, 285.11923428168694, 285.23590094834697, 285.4692342816803]	2020_Nov_26_1249	59.97397598355054	1	0.375
5	48	FALSE	NA	a	['G', 'Y', 'Z', 'S', 'U', 'H', 'C', 'B', 'A', 'N', 'K', 'V', 'X', 'R', 'E', 'P']	[944, 2670, 2911, 1731, 2059, 986, 829, 760, 697, 1335, 1122, 2245, 4000, 1587, 904, 1456]	13	Present	NA	NA	PRESENT	0.5538640022277832	287.4560658931732	289.46652483940125	290.63319961223294	290.9832015195616	293.5731029510498	4.10657811164856	[287.4651310443878, 287.5818269252777, 288.5564248561859, 288.7331528663635, 289.48391699790955, 289.6008529663086, 289.71746587753296, 289.8342299461365, 289.951073884964, 290.06783294677734, 290.1846749782562, 290.30138301849365, 290.41827392578125, 290.53506994247437, 290.6518850326538, 290.7684998512268, 290.88554286956787, 291.0023069381714, 291.1190948486328, 291.2358469963074, 291.35271096229553, 291.5731019973755]	[287.4692342816803, 287.58590094834034, 288.56890094834034, 288.73560094834033, 289.48560094834033, 289.60226761500036, 289.7189342816604, 289.8356009483204, 289.9522676149804, 290.06893428164045, 290.1856009483005, 290.3022676149605, 290.4189342816205, 290.53560094828055, 290.65226761494057, 290.7689342816006, 290.8856009482606, 291.00226761492064, 291.11893428158066, 291.2356009482407, 291.3522676149007, 291.58560094823406]	2020_Nov_26_1249	59.97397598355054	1	0.375
5	49	FALSE	NV	a	['N', 'Y', 'W', 'A', 'R', 'J', 'B', 'S', 'V', 'Z', 'U', 'X', 'K', 'M', 'E', 'P']	[1335, 2670, 2448, 697, 1587, 1029, 760, 1731, 2245, 2911, 2059, 4000, 1122, 1224, 904, 1456]	12	Present	NA	NA	PRESENT	0.4943408966064453	293.57912397384644	295.58289885520935	296.6329060077067	296.98290791503536	299.6894688606262	4.10657000541687	[293.5881898403168, 293.705139875412, 294.67279505729675, 294.85624384880066, 295.6069939136505, 295.72402691841125, 295.84064984321594, 295.9573760032654, 296.0741288661957, 296.1909019947052, 296.30786395072937, 296.4245889186859, 296.54132604599, 296.6583230495453, 296.7751429080963, 296.8918149471283, 297.0085668563843, 297.1254768371582, 297.24219393730164, 297.3590178489685, 297.47571301460266, 297.6894688606262]	[293.58560094823406, 293.7022676148941, 294.6852676148941, 294.8519676148941, 295.6019676148941, 295.7186342815541, 295.8353009482141, 295.95196761487415, 296.0686342815342, 296.1853009481942, 296.3019676148542, 296.41863428151424, 296.53530094817427, 296.6519676148343, 296.7686342814943, 296.88530094815434, 297.00196761481436, 297.1186342814744, 297.2353009481344, 297.35196761479443, 297.46863428145446, 297.7019676147878]	2020_Nov_26_1249	59.97397598355054	1	0.375
5	50	FALSE	NV	a	['V', 'B', 'W', 'R', 'M', 'K', 'P', 'Y', 'S', 'U', 'E', 'A', 'H', 'X', 'G', 'N']	[2245, 760, 2448, 1587, 1224, 1122, 1456, 2670, 1731, 2059, 904, 697, 986, 4000, 944, 1335]	14	Present	NA	NA	PRESENT	0.8038220405578613	299.6856589317322	301.6991539001465	302.98249438596383	303.3324962932925	305.80583691596985	4.106683015823364	[299.69473600387573, 299.81154704093933, 300.78916096687317, 300.96287083625793, 301.7135009765625, 301.83037400245667, 301.94729804992676, 302.0638780593872, 302.18104887008667, 302.2975640296936, 302.4144639968872, 302.5312190055847, 302.64783096313477, 302.7648470401764, 302.8814768791199, 302.9984929561615, 303.11508798599243, 303.2319700717926, 303.34885597229004, 303.4652829170227, 303.5822150707245, 303.80583786964417]	[299.7019676147878, 299.8186342814478, 300.80163428144783, 300.9683342814478, 301.7183342814478, 301.83500094810785, 301.95166761476787, 302.0683342814279, 302.1850009480879, 302.30166761474794, 302.41833428140797, 302.535000948068, 302.651667614728, 302.76833428138804, 302.88500094804806, 303.0016676147081, 303.1183342813681, 303.23500094802813, 303.35166761468815, 303.4683342813482, 303.5850009480082, 303.81833428134155]	2020_Nov_26_1249	59.97397598355054	1	0.375
5	51	FALSE	NV	a	['W', 'M', 'Y', 'S', 'C', 'B', 'Z', 'X', 'P', 'N', 'V', 'J', 'K', 'T', 'U', 'E']	[2448, 1224, 2670, 1731, 829, 760, 2911, 4000, 1456, 1335, 2245, 1029, 1122, 1888, 2059, 904]	8	Present	NA	NA	ABSENT	0.840134859085083	305.8090419769287	307.8156499862671	308.3989902337059	308.7489923794531	311.92220401763916	4.10655403137207	[305.81810784339905, 305.9347188472748, 306.9055280685425, 307.0859808921814, 307.83678007125854, 307.95376086235046, 308.07042503356934, 308.18728399276733, 308.30385398864746, 308.4208960533142, 308.53760504722595, 308.6543068885803, 308.77123284339905, 308.88782596588135, 309.004821062088, 309.1215479373932, 309.2383449077606, 309.3552269935608, 309.47195386886597, 309.588595867157, 309.70559096336365, 309.92220401763916]	[305.81833428134155, 305.9350009480016, 306.9180009480016, 307.08470094800157, 307.83470094800157, 307.9513676146616, 308.0680342813216, 308.18470094798164, 308.30136761464166, 308.4180342813017, 308.5347009479617, 308.65136761462173, 308.76803428128176, 308.8847009479418, 309.0013676146018, 309.1180342812618, 309.23470094792185, 309.3513676145819, 309.4680342812419, 309.5847009479019, 309.70136761456195, 309.9347009478953]	2020_Nov_26_1249	59.97397598355054	1	0.375
5	52	FALSE	NA	a	['M', 'R', 'W', 'C', 'B', 'A', 'Y', 'P', 'K', 'S', 'E', 'X', 'H', 'G', 'U', 'V']	[1224, 1587, 2448, 829, 760, 697, 2670, 1456, 1122, 1731, 904, 4000, 986, 944, 2059, 2245]	12	Present	NA	NA	PRESENT	0.3177831172943115	311.932235956192	313.9318890571594	314.9818969249125	315.33189883224117	318.0385699272156	4.106680870056152	[311.94130086898804, 312.05815601348877, 313.02189207077026, 313.2095069885254, 313.9599030017853, 314.06003499031067, 314.1768729686737, 314.2935838699341, 314.41039395332336, 314.52709889411926, 314.6439678668976, 314.76072096824646, 314.8775370121002, 314.99429297447205, 315.11109685897827, 315.22798204421997, 315.34468603134155, 315.461580991745, 315.57825899124146, 315.69521284103394, 315.8118648529053, 316.03856897354126]	[311.9347009478953, 312.0513676145553, 313.0343676145553, 313.2010676145553, 313.9510676145553, 314.06773428121534, 314.18440094787536, 314.3010676145354, 314.4177342811954, 314.53440094785543, 314.65106761451545, 314.7677342811755, 314.8844009478355, 315.0010676144955, 315.11773428115555, 315.2344009478156, 315.3510676144756, 315.4677342811356, 315.58440094779564, 315.70106761445567, 315.8177342811157, 316.05106761444904]	2020_Nov_26_1249	59.97397598355054	1	0.375
5	53	FALSE	NA	a	['A', 'H', 'B', 'U', 'K', 'W', 'M', 'Z', 'X', 'R', 'N', 'T', 'E', 'P', 'G', 'C']	[697, 986, 760, 2059, 1122, 2448, 1224, 2911, 4000, 1587, 1335, 1888, 904, 1456, 944, 829]	9	Present	NA	NA	ABSENT	0.5300910472869873	318.038724899292	320.0483729839325	320.74838085170563	321.0983829974528	324.1549370288849	4.106564044952393	[318.0477910041809, 318.16463685035706, 319.1382579803467, 319.3155999183655, 320.0664498806, 320.18342089653015, 320.3000500202179, 320.4169180393219, 320.53357005119324, 320.65050983428955, 320.76732087135315, 320.88416600227356, 321.00081396102905, 321.1177098751068, 321.2343258857727, 321.35126090049744, 321.4679880142212, 321.5849359035492, 321.7015550136566, 321.81835889816284, 321.93515706062317, 322.154935836792]	[318.05106761444904, 318.16773428110906, 319.15073428110907, 319.31743428110906, 320.06743428110906, 320.1841009477691, 320.3007676144291, 320.41743428108913, 320.53410094774915, 320.6507676144092, 320.7674342810692, 320.8841009477292, 321.00076761438925, 321.11743428104927, 321.2341009477093, 321.3507676143693, 321.46743428102934, 321.58410094768936, 321.7007676143494, 321.8174342810094, 321.93410094766944, 322.1674342810028]	2020_Nov_26_1249	59.97397598355054	1	0.375
5	54	FALSE	NV	a	['N', 'P', 'A', 'V', 'R', 'E', 'H', 'Y', 'K', 'W', 'G', 'M', 'X', 'U', 'T', 'C']	[1335, 1456, 697, 2245, 1587, 904, 986, 2670, 1122, 2448, 944, 1224, 4000, 2059, 1888, 829]	13	Present	NA	NA	ABSENT	1.0223290920257568	324.1622939109802	326.16476488113403	327.3314387002914	327.6814415612944	330.2713029384613	4.1065380573272705	[324.1713590621948, 324.28808093070984, 325.2546260356903, 325.43896198272705, 326.1896810531616, 326.3067500591278, 326.423397064209, 326.54006695747375, 326.65683698654175, 326.7735478878021, 326.89036798477173, 327.0071680545807, 327.1239130496979, 327.2408640384674, 327.3576169013977, 327.4744119644165, 327.5913119316101, 327.7078859806061, 327.82474088668823, 327.94147992134094, 328.0585708618164, 328.271301984787]	[324.1674342810028, 324.2841009476628, 325.2671009476628, 325.4338009476628, 326.1838009476628, 326.3004676143228, 326.41713428098285, 326.5338009476429, 326.6504676143029, 326.7671342809629, 326.88380094762294, 327.00046761428297, 327.117134280943, 327.233800947603, 327.35046761426304, 327.46713428092306, 327.5838009475831, 327.7004676142431, 327.81713428090313, 327.93380094756316, 328.0504676142232, 328.28380094755653]	2020_Nov_26_1249	59.97397598355054	1	0.375
5	55	FALSE	NN	a	['P', 'V', 'M', 'S', 'B', 'E', 'G', 'Y', 'T', 'R', 'Z', 'A', 'K', 'C', 'J', 'H']	[1456, 2245, 1224, 1731, 760, 904, 944, 2670, 1888, 1587, 2911, 697, 1122, 829, 1029, 986]	12	Absent	NA	NA	ABSENT	0.4120020866394043	330.2682569026947	332.2809410095215	333.33094792360026	333.6809498309289	336.3876688480377	4.106727838516235	[330.2773230075836, 330.3942940235138, 331.37099504470825, 331.5455389022827, 332.2961308956146, 332.4131238460541, 332.52984499931335, 332.64663791656494, 332.76331186294556, 332.8802309036255, 332.99692392349243, 333.1138219833374, 333.2306020259857, 333.34733295440674, 333.463907957077, 333.58099603652954, 333.69763803482056, 333.8145809173584, 333.9313020706177, 334.04801297187805, 334.16528391838074, 334.3876688480377]	[330.28380094755653, 330.40046761421655, 331.38346761421656, 331.55016761421655, 332.30016761421655, 332.41683428087657, 332.5335009475366, 332.6501676141966, 332.76683428085664, 332.88350094751667, 333.0001676141767, 333.1168342808367, 333.23350094749674, 333.35016761415676, 333.4668342808168, 333.5835009474768, 333.70016761413683, 333.81683428079685, 333.9335009474569, 334.0501676141169, 334.1668342807769, 334.4001676141103]	2020_Nov_26_1249	59.97397598355054	1	0.375
5	56	FALSE	VA	a	['H', 'V', 'J', 'P', 'Y', 'G', 'surprise', 'N', 'Z', 'X', 'A', 'B', 'E', 'U', 'R', 'S']	[986, 2245, 1029, 1456, 2670, 944, 'stimAuditory/all_stimAuditory/108.wav', 1335, 2911, 4000, 697, 760, 904, 2059, 1587, 1731]	10	Present	NA	NA	PRESENT	0.8883919715881348	336.39161586761475	338.3973958492279	339.2140696684053	339.56407252940824	342.50403594970703	4.106640100479126	[336.40068197250366, 336.51754093170166, 337.48736000061035, 337.66854786872864, 338.4195508956909, 338.53638887405396, 338.6529059410095, 338.7698140144348, 338.88650703430176, 339.00325298309326, 339.1201159954071, 339.2370648384094, 339.3537380695343, 339.4705719947815, 339.5873990058899, 339.70405983924866, 339.82111501693726, 339.93777894973755, 340.05462884902954, 340.1714098453522, 340.2883839607239, 340.5040349960327]	[336.4001676141103, 336.5168342807703, 337.4998342807703, 337.6665342807703, 338.4165342807703, 338.5332009474303, 338.64986761409034, 338.76653428075036, 338.8832009474104, 338.9998676140704, 339.11653428073043, 339.23320094739046, 339.3498676140505, 339.4665342807105, 339.5832009473705, 339.69986761403055, 339.8165342806906, 339.9332009473506, 340.0498676140106, 340.16653428067065, 340.28320094733067, 340.516534280664]	2020_Nov_26_1249	59.97397598355054	1	0.375
5	57	FALSE	NV	a	['J', 'P', 'M', 'R', 'Z', 'C', 'H', 'B', 'Y', 'X', 'W', 'S', 'T', 'U', 'V', 'A']	[1029, 1456, 1224, 1587, 2911, 829, 986, 760, 2670, 4000, 2448, 1731, 1888, 2059, 2245, 697]	10	Present	NA	NA	ABSENT	1.6937639713287354	342.5146870613098	344.5138759613037	345.3305504957368	345.68055264148404	348.62040305137634	4.106527090072632	[342.52375197410583, 342.6407718658447, 343.60372591018677, 343.7749729156494, 344.54292488098145, 344.6426360607147, 344.7593078613281, 344.8761749267578, 344.9929509162903, 345.1097538471222, 345.22652888298035, 345.343337059021, 345.4601340293884, 345.5771210193634, 345.6939129829407, 345.8107039928436, 345.92735290527344, 346.04426097869873, 346.16091895103455, 346.27789402008057, 346.394544839859, 346.62040305137634]	[342.516534280664, 342.63320094732404, 343.61620094732405, 343.78290094732404, 344.53290094732404, 344.64956761398406, 344.7662342806441, 344.8829009473041, 344.99956761396413, 345.11623428062416, 345.2329009472842, 345.3495676139442, 345.4662342806042, 345.58290094726425, 345.6995676139243, 345.8162342805843, 345.9329009472443, 346.04956761390434, 346.16623428056437, 346.2829009472244, 346.3995676138844, 346.63290094721776]	2020_Nov_26_1249	59.97397598355054	1	0.375
5	58	FALSE	NN	a	['N', 'M', 'T', 'U', 'P', 'G', 'W', 'V', 'R', 'A', 'H', 'Y', 'S', 'E', 'Z', 'J']	[1335, 1224, 1888, 2059, 1456, 944, 2448, 2245, 1587, 697, 986, 2670, 1731, 904, 2911, 1029]	14	Absent	NA	NA	ABSENT	0.45045995712280273	348.62113189697266	350.6301620006561	351.9135032017292	352.26350534747644	354.7367699146271	4.106607913970947	[348.6301980018616, 348.74710392951965, 349.72009086608887, 349.8984088897705, 350.64913392066956, 350.7660799026489, 350.8825979232788, 350.99951004981995, 351.11624002456665, 351.23322796821594, 351.3499028682709, 351.466796875, 351.5835840702057, 351.700345993042, 351.8169219493866, 351.93382501602173, 352.0506010055542, 352.16732692718506, 352.28417706489563, 352.4009459018707, 352.51778292655945, 352.73676896095276]	[348.63290094721776, 348.7495676138778, 349.7325676138778, 349.8992676138778, 350.6492676138778, 350.7659342805378, 350.88260094719783, 350.99926761385785, 351.1159342805179, 351.2326009471779, 351.3492676138379, 351.46593428049795, 351.58260094715797, 351.699267613818, 351.815934280478, 351.93260094713804, 352.04926761379807, 352.1659342804581, 352.2826009471181, 352.39926761377814, 352.51593428043816, 352.7492676137715]	2020_Nov_26_1249	59.97397598355054	1	0.375
5	59	FALSE	NN	a	['R', 'A', 'U', 'S', 'P', 'B', 'Y', 'W', 'V', 'T', 'H', 'E', 'G', 'M', 'K', 'J']	[1587, 697, 2059, 1731, 1456, 760, 2670, 2448, 2245, 1888, 986, 904, 944, 1224, 1122, 1029]	11	Absent	NA	NA	ABSENT	0.3117518424987793	354.7448799610138	356.7466199398041	357.6799613793158	358.0299632866444	360.8531370162964	4.10651707649231	[354.7539448738098, 354.87020802497864, 355.8364610671997, 356.02164101600647, 356.77234506607056, 356.8893129825592, 357.00590205192566, 357.12263584136963, 357.2394599914551, 357.35635590553284, 357.47309494018555, 357.58971786499023, 357.70654487609863, 357.8233358860016, 357.94030594825745, 358.0569679737091, 358.1738040447235, 358.2906119823456, 358.40736198425293, 358.5242040157318, 358.6409800052643, 358.8531379699707]	[354.7492676137715, 354.86593428043153, 355.84893428043154, 356.0156342804315, 356.7656342804315, 356.88230094709155, 356.9989676137516, 357.1156342804116, 357.2323009470716, 357.34896761373165, 357.46563428039167, 357.5823009470517, 357.6989676137117, 357.81563428037174, 357.93230094703176, 358.0489676136918, 358.1656342803518, 358.28230094701183, 358.39896761367186, 358.5156342803319, 358.6323009469919, 358.86563428032525]	2020_Nov_26_1249	59.97397598355054	1	0.375
5	60	FALSE	NA	a	['J', 'Z', 'P', 'Y', 'H', 'S', 'V', 'B', 'U', 'K', 'E', 'X', 'M', 'G', 'W', 'R']	[1029, 2911, 1456, 2670, 986, 1731, 2245, 760, 2059, 1122, 904, 4000, 1224, 944, 2448, 1587]	12	Present	NA	NA	PRESENT	0.2201550006866455	360.85106205940247	362.863000869751	363.91300802224833	364.2630108832513	366.9695029258728	4.106502056121826	[360.8601269721985, 360.9767038822174, 361.95283603668213, 362.1281499862671, 362.8789219856262, 362.99553084373474, 363.11251187324524, 363.22931385040283, 363.345890045166, 363.46255588531494, 363.57953095436096, 363.6964359283447, 363.8130929470062, 363.929988861084, 364.046648979187, 364.16372299194336, 364.28025698661804, 364.3972370624542, 364.5138828754425, 364.6306140422821, 364.7473609447479, 364.9695029258728]	[360.86563428032525, 360.9823009469853, 361.9653009469853, 362.1320009469853, 362.8820009469853, 362.9986676136453, 363.1153342803053, 363.23200094696534, 363.34866761362537, 363.4653342802854, 363.5820009469454, 363.69866761360544, 363.81533428026546, 363.9320009469255, 364.0486676135855, 364.16533428024553, 364.28200094690555, 364.3986676135656, 364.5153342802256, 364.6320009468856, 364.74866761354565, 364.982000946879]	2020_Nov_26_1249	59.97397598355054	1	0.375
5	61	FALSE	NV	a	['P', 'R', 'K', 'H', 'J', 'C', 'U', 'X', 'Y', 'V', 'G', 'E', 'M', 'S', 'Z', 'N']	[1456, 1587, 1122, 986, 1029, 829, 2059, 4000, 2670, 2245, 944, 904, 1224, 1731, 2911, 1335]	8	Present	NA	NA	PRESENT	0.24900102615356445	366.97424483299255	368.9794218540192	369.5627642472252	369.9127663929724	373.0858700275421	4.106448173522949	[366.98330998420715, 367.10004901885986, 368.0691909790039, 368.2511808872223, 369.0020840167999, 369.1188819408417, 369.2354829311371, 369.35245299339294, 369.46916484832764, 369.58591198921204, 369.702684879303, 369.81962394714355, 369.93631505966187, 370.0532729625702, 370.1700248718262, 370.28702902793884, 370.40350103378296, 370.5202989578247, 370.6371519565582, 370.75390791893005, 370.8705768585205, 371.0858688354492]	[366.982000946879, 367.098667613539, 368.081667613539, 368.248367613539, 368.998367613539, 369.11503428019904, 369.23170094685906, 369.3483676135191, 369.4650342801791, 369.58170094683913, 369.69836761349916, 369.8150342801592, 369.9317009468192, 370.04836761347923, 370.16503428013925, 370.2817009467993, 370.3983676134593, 370.5150342801193, 370.63170094677935, 370.74836761343937, 370.8650342800994, 371.09836761343274]	2020_Nov_26_1249	59.97397598355054	1	0.375
5	62	FALSE	NN	a	['R', 'H', 'A', 'B', 'N', 'Y', 'V', 'W', 'M', 'Z', 'U', 'J', 'E', 'S', 'C', 'K']	[1587, 986, 697, 760, 1335, 2670, 2245, 2448, 1224, 2911, 2059, 1029, 904, 1731, 829, 1122]	9	Absent	NA	NA	ABSENT	0.23038601875305176	373.0975089073181	375.0956230163574	375.79563088413056	376.1456330298778	379.2022359371186	4.106612920761108	[373.10657501220703, 373.2230999469757, 374.18555784225464, 374.35786390304565, 375.1252908706665, 375.22525787353516, 375.3419659137726, 375.4589419364929, 375.5756268501282, 375.6925468444824, 375.8092129230499, 375.92597699165344, 376.04281091690063, 376.159775018692, 376.27635502815247, 376.39327096939087, 376.5099608898163, 376.6269359588623, 376.74350786209106, 376.86046504974365, 376.977108001709, 377.20223689079285]	[373.09836761343274, 373.21503428009277, 374.19803428009277, 374.36473428009276, 375.11473428009276, 375.2314009467528, 375.3480676134128, 375.46473428007283, 375.58140094673286, 375.6980676133929, 375.8147342800529, 375.9314009467129, 376.04806761337295, 376.164734280033, 376.281400946693, 376.398067613353, 376.51473428001304, 376.63140094667307, 376.7480676133331, 376.8647342799931, 376.98140094665314, 377.2147342799865]	2020_Nov_26_1249	59.97397598355054	1	0.375
5	63	FALSE	NN	a	['W', 'M', 'V', 'Z', 'H', 'G', 'E', 'C', 'S', 'R', 'P', 'A', 'U', 'K', 'B', 'T']	[2448, 1224, 2245, 2911, 986, 944, 904, 829, 1731, 1587, 1456, 697, 2059, 1122, 760, 1888]	10	Absent	NA	NA	ABSENT	0.2829110622406006	379.2038118839264	381.2119300365448	382.0286045709779	382.37860671672513	385.3186049461365	4.106674909591675	[379.2128779888153, 379.32970690727234, 380.3019289970398, 380.48091292381287, 381.2317988872528, 381.3484649658203, 381.4652638435364, 381.5820369720459, 381.6990580558777, 381.8158800601959, 381.9324400424957, 382.04912185668945, 382.16617703437805, 382.2829749584198, 382.3996798992157, 382.5163209438324, 382.6331088542938, 382.7501618862152, 382.8666989803314, 382.98365783691406, 383.1003348827362, 383.31860399246216]	[379.2147342799865, 379.3314009466465, 380.3144009466465, 380.4811009466465, 381.2311009466465, 381.34776761330653, 381.46443427996655, 381.5811009466266, 381.6977676132866, 381.8144342799466, 381.93110094660665, 382.04776761326667, 382.1644342799267, 382.2811009465867, 382.39776761324674, 382.51443427990677, 382.6311009465668, 382.7477676132268, 382.86443427988684, 382.98110094654686, 383.0977676132069, 383.33110094654023]	2020_Nov_26_1249	59.97397598355054	1	0.375
5	64	FALSE	AV	a	['C', 'P', 'B', 'V', 'W', 'surprise', 'U', 'Z', 'X', 'A', 'E', 'S', 'M', 'H', 'J', 'Y']	[829, 1456, 760, 2245, 2448, 'stimAuditory/all_stimAuditory/119.wav', 2059, 2911, 4000, 697, 904, 1731, 1224, 986, 1029, 2670]	9	Present	stimAuditory/all_stimAuditory/219.wav	NA	NONE	-1	385.32770586013794	387.328341960907	388.028351020773	388.3783519744273	391.4424338340759	4.114091873168945	[385.33677196502686, 385.45280289649963, 386.41829204559326, 386.6042799949646, 387.35501503944397, 387.4717688560486, 387.58844685554504, 387.7051808834076, 387.82218885421753, 387.93900203704834, 388.05561995506287, 388.1724190711975, 388.2896029949188, 388.4060769081116, 388.5230519771576, 388.6228680610657, 388.7395820617676, 388.8564360141754, 388.9732098579407, 389.0900318622589, 389.2068359851837, 389.4349699020386]	[385.33110094654023, 385.44776761320026, 386.43076761320026, 386.59746761320025, 387.34746761320025, 387.4641342798603, 387.5808009465203, 387.6974676131803, 387.81413427984035, 387.93080094650037, 388.0474676131604, 388.1641342798204, 388.28080094648044, 388.39746761314046, 388.5141342798005, 388.6308009464605, 388.74746761312053, 388.86413427978056, 388.9808009464406, 389.0974676131006, 389.21413427976063, 389.447467613094]	2020_Nov_26_1249	59.97397598355054	1	0.375
5	65	FALSE	NA	a	['M', 'J', 'G', 'T', 'U', 'P', 'Y', 'K', 'A', 'E', 'B', 'R', 'X', 'C', 'V', 'Z']	[1224, 1029, 944, 1888, 2059, 1456, 2670, 1122, 697, 904, 760, 1587, 4000, 829, 2245, 2911]	13	Present	NA	NA	PRESENT	0.19657492637634277	391.4500820636749	393.444699048996	394.6113726297348	394.9613745370634	397.5513360500336	4.106637001037598	[391.45914602279663, 391.55930495262146, 392.534658908844, 392.71079206466675, 393.461238861084, 393.5782239437103, 393.6948330402374, 393.81187891960144, 393.92839884757996, 394.0454578399658, 394.1620168685913, 394.27905106544495, 394.3956880569458, 394.512491941452, 394.62933683395386, 394.74606704711914, 394.862911939621, 394.9797649383545, 395.0966579914093, 395.2135808467865, 395.33014488220215, 395.5513370037079]	[391.447467613094, 391.564134279754, 392.547134279754, 392.713834279754, 393.463834279754, 393.580500946414, 393.69716761307404, 393.81383427973407, 393.9305009463941, 394.0471676130541, 394.16383427971414, 394.28050094637416, 394.3971676130342, 394.5138342796942, 394.63050094635423, 394.74716761301426, 394.8638342796743, 394.9805009463343, 395.0971676129943, 395.21383427965435, 395.3305009463144, 395.5638342796477]	2020_Nov_26_1249	59.97397598355054	1	0.375
5	66	FALSE	NV	a	['R', 'G', 'E', 'T', 'C', 'M', 'W', 'Y', 'K', 'N', 'H', 'X', 'U', 'V', 'Z', 'B']	[1587, 944, 904, 1888, 829, 1224, 2448, 2670, 1122, 1335, 986, 4000, 2059, 2245, 2911, 760]	12	Present	NA	NA	PRESENT	0.24938416481018064	397.5566589832306	399.56117606163025	400.61118392938334	400.961185836712	403.6677029132843	4.106526851654053	[397.5657248497009, 397.6825590133667, 398.6510260105133, 398.83378195762634, 399.58462500572205, 399.7014980316162, 399.8181128501892, 399.93486404418945, 400.0517408847809, 400.16845297813416, 400.28537106513977, 400.4021179676056, 400.5190050601959, 400.6357219219208, 400.7525918483734, 400.86938190460205, 400.9859879016876, 401.1028769016266, 401.21986198425293, 401.33639097213745, 401.4532730579376, 401.66770195961]	[397.5638342796477, 397.68050094630775, 398.66350094630775, 398.83020094630774, 399.58020094630774, 399.69686761296776, 399.8135342796278, 399.9302009462878, 400.04686761294784, 400.16353427960786, 400.2802009462679, 400.3968676129279, 400.51353427958793, 400.63020094624795, 400.746867612908, 400.863534279568, 400.980200946228, 401.09686761288805, 401.21353427954807, 401.3302009462081, 401.4468676128681, 401.68020094620147]	2020_Nov_26_1249	59.97397598355054	1	0.375
5	67	FALSE	NV	a	['J', 'Z', 'G', 'M', 'T', 'S', 'C', 'X', 'P', 'A', 'K', 'E', 'Y', 'V', 'N', 'R']	[1029, 2911, 944, 1224, 1888, 1731, 829, 4000, 1456, 697, 1122, 904, 2670, 2245, 1335, 1587]	8	Present	NA	NA	PRESENT	0.09437203407287598	403.67984890937805	405.677453994751	406.260796387957	406.6107982952856	409.7840700149536	4.106616020202637	[403.68891406059265, 403.80590295791626, 404.7673919200897, 404.9402048587799, 405.7080948352814, 405.8077268600464, 405.92448902130127, 406.0415289402008, 406.1581690311432, 406.27485704421997, 406.39172196388245, 406.50852394104004, 406.62547492980957, 406.742388010025, 406.85896587371826, 406.9757070541382, 407.0924210548401, 407.20940589904785, 407.32606291770935, 407.4430980682373, 407.5598750114441, 407.78408098220825]	[403.68020094620147, 403.7968676128615, 404.7798676128615, 404.9465676128615, 405.6965676128615, 405.8132342795215, 405.92990094618153, 406.04656761284156, 406.1632342795016, 406.2799009461616, 406.3965676128216, 406.51323427948165, 406.6299009461417, 406.7465676128017, 406.8632342794617, 406.97990094612175, 407.09656761278177, 407.2132342794418, 407.3299009461018, 407.44656761276184, 407.56323427942186, 407.7965676127552]	2020_Nov_26_1249	59.97397598355054	1	0.375
5	68	FALSE	NV	a	['R', 'K', 'J', 'V', 'U', 'N', 'M', 'G', 'S', 'W', 'Z', 'B', 'A', 'X', 'T', 'P']	[1587, 1122, 1029, 2245, 2059, 1335, 1224, 944, 1731, 2448, 2911, 760, 697, 4000, 1888, 1456]	14	Present	NA	NA	PRESENT	0.21893787384033203	409.7863130569458	411.793839931488	413.0771813709797	413.42718327830835	415.90043687820435	4.106596946716309	[409.79537892341614, 409.91225385665894, 410.88376092910767, 411.06344199180603, 411.8141338825226, 411.9309148788452, 412.04780983924866, 412.1644859313965, 412.28187084198, 412.3982799053192, 412.51495695114136, 412.63167691230774, 412.74865984916687, 412.8652949333191, 412.9822289943695, 413.09889483451843, 413.21580600738525, 413.33253288269043, 413.4494528770447, 413.5660619735718, 413.68308091163635, 413.90043807029724]	[409.7965676127552, 409.91323427941524, 410.89623427941524, 411.06293427941523, 411.81293427941523, 411.92960094607525, 412.0462676127353, 412.1629342793953, 412.2796009460553, 412.39626761271535, 412.5129342793754, 412.6296009460354, 412.7462676126954, 412.86293427935544, 412.97960094601547, 413.0962676126755, 413.2129342793355, 413.32960094599554, 413.44626761265556, 413.5629342793156, 413.6796009459756, 413.91293427930896]	2020_Nov_26_1249	59.97397598355054	1	0.375
5	69	FALSE	AA	a	['V', 'C', 'B', 'A', 'H', 'Y', 'M', 'K', 'P', 'surprise', 'Z', 'J', 'X', 'R', 'U', 'G']	[2245, 829, 760, 697, 986, 2670, 1224, 1122, 1456, 'stimAuditory/all_stimAuditory/102.wav', 2911, 1029, 4000, 1587, 2059, 944]	13	Present	stimAuditory/all_stimAuditory/107.wav	NA	PRESENT	0.8963329792022705	415.9097399711609	417.9101810455322	419.07685462627103	419.4268565335997	422.01680397987366	4.106622934341431	[415.9188048839569, 416.0353629589081, 417.0001268386841, 417.1867690086365, 417.9375948905945, 418.05426692962646, 418.1709258556366, 418.28773188591003, 418.40475487709045, 418.50448989868164, 418.6212959289551, 418.73814606666565, 418.85494804382324, 418.9717299938202, 419.0885560512543, 419.20527696609497, 419.32215905189514, 419.43895506858826, 419.55574798583984, 419.6725220680237, 419.7893178462982, 420.01680302619934]	[415.91293427930896, 416.029600945969, 417.012600945969, 417.179300945969, 417.929300945969, 418.045967612629, 418.162634279289, 418.27930094594905, 418.39596761260907, 418.5126342792691, 418.6293009459291, 418.74596761258914, 418.86263427924916, 418.9793009459092, 419.0959676125692, 419.21263427922923, 419.32930094588926, 419.4459676125493, 419.5626342792093, 419.67930094586933, 419.79596761252935, 420.0293009458627]	2020_Nov_26_1249	59.97397598355054	1	0.375
5	70	FALSE	NA	a	['G', 'K', 'Y', 'E', 'W', 'V', 'T', 'S', 'U', 'H', 'X', 'A', 'C', 'J', 'M', 'B']	[944, 1122, 2670, 904, 2448, 2245, 1888, 1731, 2059, 986, 4000, 697, 829, 1029, 1224, 760]	11	Present	NA	NA	PRESENT	0.3727710247039795	422.01609897613525	424.02665185928345	424.9599932987951	425.30999520612374	428.13316893577576	4.10651707649231	[422.0251638889313, 422.14193201065063, 423.11648988723755, 423.2930328845978, 424.04375290870667, 424.1608009338379, 424.27741289138794, 424.3943729400635, 424.5110158920288, 424.62797594070435, 424.74465584754944, 424.8614058494568, 424.9783458709717, 425.09516191482544, 425.21207189559937, 425.3286819458008, 425.4455268383026, 425.56215596199036, 425.6791009902954, 425.7960259914398, 425.9126310348511, 426.1331698894501]	[422.0293009458627, 422.1459676125227, 423.12896761252273, 423.2956676125227, 424.0456676125227, 424.16233427918274, 424.27900094584277, 424.3956676125028, 424.5123342791628, 424.62900094582284, 424.74566761248286, 424.8623342791429, 424.9790009458029, 425.09566761246293, 425.21233427912296, 425.329000945783, 425.445667612443, 425.562334279103, 425.67900094576305, 425.7956676124231, 425.9123342790831, 426.14566761241645]	2020_Nov_26_1249	59.97397598355054	1	0.375
5	71	FALSE	NN	a	['B', 'S', 'J', 'T', 'P', 'K', 'V', 'G', 'N', 'C', 'U', 'A', 'E', 'W', 'Z', 'H']	[760, 1731, 1029, 1888, 1456, 1122, 2245, 944, 1335, 829, 2059, 697, 904, 2448, 2911, 986]	10	Absent	NA	NA	ABSENT	0.31344103813171387	428.1393599510193	430.14282989501953	430.9595046678712	431.30950657519986	434.2495369911194	4.1067070960998535	[428.148423910141, 428.26521396636963, 429.2328598499298, 429.4163570404053, 430.1671509742737, 430.28427386283875, 430.40078592300415, 430.5175259113312, 430.6344289779663, 430.7509570121765, 430.8679099082947, 430.9846088886261, 431.1015250682831, 431.2181348800659, 431.33515787124634, 431.451740026474, 431.5687310695648, 431.68536901474, 431.80227994918823, 431.91914987564087, 432.03578901290894, 432.24953603744507]	[428.14566761241645, 428.26233427907647, 429.2453342790765, 429.41203427907647, 430.16203427907647, 430.2787009457365, 430.3953676123965, 430.51203427905654, 430.62870094571656, 430.7453676123766, 430.8620342790366, 430.97870094569663, 431.09536761235665, 431.2120342790167, 431.3287009456767, 431.4453676123367, 431.56203427899675, 431.6787009456568, 431.7953676123168, 431.9120342789768, 432.02870094563684, 432.2620342789702]	2020_Nov_26_1249	59.97397598355054	1	0.375
5	72	FALSE	NA	a	['J', 'R', 'Z', 'H', 'W', 'G', 'B', 'A', 'T', 'U', 'C', 'S', 'N', 'X', 'E', 'Y']	[1029, 1587, 2911, 986, 2448, 944, 760, 697, 1888, 2059, 829, 1731, 1335, 4000, 904, 2670]	14	Present	NA	NA	PRESENT	0.6865661144256592	434.26229596138	436.2593598365784	437.5427003223957	437.8927022297243	440.3659029006958	4.106543064117432	[434.271360874176, 434.37153005599976, 435.3492259979248, 435.52308988571167, 436.27344393730164, 436.3905110359192, 436.5070769786835, 436.62407088279724, 436.740749835968, 436.8575339317322, 436.97426986694336, 437.09118604660034, 437.2078628540039, 437.3247940540314, 437.44149899482727, 437.5583698749542, 437.67509388923645, 437.7919888496399, 437.9087550640106, 438.02561688423157, 438.14231395721436, 438.3659038543701]	[434.2620342789702, 434.3787009456302, 435.3617009456302, 435.5284009456302, 436.2784009456302, 436.39506761229023, 436.51173427895026, 436.6284009456103, 436.7450676122703, 436.8617342789303, 436.97840094559035, 437.0950676122504, 437.2117342789104, 437.3284009455704, 437.44506761223045, 437.56173427889047, 437.6784009455505, 437.7950676122105, 437.91173427887054, 438.02840094553056, 438.1450676121906, 438.37840094552394]	2020_Nov_26_1249	59.97397598355054	1	0.375
5	73	FALSE	VA	a	['W', 'A', 'B', 'T', 'R', 'U', 'N', 'surprise', 'M', 'Y', 'X', 'Z', 'V', 'J', 'H', 'P']	[2448, 697, 760, 1888, 1587, 2059, 1335, 'stimAuditory/all_stimAuditory/114.wav', 1224, 2670, 4000, 2911, 2245, 1029, 986, 1456]	11	Present	NA	NA	NONE	-1	440.3687708377838	442.3758008480072	443.3091422875189	443.6591441948475	446.5015869140625	4.125786066055298	[440.37783694267273, 440.4948818683624, 441.4655919075012, 441.6460659503937, 442.39685106277466, 442.51360297203064, 442.630352973938, 442.7469549179077, 442.8640079498291, 442.9807448387146, 443.0975110530853, 443.21420097351074, 443.3312518596649, 443.44787192344666, 443.5648260116577, 443.68161702156067, 443.798357963562, 443.9150478839874, 444.03196001052856, 444.14859890937805, 444.26528692245483, 444.4822700023651]	[440.37840094552394, 440.49506761218396, 441.47806761218396, 441.64476761218395, 442.39476761218395, 442.511434278844, 442.628100945504, 442.744767612164, 442.86143427882405, 442.9781009454841, 443.0947676121441, 443.2114342788041, 443.32810094546414, 443.44476761212417, 443.5614342787842, 443.6781009454442, 443.79476761210424, 443.91143427876426, 444.0281009454243, 444.1447676120843, 444.26143427874433, 444.4947676120777]	2020_Nov_26_1249	59.97397598355054	1	0.375
5	74	FALSE	NN	a	['H', 'U', 'S', 'K', 'A', 'P', 'W', 'G', 'C', 'Z', 'N', 'T', 'J', 'R', 'M', 'Y']	[986, 2059, 1731, 1122, 697, 1456, 2448, 944, 829, 2911, 1335, 1888, 1029, 1587, 1224, 2670]	13	Absent	NA	NA	ABSENT	0.31243205070495605	446.50878500938416	448.49204301834106	449.6587175527542	450.0087196985014	452.59863591194153	4.106592893600464	[446.5178508758545, 446.6180019378662, 447.58195996284485, 447.769250869751, 448.519966840744, 448.6198799610138, 448.7366769313812, 448.8534529209137, 448.970351934433, 449.08710384368896, 449.20388102531433, 449.3207039833069, 449.43748784065247, 449.55425095558167, 449.6711280345917, 449.7879149913788, 449.9046368598938, 450.0214788913727, 450.13825702667236, 450.2550950050354, 450.3719940185547, 450.5986349582672]	[446.4947676120777, 446.6114342787377, 447.5944342787377, 447.7611342787377, 448.5111342787377, 448.6278009453977, 448.74446761205775, 448.86113427871777, 448.9778009453778, 449.0944676120378, 449.21113427869784, 449.32780094535786, 449.4444676120179, 449.5611342786779, 449.67780094533794, 449.79446761199796, 449.911134278658, 450.027800945318, 450.14446761197803, 450.26113427863805, 450.3778009452981, 450.6111342786314]	2020_Nov_26_1249	59.97397598355054	1	0.375
5	75	FALSE	NA	a	['R', 'U', 'E', 'Z', 'W', 'A', 'B', 'X', 'J', 'G', 'H', 'K', 'M', 'N', 'C', 'T']	[1587, 2059, 904, 2911, 2448, 697, 760, 4000, 1029, 944, 986, 1122, 1224, 1335, 829, 1888]	8	Present	NA	NA	PRESENT	0.6370069980621338	452.5984539985657	454.6082949638366	455.1916373570427	455.5416392643713	458.7150039672851	4.106709003448486	[452.6075210571289, 452.7245590686798, 453.69832396507263, 453.87565898895264, 454.62629890441895, 454.7431888580322, 454.8600699901581, 454.97679805755615, 455.09354400634766, 455.2103168964386, 455.32716488838196, 455.44393396377563, 455.5607199668884, 455.67749285697937, 455.79443287849426, 455.9112298488617, 456.0279610157013, 456.14499497413635, 456.2616159915924, 456.37826204299927, 456.4951250553131, 456.7150020599365]	[452.6111342786314, 452.72780094529145, 453.71080094529145, 453.87750094529144, 454.62750094529144, 454.74416761195147, 454.8608342786115, 454.9775009452715, 455.09416761193154, 455.21083427859156, 455.3275009452516, 455.4441676119116, 455.56083427857163, 455.67750094523166, 455.7941676118917, 455.9108342785517, 456.0275009452117, 456.14416761187175, 456.2608342785318, 456.3775009451918, 456.4941676118518, 456.72750094518517]	2020_Nov_26_1249	59.97397598355054	1	0.375
5	76	FALSE	NA	a	['W', 'A', 'Z', 'B', 'V', 'C', 'Y', 'E', 'G', 'X', 'T', 'M', 'J', 'P', 'S', 'K']	[2448, 697, 2911, 760, 2245, 829, 2670, 904, 944, 4000, 1888, 1224, 1029, 1456, 1731, 1122]	10	Present	NA	NA	ABSENT	0.30569887161254883	458.7217309474945	460.7248089313507	461.5414837042024	461.89148561153104	464.83136892318726	4.106559991836548	[458.7307958602905, 458.8474180698395, 459.8146948814392, 459.9988498687744, 460.7495789527893, 460.86647391319275, 460.98320293426514, 461.09991788864136, 461.216796875, 461.3337240219116, 461.45032787323, 461.567076921463, 461.6840789318085, 461.80070900917053, 461.917711019516, 462.03430104255676, 462.15117287635803, 462.26805996894836, 462.384614944458, 462.50137400627136, 462.61816692352295, 462.83137106895447]	[458.72750094518517, 458.8441676118452, 459.8271676118452, 459.9938676118452, 460.7438676118452, 460.8605342785052, 460.97720094516524, 461.09386761182526, 461.2105342784853, 461.3272009451453, 461.44386761180533, 461.56053427846535, 461.6772009451254, 461.7938676117854, 461.9105342784454, 462.02720094510545, 462.1438676117655, 462.2605342784255, 462.3772009450855, 462.49386761174554, 462.61053427840557, 462.8438676117389]	2020_Nov_26_1249	59.97397598355054	1	0.375
5	77	FALSE	NV	a	['T', 'V', 'Z', 'K', 'M', 'A', 'U', 'X', 'J', 'Y', 'S', 'H', 'R', 'B', 'E', 'P']	[1888, 2245, 2911, 1122, 1224, 697, 2059, 4000, 1029, 2670, 1731, 986, 1587, 760, 904, 1456]	8	Present	NA	NA	PRESENT	0.07883286476135254	464.82810497283936	466.84113693237305	467.42447837190474	467.7744802792334	470.9477369785309	4.106600046157837	[464.8371698856354, 464.9539849758148, 465.931058883667, 466.1052448749542, 466.8562059402466, 466.9729838371277, 467.08962893486023, 467.2064609527588, 467.32318592071533, 467.44011092185974, 467.5568120479584, 467.6737129688263, 467.79043197631836, 467.9071969985962, 468.02414202690125, 468.14071393013, 468.2576730251312, 468.37438583374023, 468.49137687683105, 468.6078939437866, 468.7247769832611, 468.94773602485657]	[464.8438676117389, 464.96053427839894, 465.94353427839894, 466.11023427839893, 466.86023427839893, 466.97690094505896, 467.093567611719, 467.210234278379, 467.32690094503903, 467.44356761169905, 467.5602342783591, 467.6769009450191, 467.7935676116791, 467.91023427833915, 468.02690094499917, 468.1435676116592, 468.2602342783192, 468.37690094497924, 468.49356761163926, 468.6102342782993, 468.7269009449593, 468.96023427829266]	2020_Nov_26_1249	59.97397598355054	1	0.375
5	78	FALSE	NA	a	['C', 'K', 'G', 'Y', 'P', 'E', 'R', 'A', 'J', 'X', 'M', 'Z', 'V', 'H', 'B', 'U']	[829, 1122, 944, 2670, 1456, 904, 1587, 697, 1029, 4000, 1224, 2911, 2245, 986, 760, 2059]	10	Present	NA	NA	PRESENT	0.2515439987182617	470.9512929916382	472.95751786231995	473.7741916814973	474.1241935888259	477.064101934433	4.106584072113037	[470.9603588581085, 471.0771310329437, 472.0474269390106, 472.22860503196716, 472.97927594184875, 473.09612703323364, 473.21286392211914, 473.3296160697937, 473.44647002220154, 473.56330490112305, 473.68020701408386, 473.7967710494995, 473.91377687454224, 474.030415058136, 474.1473169326782, 474.26399993896484, 474.3808629512787, 474.497505903244, 474.61443305015564, 474.731055021286, 474.84801292419434, 475.064101934433]	[470.96023427829266, 471.0769009449527, 472.0599009449527, 472.2266009449527, 472.9766009449527, 473.0932676116127, 473.2099342782727, 473.32660094493275, 473.4432676115928, 473.5599342782528, 473.6766009449128, 473.79326761157284, 473.90993427823287, 474.0266009448929, 474.1432676115529, 474.25993427821294, 474.37660094487296, 474.493267611533, 474.609934278193, 474.72660094485303, 474.84326761151306, 475.0766009448464]	2020_Nov_26_1249	59.97397598355054	1	0.375
5	79	FALSE	NV	a	['M', 'V', 'Z', 'A', 'N', 'S', 'C', 'G', 'X', 'K', 'T', 'E', 'Y', 'P', 'J', 'W']	[1224, 2245, 2911, 697, 1335, 1731, 829, 944, 4000, 1122, 1888, 904, 2670, 1456, 1029, 2448]	9	Present	NA	NA	PRESENT	0.22475481033325195	477.0748279094696	479.07393288612366	479.7739409923154	480.123942899644	483.1804690361023	4.106536149978638	[477.0838930606842, 477.20035696029663, 478.16380286216736, 478.35174584388733, 479.10250091552734, 479.20247197151184, 479.31920886039734, 479.4360320568085, 479.55288004875183, 479.6696848869324, 479.7864408493042, 479.9032230377197, 480.0201098918915, 480.1370289325714, 480.25375604629517, 480.37041187286377, 480.4873559474945, 480.60413694381714, 480.7209758758545, 480.8375120162964, 480.95449900627136, 481.1804690361023]	[477.0766009448464, 477.1932676115064, 478.17626761150643, 478.3429676115064, 479.0929676115064, 479.20963427816645, 479.32630094482647, 479.4429676114865, 479.5596342781465, 479.67630094480654, 479.79296761146657, 479.9096342781266, 480.0263009447866, 480.14296761144664, 480.25963427810666, 480.3763009447667, 480.4929676114267, 480.60963427808673, 480.72630094474675, 480.8429676114068, 480.9596342780668, 481.19296761140015]	2020_Nov_26_1249	59.97397598355054	1	0.375
