participant	trial_num	practice	task	condition	RSVP	RAP	probePos	probe_presence	surprise_sound	surprise_img	probe_response	probe_resp_time	first_fixation_time	trial_start_time	surprise_start_time	probe_start_time	trial_end_time	trial_duration	actualEventTimes	plannedEventTimes	date	framerate	marker_vol	RAP_vol
5	1	FALSE	NV	v	['P', 'V', 'J', 'Y', 'H', 'S', 'K', 'G', 'X', 'W', 'M', 'R', 'T', 'Z', 'A', 'B']	[1456, 2245, 1029, 2670, 986, 1731, 1122, 944, 4000, 2448, 1224, 1587, 1888, 2911, 697, 760]	9	Present	NA	NA	PRESENT	0.34024691581726074	2.1457672119140625e-6	1.999485969543457	2.697819948196411	3.047981023788452	6.103870153427124	4.104384183883667	[0.010183095932006836, 0.10999321937561035, 1.094621181488037, 1.2613210678100586, 2.028797149658203, 2.1454901695251465, 2.245535135269165, 2.3623950481414795, 2.4791641235351562, 2.5959041118621826, 2.7127740383148193, 2.829547166824341, 2.946359157562256, 3.0631120204925537, 3.1799561977386475, 3.2967581748962402, 3.413605213165283, 3.5304880142211914, 3.647191047668457, 3.764024019241333, 3.8808422088623047, 4.10387110710144]	[2.1457672119140625e-06, 0.11666881243387857, 1.0996688124338785, 1.2663688124338786, 2.0163688124338783, 2.133035479100545, 2.2497021457672117, 2.3663688124338784, 2.483035479100545, 2.599702145767212, 2.7163688124338785, 2.833035479100545, 2.949702145767212, 3.0663688124338786, 3.1830354791005453, 3.299702145767212, 3.4163688124338787, 3.5330354791005454, 3.649702145767212, 3.7663688124338788, 3.8830354791005455, 4.116368812433879]	2020_Nov_26_1226	59.93549613248299	1	1
5	2	FALSE	NV	v	['R', 'B', 'M', 'N', 'S', 'H', 'C', 'J', 'U', 'A', 'X', 'Y', 'T', 'Z', 'W', 'G']	[1587, 760, 1224, 1335, 1731, 986, 829, 1029, 2059, 697, 4000, 2670, 1888, 2911, 2448, 944]	11	Present	NA	NA	PRESENT	0.4889822006225586	6.106343030929565	8.112965106964111	9.047550916671751	9.396363973617554	12.220237016677856	4.107271909713745	[6.116523027420044, 6.233429193496704, 7.217712163925171, 7.384450197219849, 8.135138034820557, 8.252161026000977, 8.368774175643921, 8.485779047012329, 8.602457046508789, 8.719443082809448, 8.836053133010864, 8.952850103378296, 9.069715023040771, 9.186525106430054, 9.30324101448059, 9.420182228088379, 9.536917209625244, 9.653727054595947, 9.770502090454102, 9.8871591091156, 10.0040922164917, 10.220237016677856]	[6.116368812433879, 6.233035479100545, 7.216035479100545, 7.382735479100544, 8.132735479100544, 8.249402145767212, 8.366068812433879, 8.482735479100546, 8.599402145767213, 8.71606881243388, 8.832735479100547, 8.949402145767214, 9.066068812433882, 9.182735479100549, 9.299402145767216, 9.416068812433883, 9.53273547910055, 9.649402145767217, 9.766068812433884, 9.882735479100552, 9.999402145767219, 10.232735479100551]	2020_Nov_26_1226	59.93549613248299	1	1
5	3	FALSE	NA	v	['A', 'V', 'K', 'U', 'Y', 'G', 'J', 'H', 'T', 'P', 'X', 'B', 'R', 'N', 'S', 'W']	[697, 2245, 1122, 2059, 2670, 944, 1029, 986, 1888, 1456, 4000, 760, 1587, 1335, 1731, 2448]	11	Present	NA	NA	PRESENT	0.45429491996765137	12.229515075683594	14.229172945022585	15.162691116333008	15.512929916381836	18.33660316467285	4.1074302196502686	[12.239695072174072, 12.356608152389526, 13.341066122055054, 13.507788181304932, 14.258830070495605, 14.37521505355835, 14.492146015167236, 14.608994007110596, 14.725689172744751, 14.842503070831299, 14.959297180175781, 15.076373100280762, 15.1929771900177, 15.30959415435791, 15.426655054092407, 15.543299198150635, 15.660215139389038, 15.777008056640625, 15.89362907409668, 16.010473012924194, 16.110475063323975, 16.336604118347168]	[12.232735479100551, 12.349402145767218, 13.332402145767219, 13.49910214576722, 14.24910214576722, 14.365768812433886, 14.482435479100554, 14.59910214576722, 14.715768812433888, 14.832435479100555, 14.949102145767222, 15.06576881243389, 15.182435479100556, 15.299102145767224, 15.41576881243389, 15.532435479100558, 15.649102145767225, 15.765768812433892, 15.88243547910056, 15.999102145767226, 16.115768812433892, 16.349102145767226]	2020_Nov_26_1226	59.93549613248299	1	1
5	4	FALSE	NN	v	['J', 'H', 'G', 'T', 'Z', 'N', 'S', 'A', 'C', 'B', 'R', 'Y', 'U', 'K', 'E', 'W']	[1029, 986, 944, 1888, 2911, 1335, 1731, 697, 829, 760, 1587, 2670, 2059, 1122, 904, 2448]	13	Absent	NA	NA	ABSENT	0.42682409286499023	18.336117029190063	20.345298051834103	21.512530088424683	21.86233806610107	24.452970027923584	4.1076719760894775	[18.346298217773438, 18.46299409866333, 19.44750714302063, 19.614429235458374, 20.36490821838379, 20.481863021850586, 20.598587036132812, 20.715367078781128, 20.832369089126587, 20.948989152908325, 21.065957069396973, 21.1826012134552, 21.299323081970215, 21.416231155395508, 21.533119201660156, 21.64985418319702, 21.766622066497803, 21.88330101966858, 22.000367164611816, 22.117133140563965, 22.233748197555542, 22.452970027923584]	[18.349102145767226, 18.465768812433893, 19.448768812433894, 19.615468812433893, 20.365468812433893, 20.48213547910056, 20.598802145767227, 20.715468812433894, 20.83213547910056, 20.948802145767228, 21.065468812433895, 21.182135479100562, 21.29880214576723, 21.415468812433897, 21.532135479100564, 21.64880214576723, 21.765468812433898, 21.882135479100565, 21.998802145767232, 22.1154688124339, 22.232135479100567, 22.4654688124339]	2020_Nov_26_1226	59.93549613248299	1	1
5	5	FALSE	NV	v	['T', 'K', 'N', 'H', 'B', 'V', 'M', 'Z', 'X', 'W', 'E', 'A', 'U', 'R', 'S', 'C']	[1888, 1122, 1335, 986, 760, 2245, 1224, 2911, 4000, 2448, 904, 697, 2059, 1587, 1731, 829]	9	Present	NA	NA	PRESENT	0.29537081718444824	24.459628105163578	26.46184206008911	27.162297010421753	27.512377977371216	30.569338083267212	4.107496023178101	[24.469810009002686, 24.586169004440308, 25.570770025253296, 25.737563133239746, 26.488176107406616, 26.605152130126953, 26.721912145614624, 26.838680028915405, 26.95554804801941, 27.07228708267212, 27.18900418281555, 27.305976152420044, 27.42259120941162, 27.539581060409546, 27.656333208084106, 27.773020029067993, 27.889885187149048, 28.006806135177612, 28.123489141464233, 28.240201234817505, 28.357081174850464, 28.569337129592896]	[24.4654688124339, 24.582135479100568, 25.56513547910057, 25.731835479100567, 26.481835479100567, 26.598502145767235, 26.7151688124339, 26.83183547910057, 26.948502145767236, 27.065168812433903, 27.18183547910057, 27.298502145767237, 27.415168812433905, 27.53183547910057, 27.64850214576724, 27.765168812433906, 27.881835479100573, 27.99850214576724, 28.115168812433907, 28.231835479100575, 28.34850214576724, 28.581835479100576]	2020_Nov_26_1226	59.93549613248299	1	1
5	6	FALSE	NA	v	['A', 'J', 'R', 'H', 'S', 'W', 'T', 'X', 'Z', 'C', 'M', 'N', 'G', 'B', 'Y', 'K']	[697, 1029, 1587, 986, 1731, 2448, 1888, 4000, 2911, 829, 1224, 1335, 944, 760, 2670, 1122]	8	Present	NA	NA	PRESENT	0.396723985671997	30.565693140029907	32.57819104194641	33.16180205345154	33.51226210594177	36.68570423126221	4.107513189315796	[30.575873136520386, 30.692690134048462, 31.677224159240723, 31.84409213066101, 32.611462116241455, 32.71148610115051, 32.82848405838013, 32.94510006904602, 33.06190514564514, 33.178731203079224, 33.29543423652649, 33.41225004196167, 33.529099225997925, 33.64590406417847, 33.76269817352295, 33.87971210479736, 33.996262073516846, 34.11320114135742, 34.22984504699707, 34.34705305099487, 34.46337008476257, 34.68570518493652]	[30.581835479100576, 30.698502145767243, 31.681502145767244, 31.848202145767242, 32.598202145767246, 32.71486881243391, 32.83153547910058, 32.94820214576725, 33.064868812433915, 33.18153547910058, 33.29820214576725, 33.414868812433916, 33.53153547910058, 33.64820214576725, 33.76486881243392, 33.881535479100584, 33.99820214576725, 34.11486881243392, 34.231535479100586, 34.34820214576725, 34.46486881243392, 34.698202145767254]	2020_Nov_26_1226	59.93549613248299	1	1
5	7	FALSE	VA	v	['J', 'G', 'N', 'Z', 'surprise', 'P', 'E', 'X', 'T', 'W', 'H', 'V', 'S', 'A', 'C', 'K']	[1029, 944, 1335, 2911, 'stimAuditory/all_stimAuditory/122.wav', 1456, 904, 4000, 1888, 2448, 986, 2245, 1731, 697, 829, 1122]	8	Present	NA	stimVisual/all_stimVisual/206.jpg	ABSENT	1.057117938995361	36.689131021499634	38.69456100463867	39.278239011764526	39.62821698188782	42.80207014083862	4.107509136199951	[36.69931101799011, 36.81589412689209, 37.80046319961548, 37.96742510795593, 38.7179000377655, 38.834776163101196, 38.95166802406311, 39.0685510635376, 39.20174813270569, 39.302067041397095, 39.41873216629028, 39.535760164260864, 39.65232610702515, 39.76902723312378, 39.88585901260376, 40.00275707244873, 40.119450092315674, 40.236388206481934, 40.35315704345703, 40.46984505653381, 40.58659601211548, 40.80207014083862]	[36.698202145767254, 36.81486881243392, 37.79786881243392, 37.96456881243392, 38.71456881243392, 38.831235479100584, 38.94790214576725, 39.06456881243392, 39.181235479100586, 39.29790214576725, 39.41456881243392, 39.53123547910059, 39.647902145767254, 39.76456881243392, 39.88123547910059, 39.997902145767256, 40.11456881243392, 40.23123547910059, 40.34790214576726, 40.464568812433924, 40.58123547910059, 40.814568812433926]	2020_Nov_26_1226	59.93549613248299	1	1
5	8	FALSE	NV	v	['R', 'M', 'N', 'H', 'C', 'U', 'S', 'W', 'B', 'Y', 'E', 'J', 'K', 'X', 'T', 'P']	[1587, 1224, 1335, 986, 829, 2059, 1731, 2448, 760, 2670, 904, 1029, 1122, 4000, 1888, 1456]	14	Present	NA	NA	ABSENT	0.870488166809082	42.81227898597717	44.810917139053345	46.09474492073059	46.44464707374573	48.91843819618225	4.107521057128906	[42.82246017456055, 42.93914008140564, 43.90687012672424, 44.07374715805054, 44.841615200042725, 44.95814514160156, 45.075215101242065, 45.19155716896057, 45.308327198028564, 45.42509317398071, 45.54209518432617, 45.65875720977783, 45.775742053985596, 45.89233207702637, 46.009345054626465, 46.12592911720276, 46.22592210769653, 46.342735052108765, 46.45960521697998, 46.57635712623596, 46.69310808181763, 46.918437004089355]	[42.814568812433926, 42.93123547910059, 43.91423547910059, 44.08093547910059, 44.83093547910059, 44.947602145767256, 45.06426881243392, 45.18093547910059, 45.29760214576726, 45.414268812433924, 45.53093547910059, 45.64760214576726, 45.764268812433926, 45.88093547910059, 45.99760214576726, 46.11426881243393, 46.230935479100594, 46.34760214576726, 46.46426881243393, 46.580935479100596, 46.69760214576726, 46.9309354791006]	2020_Nov_26_1226	59.93549613248299	1	1
5	9	FALSE	NN	v	['U', 'E', 'R', 'P', 'T', 'M', 'J', 'W', 'G', 'V', 'N', 'S', 'H', 'B', 'A', 'Z']	[2059, 904, 1587, 1456, 1888, 1224, 1029, 2448, 944, 2245, 1335, 1731, 986, 760, 697, 2911]	12	Absent	NA	NA	ABSENT	0.4272539615631103	48.918843030929565	50.92741394042969	51.97767496109009	52.32754993438721	55.03480410575867	4.1073901653289795	[48.92902421951294, 49.0455961227417, 50.030109167099, 50.1971230506897, 50.94773817062378, 51.06463122367859, 51.18130922317505, 51.298147201538086, 51.41501307487488, 51.53176307678223, 51.64841914176941, 51.7653751373291, 51.882012128829956, 51.99904012680054, 52.115668058395386, 52.232540130615234, 52.349244117736816, 52.466249227523804, 52.582866191864014, 52.69951009750366, 52.816384077072144, 53.03480410575867]	[48.9309354791006, 49.047602145767264, 50.03060214576726, 50.19730214576726, 50.94730214576726, 51.06396881243393, 51.180635479100594, 51.29730214576726, 51.41396881243393, 51.530635479100596, 51.64730214576726, 51.76396881243393, 51.8806354791006, 51.997302145767264, 52.11396881243393, 52.2306354791006, 52.347302145767266, 52.46396881243393, 52.5806354791006, 52.69730214576727, 52.813968812433934, 53.04730214576727]	2020_Nov_26_1226	59.93549613248299	1	1
5	10	FALSE	AV	v	['Z', 'P', 'T', 'R', 'C', 'Y', 'surprise', 'V', 'H', 'X', 'K', 'U', 'E', 'M', 'A', 'S']	[2911, 1456, 1888, 1587, 829, 2670, 'stimAuditory/all_stimAuditory/103.wav', 2245, 986, 4000, 1122, 2059, 904, 1224, 697, 1731]	10	Present	stimAuditory/all_stimAuditory/122.wav	stimVisual/all_stimVisual/115.jpg	ABSENT	0.6163449287414551	55.042237997055054	57.04363393783569	57.86076092720032	58.210684061050415	61.15117001533508	4.10753607749939	[55.05241918563843, 55.16899013519287, 56.15352511405945, 56.32018208503723, 57.07095909118652, 57.187801122665405, 57.3045220375061, 57.42137813568115, 57.538249015808105, 57.654911041259766, 57.77170419692993, 57.88846015930176, 58.00541019439697, 58.12217402458191, 58.23898100852966, 58.35561013221741, 58.47264122962952, 58.58933901786804, 58.70617914199829, 58.82285213470459, 58.922805070877075, 59.15117120742798]	[55.04730214576727, 55.163968812433936, 56.14696881243393, 56.31366881243393, 57.06366881243393, 57.1803354791006, 57.297002145767266, 57.41366881243393, 57.5303354791006, 57.64700214576727, 57.763668812433934, 57.8803354791006, 57.99700214576727, 58.113668812433936, 58.2303354791006, 58.34700214576727, 58.46366881243394, 58.580335479100604, 58.69700214576727, 58.81366881243394, 58.930335479100606, 59.16366881243394]	2020_Nov_26_1226	59.93549613248299	1	1
5	11	FALSE	NV	v	['J', 'C', 'Z', 'V', 'H', 'R', 'A', 'E', 'W', 'S', 'B', 'P', 'T', 'X', 'G', 'U']	[1029, 829, 2911, 2245, 986, 1587, 697, 904, 2448, 1731, 760, 1456, 1888, 4000, 944, 2059]	14	Present	NA	NA	PRESENT	0.4449899196624756	61.14858412742615	63.160078048706055	64.44406008720398	64.79373598098755	67.26753807067871	4.107460021972656	[61.15876507759094, 61.27538204193115, 62.25976800918579, 62.426876068115234, 63.19414520263672, 63.29424500465393, 63.41097903251648, 63.527926206588745, 63.644609212875366, 63.7615430355072, 63.878154039382935, 63.99514603614807, 64.11196422576904, 64.22865200042725, 64.34577512741089, 64.46233201026917, 64.57895708084106, 64.69570422172546, 64.81253600120544, 64.9294741153717, 65.0460410118103, 65.2675371170044]	[61.16366881243394, 61.28033547910061, 62.263335479100604, 62.4300354791006, 63.1800354791006, 63.29670214576727, 63.41336881243394, 63.530035479100604, 63.64670214576727, 63.76336881243394, 63.880035479100606, 63.99670214576727, 64.11336881243393, 64.2300354791006, 64.34670214576725, 64.46336881243391, 64.58003547910057, 64.69670214576723, 64.8133688124339, 64.93003547910055, 65.04670214576721, 65.28003547910055]	2020_Nov_26_1226	59.93549613248299	1	1
5	12	FALSE	NV	v	['B', 'P', 'E', 'Y', 'S', 'V', 'T', 'X', 'H', 'A', 'W', 'R', 'U', 'M', 'K', 'C']	[760, 1456, 904, 2670, 1731, 2245, 1888, 4000, 986, 697, 2448, 1587, 2059, 1224, 1122, 829]	8	Present	NA	NA	PRESENT	0.36945295333862305	67.27161407470703	69.27634000778198	69.86002492904663	70.21024513244629	73.38390517234802	4.10756516456604	[67.28179502487183, 67.39872002601624, 68.38318514823914, 68.54981517791748, 69.30056309700012, 69.41760420799255, 69.53421401977539, 69.65123009681702, 69.7679090499878, 69.88462519645691, 70.0015881061554, 70.1183021068573, 70.23513412475586, 70.35196208953857, 70.46875810623169, 70.58533120155334, 70.702317237854, 70.81915402412415, 70.93593001365662, 71.05242609977722, 71.16941404342651, 71.38390517234802]	[67.28003547910055, 67.39670214576721, 68.37970214576721, 68.54640214576722, 69.29640214576722, 69.41306881243388, 69.52973547910054, 69.6464021457672, 69.76306881243386, 69.87973547910052, 69.99640214576718, 70.11306881243384, 70.2297354791005, 70.34640214576716, 70.46306881243382, 70.57973547910048, 70.69640214576714, 70.8130688124338, 70.92973547910046, 71.04640214576712, 71.16306881243378, 71.39640214576711]	2020_Nov_26_1226	59.93549613248299	1	1
5	13	FALSE	VV	v	['V', 'N', 'U', 'C', 'K', 'H', 'E', 'surprise', 'G', 'S', 'X', 'T', 'B', 'R', 'M', 'A']	[2245, 1335, 2059, 829, 1122, 986, 904, 'stimAuditory/all_stimAuditory/213.wav', 944, 1731, 4000, 1888, 760, 1587, 1224, 697]	11	Present	NA	stimVisual/all_stimVisual/111.jpg	PRESENT	0.4148821830749512	73.39490699768066	75.39259099960327	76.32645106315613	76.67641997337341	79.50027108192444	4.107680082321167	[73.40508818626404, 73.52206707000732, 74.48978805541992, 74.65652418136597, 75.42397117614746, 75.54074311256409, 75.64070701599121, 75.75752902030945, 75.87428903579712, 75.99116015434265, 76.17479920387268, 76.24143815040588, 76.34145522117615, 76.45822715759277, 76.57505321502686, 76.6918511390686, 76.8087170124054, 76.92549109458923, 77.04221606254578, 77.15919709205627, 77.27584719657898, 77.50027012825012]	[73.39640214576711, 73.51306881243377, 74.49606881243378, 74.66276881243378, 75.41276881243378, 75.52943547910044, 75.6461021457671, 75.76276881243376, 75.87943547910042, 75.99610214576708, 76.11276881243374, 76.2294354791004, 76.34610214576706, 76.46276881243372, 76.57943547910038, 76.69610214576704, 76.8127688124337, 76.92943547910036, 77.04610214576702, 77.16276881243368, 77.27943547910034, 77.51276881243368]	2020_Nov_26_1226	59.93549613248299	1	1
5	14	FALSE	NV	v	['U', 'M', 'N', 'S', 'W', 'G', 'T', 'Y', 'K', 'R', 'J', 'A', 'X', 'H', 'P', 'V']	[2059, 1224, 1335, 1731, 2448, 944, 1888, 2670, 1122, 1587, 1029, 697, 4000, 986, 1456, 2245]	13	Present	NA	NA	PRESENT	0.34738898277282715	79.50149607658386	81.509104013443	82.67611408233643	83.026202917099	85.61663722991943	4.10753321647644	[79.51167702674866, 79.62849807739258, 80.61290121078491, 80.77979803085327, 81.530513048172, 81.6472520828247, 81.76410722732544, 81.8808081150055, 81.99750113487244, 82.11453819274902, 82.2312982082367, 82.34811401367188, 82.4647970199585, 82.58169507980347, 82.69841408729553, 82.81530523300171, 82.93208312988281, 83.0488600730896, 83.16555500030518, 83.2821991443634, 83.39902710914612, 83.61663818359375]	[79.51276881243368, 79.62943547910034, 80.61243547910034, 80.77913547910035, 81.52913547910035, 81.64580214576701, 81.76246881243367, 81.87913547910033, 81.99580214576699, 82.11246881243365, 82.22913547910031, 82.34580214576697, 82.46246881243363, 82.57913547910029, 82.69580214576695, 82.81246881243361, 82.92913547910027, 83.04580214576693, 83.16246881243359, 83.27913547910025, 83.39580214576691, 83.62913547910024]	2020_Nov_26_1226	59.93549613248299	1	1
5	15	FALSE	NN	v	['J', 'Z', 'H', 'K', 'U', 'E', 'R', 'V', 'M', 'N', 'P', 'W', 'Y', 'A', 'T', 'C']	[1029, 2911, 986, 1122, 2059, 904, 1587, 2245, 1224, 1335, 1456, 2448, 2670, 697, 1888, 829]	9	Absent	NA	NA	ABSENT	0.75279998779296875	85.6249930858612	87.62580394744873	88.32583904266357	88.67581105232239	91.73300409317017	4.1072001457214355	[85.635174036026, 85.7517192363739, 86.735995054245, 86.90282416343689, 87.65381002426147, 87.77061319351196, 87.8872971534729, 88.00411319732666, 88.12094616889954, 88.23763608932495, 88.35441303253174, 88.47135615348816, 88.58813810348511, 88.70478701591492, 88.8214840888977, 88.9384171962738, 89.05529713630676, 89.17208003997803, 89.28862810134888, 89.40547013282776, 89.50546216964722, 89.73300409317017]	[85.62913547910024, 85.7458021457669, 86.7288021457669, 86.89550214576691, 87.64550214576691, 87.76216881243357, 87.87883547910023, 87.99550214576689, 88.11216881243355, 88.22883547910021, 88.34550214576687, 88.46216881243353, 88.57883547910019, 88.69550214576685, 88.81216881243351, 88.92883547910017, 89.04550214576683, 89.16216881243349, 89.27883547910015, 89.39550214576681, 89.51216881243347, 89.7455021457668]	2020_Nov_26_1226	59.93549613248299	1	1
5	16	FALSE	NV	v	['S', 'P', 'R', 'J', 'C', 'W', 'N', 'Z', 'X', 'T', 'B', 'K', 'M', 'G', 'E', 'H']	[1731, 1456, 1587, 1029, 829, 2448, 1335, 2911, 4000, 1888, 760, 1122, 1224, 944, 904, 986]	9	Present	NA	NA	PRESENT	0.3891170024871826	91.73127603530884	93.74186301231384	94.44231295585632	94.79219007492064	97.84937119483948	4.107508182525635	[91.74145603179932, 91.85806703567505, 92.84266209602356, 93.00927901268005, 93.75998520851135, 93.87695622444153, 93.99369502067566, 94.11064720153809, 94.22726821899414, 94.34424710273743, 94.46091914176941, 94.57785511016846, 94.69452905654907, 94.81139206886292, 94.92807722091675, 95.04496502876282, 95.16162919998169, 95.27881622314453, 95.39519715309143, 95.51193308830261, 95.62892007827759, 95.84937000274658]	[91.7455021457668, 91.86216881243347, 92.84516881243347, 93.01186881243348, 93.76186881243348, 93.87853547910014, 93.9952021457668, 94.11186881243346, 94.22853547910012, 94.34520214576678, 94.46186881243344, 94.5785354791001, 94.69520214576676, 94.81186881243342, 94.92853547910008, 95.04520214576674, 95.1618688124334, 95.27853547910006, 95.39520214576672, 95.51186881243338, 95.62853547910004, 95.86186881243337]	2020_Nov_26_1226	59.93549613248299	1	1
5	17	FALSE	NV	v	['G', 'P', 'M', 'Z', 'V', 'W', 'T', 'E', 'H', 'U', 'A', 'J', 'R', 'X', 'C', 'K']	[944, 1456, 1224, 2911, 2245, 2448, 1888, 904, 986, 2059, 697, 1029, 1587, 4000, 829, 1122]	14	Present	NA	NA	PRESENT	0.40958595275878906	97.8544590473175	99.858412027359	101.14190697669984	101.49203395843506	103.9657380580902	4.107326030731201	[97.86464023590088, 97.98132705688477, 98.96588110923767, 99.13254308700562, 99.88335609436035, 100.00008606910706, 100.11702108383179, 100.23370218276978, 100.35049510002136, 100.46747612953186, 100.58418321609497, 100.700923204422, 100.81786608695984, 100.93439221382141, 101.05143904685974, 101.16805911064148, 101.28495121002197, 101.4016752243042, 101.51848220825195, 101.63515901565552, 101.7520661354065, 101.96573615074158]	[97.86186881243337, 97.97853547910003, 98.96153547910004, 99.12823547910004, 99.87823547910004, 99.9949021457667, 100.11156881243336, 100.22823547910002, 100.34490214576668, 100.46156881243334, 100.5782354791, 100.69490214576666, 100.81156881243332, 100.92823547909998, 101.04490214576664, 101.1615688124333, 101.27823547909996, 101.39490214576662, 101.51156881243328, 101.62823547909994, 101.7449021457666, 101.97823547909994]	2020_Nov_26_1226	59.93549613248299	1	1
5	18	FALSE	NN	v	['J', 'A', 'V', 'Z', 'S', 'R', 'U', 'Y', 'E', 'P', 'G', 'W', 'T', 'N', 'C', 'K']	[1029, 697, 2245, 2911, 1731, 1587, 2059, 2670, 904, 1456, 944, 2448, 1888, 1335, 829, 1122]	14	Absent	NA	NA	ABSENT	0.4389610290527344	103.97763514518738	105.97467398643494	107.25842809677124	107.60827112197876	110.08210515975952	4.107431173324585	[103.98781514167786, 104.08776211738586, 105.07224011421204, 105.23914217948914, 106.00685119628906, 106.10661602020264, 106.22334313392639, 106.3401231765747, 106.45694303512573, 106.57373404502869, 106.69056701660156, 106.80758714675903, 106.92415618896484, 107.04122114181519, 107.15774202346802, 107.27472519874573, 107.39139914512634, 107.50827813148499, 107.62495708465576, 107.74183106422424, 107.85874819755554, 108.0821042060852]	[103.97823547909994, 104.0949021457666, 105.0779021457666, 105.2446021457666, 105.9946021457666, 106.11126881243327, 106.22793547909993, 106.34460214576659, 106.46126881243325, 106.5779354790999, 106.69460214576657, 106.81126881243323, 106.92793547909989, 107.04460214576655, 107.1612688124332, 107.27793547909987, 107.39460214576653, 107.51126881243319, 107.62793547909985, 107.7446021457665, 107.86126881243317, 108.0946021457665]	2020_Nov_26_1226	59.93549613248299	1	1
5	19	FALSE	AA	v	['J', 'P', 'Z', 'A', 'surprise', 'H', 'R', 'X', 'K', 'N', 'V', 'Y', 'G', 'S', 'W', 'E']	[1029, 1456, 2911, 697, 'stimAuditory/all_stimAuditory/102.wav', 986, 1587, 4000, 1122, 1335, 2245, 2670, 944, 1731, 2448, 904]	8	Present	stimAuditory/all_stimAuditory/103.wav	stimVisual/all_stimVisual/150.jpg	PRESENT	0.4355888366699219	110.0840699672699	112.09092807769775	112.67470097541808	113.0248670578003	116.19847011566162	4.107542037963867	[110.09425020217896, 110.21112418174744, 111.19557213783264, 111.36230707168579, 112.11308312416077, 112.23001623153687, 112.34667110443115, 112.46362400054932, 112.58014607429504, 112.6970751285553, 112.81384205818176, 112.93075108528137, 113.0475480556488, 113.16419005393982, 113.28102421760559, 113.3977541923523, 113.51475405693054, 113.63144016265869, 113.7481632232666, 113.86483812332153, 113.98179411888123, 114.19847011566162]	[110.0946021457665, 110.21126881243316, 111.19426881243317, 111.36096881243317, 112.11096881243317, 112.22763547909983, 112.34430214576649, 112.46096881243315, 112.57763547909981, 112.69430214576647, 112.81096881243313, 112.92763547909979, 113.04430214576645, 113.16096881243311, 113.27763547909977, 113.39430214576643, 113.51096881243309, 113.62763547909975, 113.74430214576641, 113.86096881243307, 113.97763547909973, 114.21096881243307]	2020_Nov_26_1226	59.93549613248299	1	1
5	20	FALSE	NN	v	['U', 'R', 'G', 'P', 'A', 'H', 'S', 'W', 'V', 'C', 'N', 'J', 'T', 'E', 'B', 'Z']	[2059, 1587, 944, 1456, 697, 986, 1731, 2448, 2245, 829, 1335, 1029, 1888, 904, 760, 2911]	11	Absent	NA	NA	ABSENT	0.6008319854736328	116.20764803886414	118.20737600326538	119.14093112945557	119.49104309082033	122.31483721733092	4.107461214065552	[116.21782922744751, 116.33420014381409, 117.3187940120697, 117.48568916320801, 118.23633623123169, 118.35329818725586, 118.46996212005615, 118.58681917190552, 118.70348405838013, 118.82021307945251, 118.93724417686462, 119.05397009849548, 119.17082118988037, 119.28751015663147, 119.4043140411377, 119.5210611820221, 119.63804316520691, 119.7544891834259, 119.87152218818665, 119.98833918571472, 120.08819723129272, 120.31483817100525]	[116.21096881243307, 116.32763547909973, 117.31063547909973, 117.47733547909974, 118.22733547909974, 118.3440021457664, 118.46066881243306, 118.57733547909972, 118.69400214576638, 118.81066881243304, 118.9273354790997, 119.04400214576636, 119.16066881243302, 119.27733547909968, 119.39400214576634, 119.510668812433, 119.62733547909966, 119.74400214576632, 119.86066881243298, 119.97733547909964, 120.0940021457663, 120.32733547909963]	2020_Nov_26_1226	59.93549613248299	1	1
5	21	FALSE	NV	v	['Y', 'K', 'U', 'R', 'M', 'H', 'C', 'Z', 'V', 'P', 'X', 'W', 'J', 'N', 'A', 'E']	[2670, 1122, 2059, 1587, 1224, 986, 829, 2911, 2245, 1456, 4000, 2448, 1029, 1335, 697, 904]	11	Present	NA	NA	PRESENT	0.4133107662200928	122.31380796432497	124.32379102706908	125.25736713409424	125.60752701759338	128.43120312690735	4.107412099838257	[122.32399010658264, 122.44087219238281, 123.42533016204834, 123.59213614463806, 124.3429172039032, 124.45958805084229, 124.57649612426758, 124.6933171749115, 124.80996608734131, 124.92684721946716, 125.04378819465637, 125.16053605079651, 125.27743721008301, 125.3940851688385, 125.5107011795044, 125.62779307365417, 125.7444441318512, 125.86108922958374, 125.9778401851654, 126.09462523460388, 126.2116310596466, 126.43120312690735]	[122.32733547909963, 122.44400214576629, 123.4270021457663, 123.5937021457663, 124.3437021457663, 124.46036881243296, 124.57703547909962, 124.69370214576628, 124.81036881243294, 124.9270354790996, 125.04370214576626, 125.16036881243292, 125.27703547909958, 125.39370214576624, 125.5103688124329, 125.62703547909956, 125.74370214576622, 125.86036881243288, 125.97703547909954, 126.0937021457662, 126.21036881243286, 126.4437021457662]	2020_Nov_26_1226	59.93549613248299	1	1
5	22	FALSE	NN	v	['U', 'Z', 'M', 'T', 'B', 'G', 'H', 'C', 'W', 'S', 'N', 'A', 'R', 'E', 'V', 'K']	[2059, 2911, 1224, 1888, 760, 944, 986, 829, 2448, 1731, 1335, 697, 1587, 904, 2245, 1122]	9	Absent	NA	NA	ABSENT	0.67391204833984375	128.43717002868652	130.43988513946533	131.1404299736023	131.49084091186523	134.54757118225098	4.1076860427856445	[128.447350025177, 128.5641930103302, 129.5485680103302, 129.7153401374817, 130.4660210609436, 130.58270001411438, 130.69967103004456, 130.8165352344513, 130.9332981109619, 131.0500090122223, 131.16681623458862, 131.28359508514404, 131.4005560874939, 131.51729202270508, 131.6341781616211, 131.7507381439209, 131.86777305603027, 131.9845371246338, 132.10107803344727, 132.2180211544037, 132.33487200737, 132.54757022857666]	[128.4437021457662, 128.56036881243287, 129.54336881243287, 129.71006881243287, 130.46006881243287, 130.57673547909954, 130.6934021457662, 130.8100688124329, 130.92673547909956, 131.04340214576624, 131.1600688124329, 131.27673547909959, 131.39340214576626, 131.51006881243293, 131.6267354790996, 131.74340214576628, 131.86006881243296, 131.97673547909963, 132.0934021457663, 132.21006881243298, 132.32673547909965, 132.56006881243297]	2020_Nov_26_1226	59.93549613248299	1	1
5	23	FALSE	NN	v	['K', 'N', 'Y', 'S', 'Z', 'V', 'U', 'E', 'A', 'R', 'J', 'P', 'W', 'G', 'C', 'T']	[1122, 1335, 2670, 1731, 2911, 2245, 2059, 904, 697, 1587, 1029, 1456, 2448, 944, 829, 1888]	8	Absent	NA	NA	ABSENT	0.5831520557403564	134.54354000091553	136.55640697479248	137.140212059021	137.49028491973877	140.6639380455017	4.1075310707092285	[134.5537211894989, 134.67052221298218, 135.6553111076355, 135.8217351436615, 136.5892791748047, 136.6892921924591, 136.80603218078613, 136.9228961467743, 137.0397491455078, 137.15663814544678, 137.27333903312683, 137.39031720161438, 137.50680303573608, 137.6238100528717, 137.74055218696594, 137.85750722885132, 137.97403001785278, 138.09078407287598, 138.20768404006958, 138.32436609268188, 138.4413251876831, 138.6639370918274]	[134.56006881243297, 134.67673547909965, 135.65973547909965, 135.82643547909964, 136.57643547909964, 136.69310214576632, 136.809768812433, 136.92643547909967, 137.04310214576634, 137.15976881243301, 137.2764354790997, 137.39310214576636, 137.50976881243304, 137.6264354790997, 137.7431021457664, 137.85976881243306, 137.97643547909973, 138.0931021457664, 138.20976881243308, 138.32643547909976, 138.44310214576643, 138.67643547909975]	2020_Nov_26_1226	59.93549613248299	1	1
5	24	FALSE	NA	v	['J', 'C', 'M', 'H', 'A', 'G', 'K', 'W', 'Y', 'B', 'S', 'V', 'X', 'T', 'U', 'P']	[1029, 829, 1224, 986, 697, 944, 1122, 2448, 2670, 760, 1731, 2245, 4000, 1888, 2059, 1456]	13	Present	NA	NA	PRESENT	0.32380104064941406	140.66689014434814	142.6726679801941	143.84005403518677	144.19037508964541	146.78030514717102	4.107637166976929	[140.67707109451294, 140.79386520385742, 141.77818822860718, 141.94502210617065, 142.69579410552979, 142.81277418136597, 142.92934823036194, 143.04635906219482, 143.16299700737, 143.2798810005188, 143.39657616615295, 143.51339721679688, 143.6301920413971, 143.7468330860138, 143.86367917060852, 143.98060011863708, 144.09741711616516, 144.21421122550964, 144.33086705207825, 144.44763922691345, 144.56444811820984, 144.78030514717102]	[140.67643547909975, 140.79310214576643, 141.77610214576643, 141.94280214576642, 142.69280214576642, 142.8094688124331, 142.92613547909977, 143.04280214576644, 143.15946881243312, 143.2761354790998, 143.39280214576647, 143.50946881243314, 143.62613547909982, 143.7428021457665, 143.85946881243316, 143.97613547909984, 144.0928021457665, 144.2094688124332, 144.32613547909986, 144.44280214576654, 144.5594688124332, 144.79280214576653]	2020_Nov_26_1226	59.93549613248299	1	1
5	25	FALSE	NV	v	['H', 'S', 'A', 'E', 'C', 'Z', 'T', 'X', 'K', 'J', 'V', 'P', 'W', 'U', 'M', 'R']	[986, 1731, 697, 904, 829, 2911, 1888, 4000, 1122, 1029, 2245, 1456, 2448, 2059, 1224, 1587]	8	Present	NA	NA	PRESENT	0.41704797744750977	146.79036903381348	148.7891390323639	149.37280797958374	149.72297310829163	152.89667105674744	4.107532024383545	[146.80055022239685, 146.91699314117432, 147.88463521003723, 148.05145621299744, 148.81896710395813, 148.93583917617798, 149.0527150630951, 149.16944408416748, 149.2863311767578, 149.403067111969, 149.51980900764465, 149.6364870071411, 149.75347018241882, 149.87032318115234, 149.9869921207428, 150.1036832332611, 150.22049617767334, 150.33735704421997, 150.45409107208252, 150.57096004486084, 150.67098903656006, 150.89667105674744]	[146.79280214576653, 146.9094688124332, 147.8924688124332, 148.0591688124332, 148.8091688124332, 148.92583547909987, 149.04250214576655, 149.15916881243322, 149.2758354790999, 149.39250214576657, 149.50916881243324, 149.62583547909992, 149.7425021457666, 149.85916881243327, 149.97583547909994, 150.09250214576662, 150.2091688124333, 150.32583547909996, 150.44250214576664, 150.5591688124333, 150.6758354791, 150.9091688124333]	2020_Nov_26_1226	59.93549613248299	1	1
5	26	FALSE	NN	v	['H', 'R', 'P', 'Y', 'Z', 'N', 'K', 'A', 'C', 'W', 'U', 'G', 'E', 'V', 'S', 'M']	[986, 1587, 1456, 2670, 2911, 1335, 1122, 697, 829, 2448, 2059, 944, 904, 2245, 1731, 1224]	13	Absent	NA	NA	ABSENT	0.573681116104126	152.89641308784485	154.90553998947144	156.07258200645447	156.4225721359253	159.01303815841675	4.1074981689453125	[152.90659403800964, 153.02353405952454, 154.00790309906006, 154.1748402118683, 154.9254081249237, 155.0423460006714, 155.1592390537262, 155.27608919143677, 155.39267110824585, 155.50956106185913, 155.62635803222656, 155.74305820465088, 155.85998702049255, 155.97680616378784, 156.09352922439575, 156.21036911010742, 156.327290058136, 156.44378900527954, 156.56072521209717, 156.67754101753235, 156.79423308372498, 157.01303815841675]	[152.9091688124333, 153.02583547909998, 154.0088354791, 154.17553547909998, 154.92553547909998, 155.04220214576665, 155.15886881243333, 155.2755354791, 155.39220214576667, 155.50886881243335, 155.62553547910002, 155.7422021457667, 155.85886881243337, 155.97553547910005, 156.09220214576672, 156.2088688124334, 156.32553547910007, 156.44220214576674, 156.55886881243342, 156.6755354791001, 156.79220214576677, 157.02553547910009]	2020_Nov_26_1226	59.93549613248299	1	1
5	27	FALSE	NN	v	['U', 'B', 'S', 'K', 'C', 'J', 'G', 'M', 'N', 'V', 'Z', 'E', 'H', 'W', 'A', 'R']	[2059, 760, 1731, 1122, 829, 1029, 944, 1224, 1335, 2245, 2911, 904, 986, 2448, 697, 1587]	9	Absent	NA	NA	ABSENT	0.57924485206604	159.01977396011353	161.02222514152527	161.72219610214233	162.0722620487213	165.12940406799316	4.1071789264678955	[159.0299551486969, 159.14684510231018, 160.1312050819397, 160.29794907569885, 161.04881405830383, 161.16554522514343, 161.28231811523438, 161.39927411079407, 161.51600408554077, 161.63266515731812, 161.7494330406189, 161.8665201663971, 161.98336219787598, 162.10004711151123, 162.2168300151825, 162.33359622955322, 162.45028519630432, 162.56700205802917, 162.6846981048584, 162.8005051612854, 162.9173882007599, 163.12940406799316]	[159.02553547910009, 159.14220214576676, 160.12520214576676, 160.29190214576676, 161.04190214576676, 161.15856881243343, 161.2752354791001, 161.39190214576678, 161.50856881243345, 161.62523547910013, 161.7419021457668, 161.85856881243348, 161.97523547910015, 162.09190214576682, 162.2085688124335, 162.32523547910017, 162.44190214576685, 162.55856881243352, 162.6752354791002, 162.79190214576687, 162.90856881243354, 163.14190214576686]	2020_Nov_26_1226	59.93549613248299	1	1
5	28	FALSE	VN	v	['S', 'C', 'R', 'J', 'E', 'T', 'K', 'U', 'surprise', 'G', 'P', 'W', 'Z', 'N', 'Y', 'B']	[1731, 829, 1587, 1029, 904, 1888, 1122, 2059, 'stimAuditory/all_stimAuditory/208.wav', 944, 1456, 2448, 2911, 1335, 2670, 760]	12	Absent	NA	stimVisual/all_stimVisual/122.jpg	ABSENT	0.5674459934234619	165.12617707252502	167.13860201835632	168.18874311447144	168.5386679172516	171.24577021598816	4.107168197631836	[165.1363570690155, 165.25321412086487, 166.23772501945496, 166.4049210548401, 167.17203211784363, 167.2721951007843, 167.38878202438354, 167.5056610107422, 167.62242603302002, 167.73939108848572, 167.85619401931763, 167.97284507751465, 168.10624623298645, 168.2064290046692, 168.32323503494263, 168.44011116027832, 168.55672407150269, 168.67342901229858, 168.79038310050964, 168.9070541858673, 169.02393317222595, 169.24577116966248]	[165.14190214576686, 165.25856881243354, 166.24156881243354, 166.40826881243353, 167.15826881243353, 167.2749354791002, 167.39160214576688, 167.50826881243356, 167.62493547910023, 167.7416021457669, 167.85826881243358, 167.97493547910025, 168.09160214576693, 168.2082688124336, 168.32493547910028, 168.44160214576695, 168.55826881243362, 168.6749354791003, 168.79160214576697, 168.90826881243365, 169.02493547910032, 169.25826881243364]	2020_Nov_26_1226	59.93549613248299	1	1
5	29	FALSE	NV	v	['V', 'R', 'S', 'Z', 'B', 'G', 'U', 'H', 'X', 'N', 'Y', 'A', 'P', 'C', 'K', 'E']	[2245, 1587, 1731, 2911, 760, 944, 2059, 986, 4000, 1335, 2670, 697, 1456, 829, 1122, 904]	9	Present	NA	NA	PRESENT	0.40422582626342773	171.2494421005249	173.25467896461487	173.95550107955933	174.30511808395386	177.3621380329132	4.10745906829834	[171.2596230506897, 171.37654519081116, 172.3608410358429, 172.527761220932, 173.27848601341248, 173.3952100276947, 173.51212811470032, 173.628897190094, 173.74574422836304, 173.86237406730652, 173.9793062210083, 174.0962541103363, 174.21286010742188, 174.3296182155609, 174.44662022590637, 174.56313014030457, 174.6798951625824, 174.79687905311584, 174.9135820865631, 175.0303270816803, 175.14726901054382, 175.3621370792389]	[171.25826881243364, 171.37493547910032, 172.35793547910032, 172.5246354791003, 173.2746354791003, 173.39130214576699, 173.50796881243366, 173.62463547910033, 173.741302145767, 173.85796881243368, 173.97463547910036, 174.09130214576703, 174.2079688124337, 174.32463547910038, 174.44130214576705, 174.55796881243373, 174.6746354791004, 174.79130214576708, 174.90796881243375, 175.02463547910043, 175.1413021457671, 175.37463547910042]	2020_Nov_26_1226	59.93549613248299	1	1
5	30	FALSE	NA	v	['H', 'T', 'W', 'C', 'N', 'Z', 'M', 'P', 'Y', 'J', 'B', 'K', 'X', 'R', 'S', 'A']	[986, 1888, 2448, 829, 1335, 2911, 1224, 1456, 2670, 1029, 760, 1122, 4000, 1587, 1731, 697]	13	Present	NA	NA	ABSENT	0.4013328552246094	177.37317204475403	179.37119698524475	180.5382730960846	180.887943983078	183.47850513458252	4.1073081493377686	[177.38335418701172, 177.49968910217285, 178.46731114387512, 178.63415217399597, 179.40168523788452, 179.51858615875244, 179.63539218902588, 179.75218105316162, 179.86878418922424, 179.98584914207458, 180.1025950908661, 180.21927905082703, 180.33613920211792, 180.43612217903137, 180.5528130531311, 180.66967606544495, 180.78633618354797, 180.9032380580902, 181.0199680328369, 181.1367790699005, 181.25378108024597, 181.47850513458252]	[177.37463547910042, 177.4913021457671, 178.4743021457671, 178.6410021457671, 179.3910021457671, 179.50766881243376, 179.62433547910044, 179.7410021457671, 179.8576688124338, 179.97433547910046, 180.09100214576713, 180.2076688124338, 180.32433547910048, 180.44100214576716, 180.55766881243383, 180.6743354791005, 180.79100214576718, 180.90766881243385, 181.02433547910053, 181.1410021457672, 181.25766881243388, 181.4910021457672]	2020_Nov_26_1226	59.93549613248299	1	1
5	31	FALSE	NA	v	['W', 'V', 'U', 'Z', 'K', 'P', 'R', 'Y', 'A', 'J', 'X', 'S', 'H', 'N', 'M', 'T']	[2448, 2245, 2059, 2911, 1122, 1456, 1587, 2670, 697, 1029, 4000, 1731, 986, 1335, 1224, 1888]	11	Present	NA	NA	PRESENT	0.4858870506286621	183.4791419506073	185.48756313323975	186.42103791236875	186.7711079120636	189.59487104415896	4.1073079109191895	[183.48932313919067, 183.60640907287598, 184.590585231781, 184.757306098938, 185.50824618339539, 185.62491106987, 185.7418200969696, 185.85877108573914, 185.9753930568695, 186.09212803840637, 186.20906019210815, 186.32574319839478, 186.44268608093262, 186.5593011379242, 186.67620611190796, 186.79277801513672, 186.90974521636963, 187.02658915519714, 187.1434211730957, 187.26052713394165, 187.37690615653992, 187.59487104415894]	[183.4910021457672, 183.60766881243387, 184.59066881243388, 184.75736881243387, 185.50736881243387, 185.62403547910054, 185.74070214576722, 185.8573688124339, 185.97403547910056, 186.09070214576724, 186.2073688124339, 186.3240354791006, 186.44070214576726, 186.55736881243394, 186.6740354791006, 186.79070214576728, 186.90736881243396, 187.02403547910063, 187.1407021457673, 187.25736881243398, 187.37403547910066, 187.60736881243398]	2020_Nov_26_1226	59.93549613248299	1	1
5	32	FALSE	NA	v	['R', 'K', 'S', 'G', 'B', 'J', 'W', 'M', 'P', 'A', 'X', 'Z', 'V', 'H', 'U', 'Y']	[1587, 1122, 1731, 944, 760, 1029, 2448, 1224, 1456, 697, 4000, 2911, 2245, 986, 2059, 2670]	11	Present	NA	NA	PRESENT	0.3712801933288574	189.60238194465637	191.60394406318665	192.5376410484314	192.8874249458313	195.71123814582825	4.107294082641602	[189.61256217956543, 189.7293200492859, 190.71391010284424, 190.88055205345154, 191.63139605522156, 191.74827814102173, 191.8650131225586, 191.9819691181183, 192.09865307807922, 192.21536803245544, 192.33233404159546, 192.44910407066345, 192.56595611572266, 192.68238520622253, 192.79953002929688, 192.91611123085022, 193.0330400466919, 193.14981722831726, 193.26664113998413, 193.3831751346588, 193.48332118988037, 193.7112431526184]	[189.60736881243398, 189.72403547910065, 190.70703547910065, 190.87373547910065, 191.62373547910065, 191.74040214576732, 191.857068812434, 191.97373547910067, 192.09040214576734, 192.20706881243402, 192.3237354791007, 192.44040214576737, 192.55706881243404, 192.6737354791007, 192.7904021457674, 192.90706881243406, 193.02373547910074, 193.1404021457674, 193.25706881243408, 193.37373547910076, 193.49040214576743, 193.72373547910075]	2020_Nov_26_1226	59.93549613248299	1	1
5	33	FALSE	VA	v	['R', 'J', 'V', 'S', 'P', 'W', 'surprise', 'H', 'U', 'X', 'E', 'B', 'T', 'K', 'Z', 'A']	[1587, 1029, 2245, 1731, 1456, 2448, 'stimAuditory/all_stimAuditory/218.wav', 986, 2059, 4000, 904, 760, 1888, 1122, 2911, 697]	10	Present	NA	stimVisual/all_stimVisual/116.jpg	PRESENT	0.4478981494903565	195.7089240550995	197.72024297714233	198.53715014457703	198.88705706596377	201.82760405540463	4.107361078262329	[195.71910405158997, 195.8361370563507, 196.82040309906006, 196.9872851371765, 197.73809123039246, 197.8548390865326, 197.9715120792389, 198.08846402168274, 198.20514011383057, 198.32180213928223, 198.45558500289917, 198.555438041687, 198.67234802246094, 198.78908014297485, 198.90597915649414, 199.02277517318726, 199.13943099975586, 199.2561972141266, 199.37310910224915, 199.48988103866577, 199.60669207572937, 199.82760310173035]	[195.72373547910075, 195.84040214576743, 196.82340214576743, 196.99010214576742, 197.74010214576742, 197.8567688124341, 197.97343547910077, 198.09010214576745, 198.20676881243412, 198.3234354791008, 198.44010214576747, 198.55676881243414, 198.67343547910082, 198.7901021457675, 198.90676881243417, 199.02343547910084, 199.14010214576751, 199.2567688124342, 199.37343547910086, 199.49010214576754, 199.6067688124342, 199.84010214576753]	2020_Nov_26_1226	59.93549613248299	1	1
5	34	FALSE	NV	v	['U', 'E', 'N', 'J', 'R', 'P', 'V', 'S', 'K', 'T', 'X', 'G', 'A', 'H', 'C', 'B']	[2059, 904, 1335, 1029, 1587, 1456, 2245, 1731, 1122, 1888, 4000, 944, 697, 986, 829, 760]	11	Present	NA	NA	PRESENT	0.4444618225097656	201.83226108551025	203.8365340232849	204.77064108848572	205.12004613876343	207.9439702033997	4.107436180114746	[201.84244108200073, 201.9590871334076, 202.9435682296753, 203.11035108566284, 203.86133122444153, 203.97795820236206, 204.09490513801575, 204.21146416664124, 204.32844400405884, 204.44530415534973, 204.56204509735107, 204.67862510681152, 204.79571413993835, 204.91246223449707, 205.02927112579346, 205.14574718475342, 205.262864112854, 205.37941813468933, 205.49619102478027, 205.6131660938263, 205.72978806495667, 205.94396901130676]	[201.84010214576753, 201.9567688124342, 202.9397688124342, 203.1064688124342, 203.8564688124342, 203.97313547910088, 204.08980214576755, 204.20646881243422, 204.3231354791009, 204.43980214576757, 204.55646881243425, 204.67313547910092, 204.7898021457676, 204.90646881243427, 205.02313547910094, 205.13980214576762, 205.2564688124343, 205.37313547910097, 205.48980214576764, 205.60646881243431, 205.723135479101, 205.9564688124343]	2020_Nov_26_1226	59.93549613248299	1	1
5	35	FALSE	NA	v	['B', 'K', 'C', 'H', 'Z', 'J', 'M', 'E', 'U', 'G', 'W', 'X', 'R', 'P', 'T', 'N']	[760, 1122, 829, 986, 2911, 1029, 1224, 904, 2059, 944, 2448, 4000, 1587, 1456, 1888, 1335]	12	Present	NA	NA	PRESENT	0.473585844039917	207.9556050300598	209.9527599811554	211.00341701507568	211.35320711135864	214.0603380203247	4.1075780391693115	[207.9657871723175, 208.06563115119934, 209.05018615722656, 209.2168412208557, 209.98435711860657, 210.10119318962097, 210.20113110542297, 210.31791615486145, 210.4347631931305, 210.55154418945312, 210.66835522651672, 210.785147190094, 210.9019660949707, 211.0187840461731, 211.13554215431213, 211.2522931098938, 211.36907505989075, 211.48589420318604, 211.60279607772827, 211.7194230556488, 211.83645701408386, 212.0603370666504]	[207.9564688124343, 208.07313547910098, 209.056135479101, 209.22283547910098, 209.97283547910098, 210.08950214576765, 210.20616881243433, 210.322835479101, 210.43950214576768, 210.55616881243435, 210.67283547910102, 210.7895021457677, 210.90616881243437, 211.02283547910105, 211.13950214576772, 211.2561688124344, 211.37283547910107, 211.48950214576774, 211.60616881243442, 211.7228354791011, 211.83950214576777, 212.0728354791011]	2020_Nov_26_1226	59.93549613248299	1	1
5	36	FALSE	NN	v	['G', 'M', 'U', 'E', 'A', 'Y', 'Z', 'T', 'J', 'P', 'B', 'C', 'W', 'N', 'H', 'K']	[944, 1224, 2059, 904, 697, 2670, 2911, 1888, 1029, 1456, 760, 829, 2448, 1335, 986, 1122]	8	Absent	NA	NA	ABSENT	0.6141438484191895	214.06190395355225	216.06927013397217	216.6530339717865	217.00322699546817	220.176705121994	4.107434988021851	[214.0720841884613, 214.1890571117401, 215.17321920394897, 215.34011316299438, 216.0908501148224, 216.20781302452087, 216.3244571685791, 216.44135403633118, 216.55817914009094, 216.6748251914978, 216.79173016548157, 216.90843605995178, 217.02519607543945, 217.1420111656189, 217.25916004180908, 217.3755362033844, 217.492436170578, 217.60922122001648, 217.7261312007904, 217.8428201675415, 217.95972323417664, 218.17670607566833]	[214.0728354791011, 214.18950214576776, 215.17250214576777, 215.33920214576776, 216.08920214576776, 216.20586881243443, 216.3225354791011, 216.43920214576778, 216.55586881243445, 216.67253547910113, 216.7892021457678, 216.90586881243448, 217.02253547910115, 217.13920214576783, 217.2558688124345, 217.37253547910117, 217.48920214576785, 217.60586881243452, 217.7225354791012, 217.83920214576787, 217.95586881243455, 218.18920214576787]	2020_Nov_26_1226	59.93549613248299	1	1
5	37	FALSE	NV	v	['A', 'P', 'B', 'G', 'T', 'K', 'W', 'X', 'Y', 'R', 'H', 'Z', 'C', 'J', 'M', 'U']	[697, 1456, 760, 944, 1888, 1122, 2448, 4000, 2670, 1587, 986, 2911, 829, 1029, 1224, 2059]	8	Present	NA	NA	ABSENT	0.5396490097045898	220.18528008461	222.185791015625	222.76967096328735	223.11939811706543	226.29307007789612	4.107279062271118	[220.19546008110046, 220.31212210655212, 221.29642605781555, 221.4635090827942, 222.2142150402069, 222.33095622062683, 222.44779706001282, 222.56442618370056, 222.68209218978882, 222.79803013801575, 222.9149510860443, 223.03166222572327, 223.14865803718567, 223.2653431892395, 223.38199305534363, 223.49879217147827, 223.61554217338562, 223.73254203796387, 223.84915709495544, 223.96605110168457, 224.066171169281, 224.29307103157043]	[220.18920214576787, 220.30586881243454, 221.28886881243454, 221.45556881243454, 222.20556881243454, 222.3222354791012, 222.43890214576788, 222.55556881243456, 222.67223547910123, 222.7889021457679, 222.90556881243458, 223.02223547910125, 223.13890214576793, 223.2555688124346, 223.37223547910128, 223.48890214576795, 223.60556881243463, 223.7222354791013, 223.83890214576797, 223.95556881243465, 224.07223547910132, 224.30556881243464]	2020_Nov_26_1226	59.93549613248299	1	1
5	38	FALSE	NV	v	['R', 'C', 'A', 'W', 'V', 'P', 'Z', 'U', 'B', 'K', 'E', 'J', 'X', 'Y', 'M', 'S']	[1587, 829, 697, 2448, 2245, 1456, 2911, 2059, 760, 1122, 904, 1029, 4000, 2670, 1224, 1731]	13	Present	NA	NA	PRESENT	0.44022703170776367	226.2916021347046	228.30192494392395	229.46907901763916	229.8191270828247	232.40943813323975	4.107513189315796	[226.30178308486938, 226.41868019104004, 227.40338921546936, 227.56980109214783, 228.32056307792664, 228.43743801116943, 228.55424404144287, 228.67111802101135, 228.78776621818542, 228.9047441482544, 229.0214171409607, 229.1383662223816, 229.2550961971283, 229.3717930316925, 229.4885401725769, 229.6052761077881, 229.72227215766907, 229.8390691280365, 229.95583605766296, 230.0725600719452, 230.1894280910492, 230.40943813323975]	[226.30556881243464, 226.42223547910132, 227.40523547910132, 227.5719354791013, 228.3219354791013, 228.438602145768, 228.55526881243466, 228.67193547910134, 228.788602145768, 228.90526881243468, 229.02193547910136, 229.13860214576803, 229.2552688124347, 229.37193547910138, 229.48860214576806, 229.60526881243473, 229.7219354791014, 229.83860214576808, 229.95526881243475, 230.07193547910143, 230.1886021457681, 230.42193547910142]	2020_Nov_26_1226	59.93549613248299	1	1
5	39	FALSE	NA	v	['E', 'N', 'P', 'S', 'Y', 'K', 'G', 'H', 'W', 'X', 'T', 'V', 'Z', 'C', 'U', 'B']	[904, 1335, 1456, 1731, 2670, 1122, 944, 986, 2448, 4000, 1888, 2245, 2911, 829, 2059, 760]	10	Present	NA	NA	PRESENT	0.8205180168151855	232.41489505767825	234.4183850288391	235.23539113998413	235.5853350162506	238.52580523490903	4.107420206069946	[232.4250750541687, 232.54182314872742, 233.52623009681702, 233.69310021400452, 234.44393610954285, 234.56082105636597, 234.67752718925476, 234.7943980693817, 234.91118717193604, 235.02796816825867, 235.1448051929474, 235.26142621040344, 235.37826108932495, 235.49491715431213, 235.61177921295166, 235.72867512702942, 235.8455572128296, 235.96206903457642, 236.0789451599121, 236.1956810951233, 236.31249713897705, 236.52580404281616]	[232.42193547910142, 232.5386021457681, 233.5216021457681, 233.6883021457681, 234.4383021457681, 234.55496881243477, 234.67163547910144, 234.7883021457681, 234.9049688124348, 235.02163547910146, 235.13830214576814, 235.2549688124348, 235.37163547910149, 235.48830214576816, 235.60496881243483, 235.7216354791015, 235.83830214576818, 235.95496881243486, 236.07163547910153, 236.1883021457682, 236.30496881243488, 236.5383021457682]	2020_Nov_26_1226	59.93549613248299	1	1
5	40	FALSE	AA	v	['R', 'J', 'T', 'Z', 'K', 'P', 'G', 'S', 'surprise', 'E', 'H', 'X', 'W', 'V', 'Y', 'M']	[1587, 1029, 1888, 2911, 1122, 1456, 944, 1731, 'stimAuditory/all_stimAuditory/121.wav', 904, 986, 4000, 2448, 2245, 2670, 1224]	12	Present	stimAuditory/all_stimAuditory/213.wav	stimVisual/all_stimVisual/113.jpg	PRESENT	0.4258139133453369	238.5213439464569	240.5348949432373	241.58518195152283	241.93528509140015	244.64217114448547	4.107276201248169	[238.53152418136597, 238.64832711219788, 239.63280200958252, 239.799663066864, 240.56699514389038, 240.66706800460815, 240.80078220367432, 240.9008641242981, 241.01749205589294, 241.1342601776123, 241.2511191368103, 241.36783623695374, 241.50159811973572, 241.60140013694763, 241.71835803985596, 241.83507418632507, 241.95194506645203, 242.0687370300293, 242.18557500839233, 242.30218720436096, 242.41910815238953, 242.64217114448547]	[238.5383021457682, 238.65496881243487, 239.63796881243488, 239.80466881243487, 240.55466881243487, 240.67133547910154, 240.78800214576822, 240.9046688124349, 241.02133547910157, 241.13800214576824, 241.25466881243491, 241.3713354791016, 241.48800214576826, 241.60466881243494, 241.7213354791016, 241.8380021457683, 241.95466881243496, 242.07133547910163, 242.1880021457683, 242.30466881243498, 242.42133547910166, 242.65466881243498]	2020_Nov_26_1226	59.93549613248299	1	1
5	41	FALSE	NA	v	['B', 'W', 'C', 'V', 'P', 'Z', 'T', 'S', 'J', 'U', 'X', 'A', 'H', 'M', 'G', 'Y']	[760, 2448, 829, 2245, 1456, 2911, 1888, 1731, 1029, 2059, 4000, 697, 986, 1224, 944, 2670]	11	Present	NA	NA	PRESENT	0.44635701179504395	244.6445231437683	246.6509461402893	247.58478498458865	247.9346089363098	250.7585370540619	4.107590913772583	[244.6547040939331, 244.77161407470703, 245.75606322288513, 245.9227921962738, 246.67366409301758, 246.79044318199158, 246.90722513198853, 247.02388405799866, 247.14084315299988, 247.2578592300415, 247.37445306777954, 247.4912040233612, 247.6079080104828, 247.72464323043823, 247.8415892124176, 247.95829916000366, 248.07498812675476, 248.19189310073853, 248.3087911605835, 248.42553400993347, 248.54242515563965, 248.7585380077362]	[244.65466881243498, 244.77133547910165, 245.75433547910166, 245.92103547910165, 246.67103547910165, 246.78770214576832, 246.904368812435, 247.02103547910167, 247.13770214576834, 247.25436881243502, 247.3710354791017, 247.48770214576837, 247.60436881243504, 247.72103547910172, 247.8377021457684, 247.95436881243506, 248.07103547910174, 248.1877021457684, 248.3043688124351, 248.42103547910176, 248.53770214576844, 248.77103547910176]	2020_Nov_26_1226	59.93549613248299	1	1
5	42	FALSE	NV	v	['B', 'H', 'A', 'W', 'U', 'P', 'Y', 'V', 'C', 'X', 'R', 'G', 'J', 'M', 'E', 'Z']	[760, 986, 697, 2448, 2059, 1456, 2670, 2245, 829, 4000, 1587, 944, 1029, 1224, 904, 2911]	10	Present	NA	NA	PRESENT	0.5077290534973145	250.76793909072876	252.76748394966123	253.585067987442	253.9346261024475	256.8749051094055	4.107421159744263	[250.77812814712524, 250.89481806755066, 251.8790900707245, 252.045912027359, 252.7968590259552, 252.9136061668396, 253.03058314323425, 253.1473491191864, 253.2641842365265, 253.38089609146118, 253.49751019477844, 253.61432814598083, 253.73117518424988, 253.84794807434082, 253.96484923362732, 254.08164620399475, 254.1983780860901, 254.3151981830597, 254.4317820072174, 254.54859018325806, 254.64881110191345, 254.87490510940552]	[250.77103547910176, 250.88770214576843, 251.87070214576843, 252.03740214576843, 252.78740214576843, 252.9040688124351, 253.02073547910177, 253.13740214576845, 253.25406881243512, 253.3707354791018, 253.48740214576847, 253.60406881243514, 253.72073547910182, 253.8374021457685, 253.95406881243517, 254.07073547910184, 254.18740214576852, 254.3040688124352, 254.42073547910186, 254.53740214576854, 254.6540688124352, 254.88740214576853]	2020_Nov_26_1226	59.93549613248299	1	1
5	43	FALSE	NA	v	['N', 'P', 'T', 'K', 'H', 'V', 'S', 'C', 'U', 'R', 'W', 'X', 'M', 'Y', 'G', 'B']	[1335, 1456, 1888, 1122, 986, 2245, 1731, 829, 2059, 1587, 2448, 4000, 1224, 2670, 944, 760]	12	Present	NA	NA	PRESENT	0.6483070850372314	256.87427711486816	258.8838131427765	259.9345541000366	260.28456711769104	262.99127101898193	4.107457876205444	[256.88445711135864, 257.00155210494995, 257.9860281944275, 258.15243005752563, 258.90328311920166, 259.02025508880615, 259.1369972229004, 259.2536461353302, 259.3706431388855, 259.487211227417, 259.6042990684509, 259.72082805633545, 259.83785700798035, 259.95433807373047, 260.0712351799011, 260.18795704841614, 260.30494809150696, 260.42170214653015, 260.53843808174133, 260.65522813796997, 260.7719130516052, 260.99127221107483]	[256.88740214576853, 257.0040688124352, 257.9870688124352, 258.1537688124352, 258.9037688124352, 259.0204354791019, 259.13710214576855, 259.2537688124352, 259.3704354791019, 259.4871021457686, 259.60376881243525, 259.7204354791019, 259.8371021457686, 259.95376881243527, 260.07043547910195, 260.1871021457686, 260.3037688124353, 260.42043547910197, 260.53710214576864, 260.6537688124353, 260.770435479102, 261.00376881243534]	2020_Nov_26_1226	59.93549613248299	1	1
5	44	FALSE	NA	v	['A', 'K', 'M', 'C', 'R', 'Y', 'E', 'B', 'P', 'N', 'X', 'Z', 'J', 'H', 'S', 'T']	[697, 1122, 1224, 829, 1587, 2670, 904, 760, 1456, 1335, 4000, 2911, 1029, 986, 1731, 1888]	11	Present	NA	NA	PRESENT	0.4769308567047119	262.9975619316101	265.00014901161194	265.9337959289551	266.2842960357666	269.10763812065125	4.107489109039307	[263.00774216651917, 263.1244571208954, 264.108766078949, 264.27573704719543, 265.02662420272827, 265.1433720588684, 265.2600860595703, 265.37698101997375, 265.49365520477295, 265.6105101108551, 265.72728300094604, 265.844309091568, 265.9610631465912, 266.0775511264801, 266.1945540904999, 266.3111491203308, 266.4280571937561, 266.54497504234314, 266.66155219078064, 266.77840518951416, 266.89520812034607, 267.10763907432556]	[263.00376881243534, 263.120435479102, 264.103435479102, 264.270135479102, 265.020135479102, 265.1368021457687, 265.25346881243536, 265.37013547910203, 265.4868021457687, 265.6034688124354, 265.72013547910205, 265.83680214576873, 265.9534688124354, 266.0701354791021, 266.18680214576875, 266.3034688124354, 266.4201354791021, 266.5368021457688, 266.65346881243545, 266.7701354791021, 266.8868021457688, 267.12013547910215]	2020_Nov_26_1226	59.93549613248299	1	1
5	45	FALSE	NA	v	['Z', 'S', 'N', 'J', 'M', 'A', 'T', 'E', 'X', 'V', 'G', 'W', 'U', 'P', 'C', 'Y']	[2911, 1731, 1335, 1029, 1224, 697, 1888, 904, 4000, 2245, 944, 2448, 2059, 1456, 829, 2670]	9	Present	NA	NA	PRESENT	0.4579601287841797	269.10421895980835	271.1165499687195	271.81692910194397	272.16689014434814	275.22400522232056	4.107455253601074	[269.1143980026245, 269.23112511634827, 270.2156331539154, 270.3821470737457, 271.1498501300812, 271.24992203712463, 271.3666682243347, 271.4834260940552, 271.6002571582794, 271.71707701683044, 271.8339581489563, 271.9505820274353, 272.06743001937866, 272.18409609794617, 272.3010501861572, 272.4176890850067, 272.53458404541016, 272.6513001918793, 272.7682011127472, 272.88503313064575, 273.0017890930176, 273.22400403022766]	[269.12013547910215, 269.2368021457688, 270.2198021457688, 270.3865021457688, 271.1365021457688, 271.2531688124355, 271.36983547910216, 271.48650214576884, 271.6031688124355, 271.7198354791022, 271.83650214576886, 271.95316881243554, 272.0698354791022, 272.1865021457689, 272.30316881243556, 272.41983547910223, 272.5365021457689, 272.6531688124356, 272.76983547910226, 272.88650214576893, 273.0031688124356, 273.23650214576895]	2020_Nov_26_1226	59.93549613248299	1	1
5	46	FALSE	NA	v	['A', 'M', 'S', 'T', 'U', 'E', 'B', 'N', 'K', 'R', 'P', 'Y', 'X', 'W', 'G', 'V']	[697, 1224, 1731, 1888, 2059, 904, 760, 1335, 1122, 1587, 1456, 2670, 4000, 2448, 944, 2245]	13	Present	NA	NA	PRESENT	0.542759895324707	275.22723293304443	277.2329339981079	278.3998911380768	278.7498710155487	281.340371131897	4.1074371337890625	[275.2374141216278, 275.3542890548706, 276.3385691642761, 276.50557923316956, 277.25633907318115, 277.3733220100403, 277.4900372028351, 277.606733083725, 277.72351002693176, 277.84025406837463, 277.9570732116699, 278.07396507263184, 278.19078302383423, 278.3074481487274, 278.42414808273315, 278.5410420894623, 278.657840013504, 278.77473616600037, 278.89139318466187, 279.00817108154297, 279.12498211860657, 279.34037017822266]	[275.23650214576895, 275.3531688124356, 276.33616881243563, 276.5028688124356, 277.2528688124356, 277.3695354791023, 277.48620214576897, 277.60286881243564, 277.7195354791023, 277.836202145769, 277.95286881243567, 278.06953547910234, 278.186202145769, 278.3028688124357, 278.41953547910236, 278.53620214576904, 278.6528688124357, 278.7695354791024, 278.88620214576906, 279.00286881243574, 279.1195354791024, 279.35286881243576]	2020_Nov_26_1226	59.93549613248299	1	1
5	47	FALSE	NN	v	['U', 'A', 'M', 'T', 'B', 'E', 'C', 'Y', 'S', 'G', 'K', 'H', 'N', 'J', 'R', 'V']	[2059, 697, 1224, 1888, 760, 904, 829, 2670, 1731, 944, 1122, 986, 1335, 1029, 1587, 2245]	14	Absent	NA	NA	ABSENT	0.5479578971862793	281.3506579399109	283.3492519855499	284.6328570842743	284.98313307762146	287.4567382335663	4.107486248016357	[281.36083912849426, 281.4777281284332, 282.44499802589417, 282.6119542121887, 283.3795630931854, 283.49627017974854, 283.6130771636963, 283.7299132347107, 283.8466160297394, 283.96349000930786, 284.0802090167999, 284.1971251964569, 284.3137080669403, 284.4305160045624, 284.5473930835724, 284.664320230484, 284.76426100730896, 284.88107204437256, 284.99780917167664, 285.1146750450134, 285.23151421546936, 285.4567382335663]	[281.35286881243576, 281.46953547910243, 282.45253547910244, 282.61923547910243, 283.36923547910243, 283.4859021457691, 283.6025688124358, 283.71923547910245, 283.8359021457691, 283.9525688124358, 284.0692354791025, 284.18590214576915, 284.3025688124358, 284.4192354791025, 284.53590214576917, 284.65256881243585, 284.7692354791025, 284.8859021457692, 285.00256881243587, 285.11923547910254, 285.2359021457692, 285.46923547910257]	2020_Nov_26_1226	59.93549613248299	1	1
5	48	FALSE	NV	v	['S', 'C', 'H', 'W', 'N', 'G', 'M', 'P', 'X', 'Y', 'R', 'K', 'J', 'A', 'B', 'U']	[1731, 829, 986, 2448, 1335, 944, 1224, 1456, 4000, 2670, 1587, 1122, 1029, 697, 760, 2059]	9	Present	NA	NA	PRESENT	0.3367180824279785	287.4573700428009	289.4653949737549	290.166207075119	290.51627707481384	293.5731041431427	4.107709169387817	[287.4675521850586, 287.5841500759125, 288.5683271884918, 288.7352681159973, 289.4860541820526, 289.6029591560364, 289.71959400177, 289.8363971710205, 289.95339703559875, 290.0700101852417, 290.18692111968994, 290.30362606048584, 290.42050313949585, 290.5369870662689, 290.6540801525116, 290.77078008651733, 290.8876121044159, 291.00429606437683, 291.12119007110596, 291.23788022994995, 291.35482811927795, 291.573105096817]	[287.46923547910257, 287.58590214576924, 288.56890214576924, 288.73560214576923, 289.48560214576923, 289.6022688124359, 289.7189354791026, 289.83560214576926, 289.95226881243593, 290.0689354791026, 290.1856021457693, 290.30226881243595, 290.41893547910263, 290.5356021457693, 290.652268812436, 290.76893547910265, 290.8856021457693, 291.002268812436, 291.1189354791027, 291.23560214576935, 291.352268812436, 291.58560214576937]	2020_Nov_26_1226	59.93549613248299	1	1
5	49	FALSE	NA	v	['E', 'K', 'V', 'N', 'J', 'U', 'C', 'M', 'S', 'G', 'B', 'X', 'A', 'R', 'T', 'W']	[904, 1122, 2245, 1335, 1029, 2059, 829, 1224, 1731, 944, 760, 4000, 697, 1587, 1888, 2448]	12	Present	NA	NA	PRESENT	0.4059300422668457	293.58031392097473	295.58214497566223	296.6323969364166	296.98286414146423	299.68947100639343	4.107326030731201	[293.5904951095581, 293.70735716819763, 294.6915740966797, 294.85859417915344, 295.6092641353607, 295.7261381149292, 295.84296107292175, 295.95968222618103, 296.0766091346741, 296.19334506988525, 296.30989813804626, 296.4268112182617, 296.54353523254395, 296.660521030426, 296.777291059494, 296.89407300949097, 297.01067209243774, 297.1276521682739, 297.24426007270813, 297.36159014701843, 297.4611930847168, 297.68947100639343]	[293.58560214576937, 293.70226881243605, 294.68526881243605, 294.85196881243604, 295.60196881243604, 295.7186354791027, 295.8353021457694, 295.95196881243606, 296.06863547910274, 296.1853021457694, 296.3019688124361, 296.41863547910276, 296.53530214576944, 296.6519688124361, 296.7686354791028, 296.88530214576946, 297.00196881243613, 297.1186354791028, 297.2353021457695, 297.35196881243616, 297.46863547910283, 297.7019688124362]	2020_Nov_26_1226	59.93549613248299	1	1
5	50	FALSE	NN	v	['U', 'S', 'N', 'R', 'Y', 'P', 'M', 'Z', 'H', 'C', 'A', 'T', 'K', 'V', 'B', 'E']	[2059, 1731, 1335, 1587, 2670, 1456, 1224, 2911, 986, 829, 697, 1888, 1122, 2245, 760, 904]	11	Absent	NA	NA	ABSENT	0.5543699264526367	299.6866431236267	301.6982901096344	302.6321671009064	302.9822700023651	305.8058371543884	4.107547044754028	[299.6968231201172, 299.81379318237305, 300.7982540130615, 300.9649021625519, 301.71557903289795, 301.83273911476135, 301.9493601322174, 302.06607818603516, 302.18310713768005, 302.2997090816498, 302.41666412353516, 302.5332901477814, 302.6500082015991, 302.76678705215454, 302.8838360309601, 303.0003571510315, 303.1174101829529, 303.234179019928, 303.35082817077637, 303.4676752090454, 303.5843720436096, 303.80583810806274]	[299.7019688124362, 299.81863547910285, 300.80163547910286, 300.96833547910285, 301.71833547910285, 301.8350021457695, 301.9516688124362, 302.06833547910287, 302.18500214576954, 302.3016688124362, 302.4183354791029, 302.53500214576957, 302.65166881243624, 302.7683354791029, 302.8850021457696, 303.00166881243626, 303.11833547910294, 303.2350021457696, 303.3516688124363, 303.46833547910296, 303.58500214576964, 303.818335479103]	2020_Nov_26_1226	59.93549613248299	1	1
5	51	FALSE	NA	v	['A', 'W', 'R', 'P', 'Z', 'J', 'U', 'B', 'X', 'V', 'E', 'K', 'T', 'M', 'Y', 'H']	[697, 2448, 1587, 1456, 2911, 1029, 2059, 760, 4000, 2245, 904, 1122, 1888, 1224, 2670, 986]	9	Present	NA	NA	PRESENT	0.35910797119140625	305.8099751472473	307.8148560523987	308.51523995399475	308.8653061389923	311.92220520973206	4.107349157333374	[305.8201551437378, 305.937135219574, 306.9213271141052, 307.08824610710144, 307.8393840789795, 307.9558172225952, 308.0726480484009, 308.1893801689148, 308.3062620162964, 308.4231481552124, 308.53995513916016, 308.6564621925354, 308.77325916290283, 308.8901810646057, 309.00683212280273, 309.12378215789795, 309.24034309387207, 309.35737323760986, 309.4741060733795, 309.5908570289612, 309.70781922340393, 309.92220401763916]	[305.818335479103, 305.93500214576966, 306.91800214576966, 307.08470214576965, 307.83470214576965, 307.95136881243633, 308.068035479103, 308.1847021457697, 308.30136881243635, 308.418035479103, 308.5347021457697, 308.6513688124364, 308.76803547910305, 308.8847021457697, 309.0013688124364, 309.11803547910307, 309.23470214576975, 309.3513688124364, 309.4680354791031, 309.58470214576977, 309.70136881243644, 309.9347021457698]	2020_Nov_26_1226	59.93549613248299	1	1
5	52	FALSE	NA	v	['S', 'V', 'W', 'Z', 'N', 'R', 'P', 'X', 'H', 'E', 'A', 'J', 'B', 'C', 'U', 'M']	[1731, 2245, 2448, 2911, 1335, 1587, 1456, 4000, 986, 904, 697, 1029, 760, 829, 2059, 1224]	8	Present	NA	NA	ABSENT	0.956191062927246	311.933336019516	313.9310851097107	314.5148251056671	314.8649959564209	318.0385711193085	4.107486009597778	[311.94351601600647, 312.0433270931244, 313.02777004241943, 313.19465804100037, 313.9621832370758, 314.0791280269623, 314.19583106040955, 314.31265115737915, 314.4125871658325, 314.5293872356415, 314.6461760997772, 314.76297903060913, 314.8796820640564, 314.9964871406555, 315.11331605911255, 315.23012614250183, 315.3468780517578, 315.46375918388367, 315.5804672241211, 315.69725608825684, 315.81436014175415, 316.0385711193085]	[311.9347021457698, 312.05136881243646, 313.03436881243647, 313.20106881243646, 313.95106881243646, 314.06773547910313, 314.1844021457698, 314.3010688124365, 314.41773547910316, 314.53440214576983, 314.6510688124365, 314.7677354791032, 314.88440214576985, 315.00106881243653, 315.1177354791032, 315.2344021457699, 315.35106881243655, 315.4677354791032, 315.5844021457699, 315.7010688124366, 315.81773547910325, 316.0510688124366]	2020_Nov_26_1226	59.93549613248299	1	1
5	53	FALSE	NN	v	['K', 'P', 'T', 'N', 'W', 'R', 'J', 'U', 'G', 'Z', 'V', 'H', 'B', 'E', 'Y', 'M']	[1122, 1456, 1888, 1335, 2448, 1587, 1029, 2059, 944, 2911, 2245, 986, 760, 904, 2670, 1224]	13	Absent	NA	NA	ABSENT	0.9688069820404052	318.04008507728577	320.04757595062256	321.2144570350647	321.5646140575409	324.1549382209778	4.107362270355225	[318.05026602745056, 318.1666362285614, 319.15103220939636, 319.31802320480347, 320.0687701702118, 320.1855170726776, 320.30240201950073, 320.4190511703491, 320.53600907325745, 320.6526560783386, 320.7694761753082, 320.8861711025238, 321.0031530857086, 321.1198260784149, 321.23674511909485, 321.3535041809082, 321.4703290462494, 321.58710408210754, 321.70386600494385, 321.82049918174744, 321.93736815452576, 322.1549391746521]	[318.0510688124366, 318.16773547910327, 319.1507354791033, 319.31743547910327, 320.06743547910327, 320.18410214576994, 320.3007688124366, 320.4174354791033, 320.53410214576996, 320.65076881243664, 320.7674354791033, 320.88410214577, 321.00076881243666, 321.11743547910334, 321.23410214577, 321.3507688124367, 321.46743547910336, 321.58410214577003, 321.7007688124367, 321.8174354791034, 321.93410214577005, 322.1674354791034]	2020_Nov_26_1226	59.93549613248299	1	1
5	54	FALSE	NV	v	['J', 'Z', 'A', 'M', 'E', 'H', 'C', 'U', 'K', 'T', 'V', 'X', 'R', 'G', 'Y', 'W']	[1029, 2911, 697, 1224, 904, 986, 829, 2059, 1122, 1888, 2245, 4000, 1587, 944, 2670, 2448]	12	Present	NA	NA	PRESENT	0.5181429386138916	324.1629989147186	326.163761138916	327.2143700122833	327.5641739368439	330.2713031768799	4.107542037963867	[324.1731791496277, 324.2899820804596, 325.27421021461487, 325.4410970211029, 326.19194412231445, 326.30874705314636, 326.4254741668701, 326.5423650741577, 326.65925216674805, 326.77612018585205, 326.8926320075989, 327.00955510139465, 327.1264111995697, 327.2430281639099, 327.3601200580597, 327.47678208351135, 327.59346103668213, 327.71019101142883, 327.82695508003235, 327.9438490867615, 328.04404401779175, 328.2713041305542]	[324.1674354791034, 324.2841021457701, 325.2671021457701, 325.4338021457701, 326.1838021457701, 326.30046881243675, 326.4171354791034, 326.5338021457701, 326.65046881243677, 326.76713547910344, 326.8838021457701, 327.0004688124368, 327.11713547910347, 327.23380214577014, 327.3504688124368, 327.4671354791035, 327.58380214577016, 327.70046881243684, 327.8171354791035, 327.9338021457702, 328.05046881243686, 328.2838021457702]	2020_Nov_26_1226	59.93549613248299	1	1
5	55	FALSE	AV	v	['K', 'W', 'G', 'N', 'Y', 'J', 'M', 'surprise', 'P', 'S', 'X', 'C', 'R', 'V', 'H', 'B']	[1122, 2448, 944, 1335, 2670, 1029, 1224, 'stimAuditory/all_stimAuditory/204.wav', 1456, 1731, 4000, 829, 1587, 2245, 986, 760]	11	Present	stimAuditory/all_stimAuditory/102.wav	stimVisual/all_stimVisual/103.jpg	PRESENT	0.4187140464782715	330.26942110061646	332.28007793426514	333.214154958725	333.5642409324646	336.3876700401306	4.1075921058654785	[330.27960205078125, 330.3965690135956, 331.3808581829071, 331.5476050376892, 332.29836416244507, 332.41545701026917, 332.5321481227875, 332.648766040802, 332.7656750679016, 332.88258123397827, 332.9994010925293, 333.13259100914, 333.2328510284424, 333.3495810031891, 333.46657705307007, 333.583163022995, 333.69989109039307, 333.81677412986755, 333.9335391521454, 334.05045318603516, 334.1671440601349, 334.3876712322235]	[330.2838021457702, 330.4004688124369, 331.3834688124369, 331.5501688124369, 332.3001688124369, 332.41683547910355, 332.5335021457702, 332.6501688124369, 332.7668354791036, 332.88350214577025, 333.0001688124369, 333.1168354791036, 333.2335021457703, 333.35016881243695, 333.4668354791036, 333.5835021457703, 333.70016881243697, 333.81683547910364, 333.9335021457703, 334.050168812437, 334.16683547910367, 334.400168812437]	2020_Nov_26_1226	59.93549613248299	1	1
5	56	FALSE	NA	v	['J', 'R', 'K', 'B', 'V', 'U', 'G', 'C', 'S', 'T', 'Z', 'A', 'M', 'X', 'W', 'P']	[1029, 1587, 1122, 760, 2245, 2059, 944, 829, 1731, 1888, 2911, 697, 1224, 4000, 2448, 1456]	14	Present	NA	NA	PRESENT	0.6792230606079102	336.3928360939026	338.3964409828186	339.68020391464233	340.0306980609894	342.50403809547424	4.10759711265564	[336.40301609039307, 336.5195732116699, 337.50438022613525, 337.6709420681, 338.4216351509094, 338.5390591621399, 338.6554551124573, 338.7721610069275, 338.8888041973114, 339.00568413734436, 339.1223711967468, 339.23934602737427, 339.3558461666107, 339.47289299964905, 339.58962321281433, 339.70641016960144, 339.82326316833496, 339.94008922576904, 340.0567741394043, 340.173641204834, 340.290491104126, 340.5040371417999]	[336.400168812437, 336.5168354791037, 337.4998354791037, 337.6665354791037, 338.4165354791037, 338.53320214577036, 338.64986881243703, 338.7665354791037, 338.8832021457704, 338.99986881243706, 339.11653547910373, 339.2332021457704, 339.3498688124371, 339.46653547910375, 339.58320214577043, 339.6998688124371, 339.8165354791038, 339.93320214577045, 340.0498688124371, 340.1665354791038, 340.2832021457705, 340.5165354791038]	2020_Nov_26_1226	59.93549613248299	1	1
5	57	FALSE	NV	v	['Z', 'W', 'B', 'E', 'R', 'V', 'M', 'K', 'J', 'X', 'S', 'P', 'C', 'T', 'H', 'N']	[2911, 2448, 760, 904, 1587, 2245, 1224, 1122, 1029, 4000, 1731, 1456, 829, 1888, 986, 1335]	10	Present	NA	NA	PRESENT	0.3806030750274658	342.49913811683655	344.51276206970215	345.32999300956726	345.68006205558777	348.62040400505066	4.107641935348511	[342.509318113327, 342.6261761188507, 343.6107280254364, 343.7773871421814, 344.5448091030121, 344.64497208595276, 344.7616910934448, 344.8785810470581, 344.9953351020813, 345.1120710372925, 345.22882103919983, 345.34570813179016, 345.46263813972473, 345.5792191028595, 345.69625902175903, 345.8127951622009, 345.9295611381531, 346.0464861392975, 346.1634120941162, 346.28021907806396, 346.39694023132324, 346.62040400505066]	[342.5165354791038, 342.6332021457705, 343.6162021457705, 343.7829021457705, 344.5329021457705, 344.64956881243717, 344.76623547910384, 344.8829021457705, 344.9995688124372, 345.11623547910386, 345.23290214577054, 345.3495688124372, 345.4662354791039, 345.58290214577056, 345.69956881243724, 345.8162354791039, 345.9329021457706, 346.04956881243726, 346.16623547910393, 346.2829021457706, 346.3995688124373, 346.63290214577063]	2020_Nov_26_1226	59.93549613248299	1	1
5	58	FALSE	NA	v	['A', 'T', 'Y', 'J', 'G', 'U', 'R', 'K', 'S', 'X', 'W', 'V', 'C', 'H', 'N', 'Z']	[697, 1888, 2670, 1029, 944, 2059, 1587, 1122, 1731, 4000, 2448, 2245, 829, 986, 1335, 2911]	10	Present	NA	NA	PRESENT	0.3692879676818848	348.62280797958374	350.6294710636139	351.44628405570984	351.7962820529938	354.73677110671997	4.107300043106079	[348.6329891681671, 348.74950218200684, 349.73370718955994, 349.9006872177124, 350.651447057724, 350.76834511756897, 350.8851230144501, 351.00208020210266, 351.11856508255005, 351.2354271411896, 351.35225319862366, 351.46926522254944, 351.58566522598267, 351.70259714126587, 351.8192172050476, 351.93622303009033, 352.0528531074524, 352.16986322402954, 352.2867090702057, 352.4033761024475, 352.52016711235046, 352.73677110671997]	[348.63290214577063, 348.7495688124373, 349.7325688124373, 349.8992688124373, 350.6492688124373, 350.765935479104, 350.88260214577065, 350.9992688124373, 351.115935479104, 351.23260214577067, 351.34926881243734, 351.465935479104, 351.5826021457707, 351.69926881243737, 351.81593547910404, 351.9326021457707, 352.0492688124374, 352.16593547910406, 352.28260214577074, 352.3992688124374, 352.5159354791041, 352.74926881243744]	2020_Nov_26_1226	59.93549613248299	1	1
5	59	FALSE	NA	v	['Y', 'W', 'A', 'P', 'G', 'K', 'T', 'H', 'Z', 'J', 'R', 'N', 'X', 'U', 'C', 'B']	[2670, 2448, 697, 1456, 944, 1122, 1888, 986, 2911, 1029, 1587, 1335, 4000, 2059, 829, 760]	13	Present	NA	NA	PRESENT	0.3822798728942871	354.7457890510559	356.7455041408539	357.91293001174927	358.26267313957214	360.8531382083893	4.1076340675354	[354.7559700012207, 354.8725790977478, 355.8572311401367, 356.0237600803375, 356.7745590209961, 356.8916070461273, 357.00818514823914, 357.1250150203705, 357.2419362068176, 357.35878920555115, 357.4754331111908, 357.59207820892334, 357.7090411186218, 357.8257682323456, 357.9426531791687, 358.0594382286072, 358.1760501861572, 358.29336404800415, 358.40970611572266, 358.5264642238617, 358.6267161369324, 358.8531382083893]	[354.74926881243744, 354.8659354791041, 355.8489354791041, 356.0156354791041, 356.7656354791041, 356.8823021457708, 356.99896881243745, 357.1156354791041, 357.2323021457708, 357.3489688124375, 357.46563547910415, 357.5823021457708, 357.6989688124375, 357.8156354791042, 357.93230214577085, 358.0489688124375, 358.1656354791042, 358.28230214577087, 358.39896881243754, 358.5156354791042, 358.6323021457709, 358.86563547910424]	2020_Nov_26_1226	59.93549613248299	1	1
5	60	FALSE	AA	v	['G', 'E', 'J', 'B', 'Y', 'T', 'U', 'W', 'Z', 'surprise', 'S', 'R', 'X', 'A', 'C', 'V']	[944, 904, 1029, 760, 2670, 1888, 2059, 2448, 2911, 'stimAuditory/all_stimAuditory/108.wav', 1731, 1587, 4000, 697, 829, 2245]	13	Present	stimAuditory/all_stimAuditory/208.wav	stimVisual/all_stimVisual/104.jpg	PRESENT	0.3709697723388672	360.8521859645843	362.86217308044434	364.0291030406952	364.37896704673767	366.9695041179657	4.107331037521362	[360.8623671531677, 360.9791331291199, 361.963525056839, 362.130499124527, 362.8810691833496, 362.99788904190063, 363.1149311065674, 363.23162317276, 363.34844422340393, 363.46516823768616, 363.58205008506775, 363.6986892223358, 363.8156270980835, 363.9488830566406, 364.0490860939026, 364.16592502593994, 364.28276205062866, 364.3994770050049, 364.5163140296936, 364.6331400871277, 364.74979400634766, 364.96950507164]	[360.86563547910424, 360.9823021457709, 361.9653021457709, 362.1320021457709, 362.8820021457709, 362.9986688124376, 363.11533547910426, 363.23200214577093, 363.3486688124376, 363.4653354791043, 363.58200214577096, 363.69866881243763, 363.8153354791043, 363.932002145771, 364.04866881243765, 364.16533547910433, 364.282002145771, 364.3986688124377, 364.51533547910435, 364.632002145771, 364.7486688124377, 364.98200214577105]	2020_Nov_26_1226	59.93549613248299	1	1
5	61	FALSE	NV	v	['M', 'B', 'N', 'V', 'R', 'U', 'W', 'X', 'Z', 'K', 'E', 'P', 'S', 'A', 'Y', 'T']	[1224, 760, 1335, 2245, 1587, 2059, 2448, 4000, 2911, 1122, 904, 1456, 1731, 697, 2670, 1888]	8	Present	NA	NA	PRESENT	0.5674521923065186	366.9756090641022	368.9783990383148	369.5621130466461	369.9121389389038	373.0858700275421	4.107470989227295	[366.98579001426697, 367.10221004486084, 368.086688041687, 368.25360202789307, 369.0046811103821, 369.1212160587311, 369.2379310131073, 369.3548560142517, 369.4716942310333, 369.5884702205658, 369.70514822006226, 369.82195520401, 369.93856501579285, 370.0556230545044, 370.172345161438, 370.28907012939453, 370.40597200393677, 370.522598028183, 370.6395001411438, 370.75616216659546, 370.87315702438354, 371.0858721733093]	[366.98200214577105, 367.0986688124377, 368.0816688124377, 368.2483688124377, 368.9983688124377, 369.1150354791044, 369.23170214577107, 369.34836881243774, 369.4650354791044, 369.5817021457711, 369.69836881243776, 369.81503547910444, 369.9317021457711, 370.0483688124378, 370.16503547910446, 370.28170214577113, 370.3983688124378, 370.5150354791045, 370.63170214577116, 370.74836881243783, 370.8650354791045, 371.09836881243785]	2020_Nov_26_1226	59.93549613248299	1	1
5	62	FALSE	NN	v	['Z', 'P', 'K', 'N', 'Y', 'J', 'T', 'M', 'G', 'W', 'H', 'B', 'A', 'S', 'E', 'C']	[2911, 1456, 1122, 1335, 2670, 1029, 1888, 1224, 944, 2448, 986, 760, 697, 1731, 904, 829]	14	Absent	NA	NA	ABSENT	0.5167219638824463	373.081836938858	375.09445905685425	376.378457069397	376.7285430431366	379.20223808288574	4.107779026031494	[373.0920171737671, 373.2087731361389, 374.19342517852783, 374.360139131546, 375.1275930404663, 375.2276420593262, 375.3446011543274, 375.46136116981506, 375.5778911113739, 375.694726228714, 375.81169605255127, 375.9282851219177, 376.04534101486206, 376.1620421409607, 376.27891302108765, 376.39554500579834, 376.5125160217285, 376.6292681694031, 376.7459511756897, 376.8628931045532, 376.979474067688, 377.20223808288574]	[373.09836881243785, 373.21503547910453, 374.19803547910453, 374.3647354791045, 375.1147354791045, 375.2314021457712, 375.3480688124379, 375.46473547910455, 375.5814021457712, 375.6980688124379, 375.81473547910457, 375.93140214577124, 376.0480688124379, 376.1647354791046, 376.28140214577127, 376.39806881243794, 376.5147354791046, 376.6314021457713, 376.74806881243796, 376.86473547910464, 376.9814021457713, 377.21473547910466]	2020_Nov_26_1226	59.93549613248299	1	1
5	63	FALSE	NV	v	['A', 'K', 'W', 'M', 'E', 'C', 'J', 'H', 'T', 'V', 'B', 'S', 'R', 'X', 'G', 'P']	[697, 1122, 2448, 1224, 904, 829, 1029, 986, 1888, 2245, 760, 1731, 1587, 4000, 944, 1456]	14	Present	NA	NA	PRESENT	0.385347843170166	379.2054259777069	381.2113559246063	382.4950089454651	382.84501814842224	385.31860423088074	4.107248306274414	[379.2156071662903, 379.33225417137146, 380.3165261745453, 380.4832181930542, 381.23399901390076, 381.3510642051697, 381.4678010940552, 381.58453917503357, 381.7013511657715, 381.81810903549194, 381.9347450733185, 382.05166721343994, 382.1684482097626, 382.28539204597473, 382.4019730091095, 382.51886916160583, 382.6355700492859, 382.75245904922485, 382.8692510128021, 382.98607301712036, 383.102685213089, 383.31860423088074]	[379.21473547910466, 379.33140214577134, 380.31440214577134, 380.48110214577133, 381.23110214577133, 381.347768812438, 381.4644354791047, 381.58110214577135, 381.697768812438, 381.8144354791047, 381.9311021457714, 382.04776881243805, 382.1644354791047, 382.2811021457714, 382.3977688124381, 382.51443547910475, 382.6311021457714, 382.7477688124381, 382.86443547910477, 382.98110214577144, 383.0977688124381, 383.33110214577147]	2020_Nov_26_1226	59.93549613248299	1	1
5	64	FALSE	NV	v	['N', 'Y', 'V', 'S', 'K', 'P', 'Z', 'M', 'H', 'W', 'X', 'R', 'A', 'E', 'T', 'U']	[1335, 2670, 2245, 1731, 1122, 1456, 2911, 1224, 986, 2448, 4000, 1587, 697, 904, 1888, 2059]	11	Present	NA	NA	PRESENT	0.44655704498291016	385.3285081386566	387.3277440071106	388.26168513298035	388.6111290454865	391.4349710941314	4.107227087020874	[385.3386881351471, 385.45541310310364, 386.43982005119324, 386.589702129364, 387.35747718811035, 387.4743142127991, 387.5910801887512, 387.70782804489136, 387.82455110549927, 387.94118905067444, 388.0582342147827, 388.17487716674805, 388.2921311855316, 388.4084281921387, 388.5253300666809, 388.64197611808777, 388.75887417793274, 388.8755421638489, 388.99244809150696, 389.092383146286, 389.2092390060425, 389.43497109413147]	[385.33110214577147, 385.44776881243814, 386.43076881243815, 386.59746881243814, 387.34746881243814, 387.4641354791048, 387.5808021457715, 387.69746881243816, 387.81413547910483, 387.9308021457715, 388.0474688124382, 388.16413547910486, 388.28080214577153, 388.3974688124382, 388.5141354791049, 388.63080214577155, 388.7474688124382, 388.8641354791049, 388.9808021457716, 389.09746881243825, 389.2141354791049, 389.4474688124383]	2020_Nov_26_1226	59.93549613248299	1	1
5	65	FALSE	VV	v	['B', 'J', 'T', 'W', 'surprise', 'S', 'R', 'X', 'K', 'H', 'Y', 'C', 'U', 'N', 'Z', 'V']	[760, 1029, 1888, 2448, 'stimAuditory/all_stimAuditory/101.wav', 1731, 1587, 4000, 1122, 986, 2670, 829, 2059, 1335, 2911, 2245]	8	Present	NA	stimVisual/all_stimVisual/216.jpg	PRESENT	0.4110310077667236	391.4348759651184	393.44382095336914	394.0277090072632	394.3774709701538	397.5513381958008	4.107517242431641	[391.44505620002747, 391.56183910369873, 392.54620122909546, 392.71308422088623, 393.46390104293823, 393.5807340145111, 393.6974241733551, 393.8142900466919, 393.94777822494507, 394.0477180480957, 394.16445803642273, 394.281455039978, 394.39809703826904, 394.5148811340332, 394.63164615631104, 394.7486960887909, 394.8652911186218, 394.98217010498047, 395.0988450050354, 395.2158591747284, 395.33264422416687, 395.5513381958008]	[391.4474688124383, 391.56413547910495, 392.54713547910495, 392.71383547910494, 393.46383547910494, 393.5805021457716, 393.6971688124383, 393.81383547910497, 393.93050214577164, 394.0471688124383, 394.163835479105, 394.28050214577166, 394.39716881243834, 394.513835479105, 394.6305021457717, 394.74716881243836, 394.86383547910503, 394.9805021457717, 395.0971688124384, 395.21383547910506, 395.33050214577173, 395.5638354791051]	2020_Nov_26_1226	59.93549613248299	1	1
5	66	FALSE	NV	v	['K', 'P', 'B', 'A', 'S', 'H', 'E', 'Z', 'M', 'W', 'X', 'V', 'C', 'N', 'G', 'T']	[1122, 1456, 760, 697, 1731, 986, 904, 2911, 1224, 2448, 4000, 2245, 829, 1335, 944, 1888]	11	Present	NA	NA	PRESENT	0.35259413719177246	397.5582649707794	399.5600860118866	400.4942450523377	400.84400391578674	403.6677031517029	4.107617139816284	[397.5684461593628, 397.6849911212921, 398.6698172092438, 398.8364272117615, 399.5871322154999, 399.70393800735474, 399.82066202163696, 399.9376702308655, 400.05443811416626, 400.1711142063141, 400.28777718544006, 400.4045991897583, 400.52132511138916, 400.638277053833, 400.75487303733826, 400.8717350959778, 400.9887411594391, 401.10544204711914, 401.2223570346832, 401.33895111083984, 401.438924074173, 401.6677041053772]	[397.5638354791051, 397.68050214577175, 398.66350214577176, 398.83020214577175, 399.58020214577175, 399.6968688124384, 399.8135354791051, 399.9302021457718, 400.04686881243845, 400.1635354791051, 400.2802021457718, 400.39686881243847, 400.51353547910514, 400.6302021457718, 400.7468688124385, 400.86353547910517, 400.98020214577184, 401.0968688124385, 401.2135354791052, 401.33020214577186, 401.44686881243854, 401.6802021457719]	2020_Nov_26_1226	59.93549613248299	1	1
5	67	FALSE	NN	v	['G', 'Z', 'A', 'T', 'M', 'H', 'W', 'S', 'N', 'Y', 'E', 'V', 'J', 'C', 'K', 'U']	[944, 2911, 697, 1888, 1224, 986, 2448, 1731, 1335, 2670, 904, 2245, 1029, 829, 1122, 2059]	10	Absent	NA	NA	ABSENT	0.5249290466308594	403.6646571159363	405.6767621040344	406.49392795562744	406.8438470363617	409.7840712070465	4.107309103012085	[403.6748380661011, 403.7917261123657, 404.77592611312866, 404.94280314445496, 405.7102870941162, 405.810387134552, 405.927383184433, 406.04385018348694, 406.1608362197876, 406.27743005752563, 406.39427304267883, 406.51108622550964, 406.62781715393066, 406.7448480129242, 406.86169815063477, 406.9783980846405, 407.0950710773468, 407.21191906929016, 407.32863903045654, 407.44556522369385, 407.5623641014099, 407.7840700149536]	[403.6802021457719, 403.79686881243856, 404.77986881243856, 404.94656881243856, 405.69656881243856, 405.81323547910523, 405.9299021457719, 406.0465688124386, 406.16323547910525, 406.2799021457719, 406.3965688124386, 406.5132354791053, 406.62990214577195, 406.7465688124386, 406.8632354791053, 406.979902145772, 407.09656881243865, 407.2132354791053, 407.329902145772, 407.44656881243867, 407.56323547910534, 407.7965688124387]	2020_Nov_26_1226	59.93549613248299	1	1
5	68	FALSE	NV	v	['U', 'H', 'V', 'T', 'Y', 'R', 'B', 'S', 'X', 'C', 'W', 'A', 'Z', 'P', 'E', 'G']	[2059, 986, 2245, 1888, 2670, 1587, 760, 1731, 4000, 829, 2448, 697, 2911, 1456, 904, 944]	9	Present	NA	NA	PRESENT	0.5054309368133545	409.7879869937897	411.79285407066345	412.4933569431305	412.8433940410614	415.9004380702973	4.107583999633789	[409.79816722869873, 409.9148051738739, 410.89920711517334, 411.0659680366516, 411.8168160915375, 411.9337022304535, 412.0504012107849, 412.16704416275024, 412.28402614593506, 412.40092611312866, 412.5174980163574, 412.63439321517944, 412.7510681152344, 412.86795020103455, 412.98476910591125, 413.1016790866852, 413.2183880805969, 413.3350191116333, 413.45204401016235, 413.5688841342926, 413.6855571269989, 413.9004371166229]	[409.7965688124387, 409.91323547910537, 410.89623547910537, 411.06293547910536, 411.81293547910536, 411.92960214577204, 412.0462688124387, 412.1629354791054, 412.27960214577206, 412.39626881243873, 412.5129354791054, 412.6296021457721, 412.74626881243876, 412.86293547910543, 412.9796021457721, 413.0962688124388, 413.21293547910545, 413.3296021457721, 413.4462688124388, 413.5629354791055, 413.67960214577215, 413.9129354791055]	2020_Nov_26_1226	59.93549613248299	1	1
5	69	FALSE	NA	v	['N', 'R', 'W', 'K', 'Z', 'M', 'U', 'T', 'A', 'C', 'V', 'X', 'Y', 'E', 'B', 'H']	[1335, 1587, 2448, 1122, 2911, 1224, 2059, 1888, 697, 829, 2245, 4000, 2670, 904, 760, 986]	12	Present	NA	NA	PRESENT	0.4068288803100586	415.9109220504761	417.9095001220703	418.9598650932312	419.30960297584534	422.01680517196655	4.10730504989624	[415.92110204696655, 416.03792905807495, 417.00557112693787, 417.17246103286743, 417.93998622894287, 418.0570511817932, 418.1735382080078, 418.29061007499695, 418.40737318992615, 418.52394700050354, 418.64068722724915, 418.7577311992645, 418.8575282096863, 418.99099612236023, 419.10787320137024, 419.20797514915466, 419.32472801208496, 419.4414930343628, 419.55833315849304, 419.67512011528015, 419.791953086853, 420.01680517196655]	[415.9129354791055, 416.0296021457722, 417.0126021457722, 417.17930214577217, 417.92930214577217, 418.04596881243884, 418.1626354791055, 418.2793021457722, 418.39596881243887, 418.51263547910554, 418.6293021457722, 418.7459688124389, 418.86263547910556, 418.97930214577224, 419.0959688124389, 419.2126354791056, 419.32930214577226, 419.44596881243893, 419.5626354791056, 419.6793021457723, 419.79596881243896, 420.0293021457723]	2020_Nov_26_1226	59.93549613248299	1	1
5	70	FALSE	NV	v	['K', 'R', 'S', 'H', 'A', 'Z', 'V', 'P', 'J', 'G', 'Y', 'X', 'C', 'U', 'M', 'W']	[1122, 1587, 1731, 986, 697, 2911, 2245, 1456, 1029, 944, 2670, 4000, 829, 2059, 1224, 2448]	12	Present	NA	NA	PRESENT	0.33130908012390137	422.01766705513	424.0259299278259	425.0760350227356	425.426549911499	428.13317108154297	4.107241153717041	[422.0278470516205, 422.14459013938904, 423.128858089447, 423.2957820892334, 424.04662108421326, 424.1632812023163, 424.2800772190094, 424.3969190120697, 424.5135700702667, 424.6305170059204, 424.7473990917206, 424.8641221523285, 424.9809641838074, 425.0977780818939, 425.21440505981445, 425.33142614364624, 425.44805216789246, 425.5650200843811, 425.681654214859, 425.7983601093292, 425.9153220653534, 426.1331720352173]	[422.0293021457723, 422.145968812439, 423.128968812439, 423.295668812439, 424.045668812439, 424.16233547910565, 424.2790021457723, 424.395668812439, 424.5123354791057, 424.62900214577235, 424.745668812439, 424.8623354791057, 424.97900214577237, 425.09566881243904, 425.2123354791057, 425.3290021457724, 425.44566881243907, 425.56233547910574, 425.6790021457724, 425.7956688124391, 425.91233547910576, 426.1456688124391]	2020_Nov_26_1226	59.93549613248299	1	1
5	71	FALSE	NN	v	['P', 'T', 'N', 'Y', 'R', 'M', 'E', 'C', 'G', 'U', 'S', 'H', 'V', 'Z', 'J', 'B']	[1456, 1888, 1335, 2670, 1587, 1224, 904, 829, 944, 2059, 1731, 986, 2245, 2911, 1029, 760]	9	Absent	NA	NA	ABSENT	0.4649169445037842	428.1409759521485	430.1421411037445	430.84231400489807	431.1923830509186	434.2495372295379	4.107396125793457	[428.1511561870575, 428.26824617385864, 429.2520251274109, 429.41912817955017, 430.1698651313782, 430.2866442203522, 430.40329217910767, 430.52024102211, 430.6370460987091, 430.75379514694214, 430.87058115005493, 430.98748207092285, 431.1041491031647, 431.2208240032196, 431.33769822120667, 431.4543631076813, 431.57132720947266, 431.6880991458893, 431.80474400520325, 431.9218120574951, 432.02166223526, 432.2495381832123]	[428.1456688124391, 428.2623354791058, 429.2453354791058, 429.4120354791058, 430.1620354791058, 430.27870214577246, 430.39536881243913, 430.5120354791058, 430.6287021457725, 430.74536881243915, 430.8620354791058, 430.9787021457725, 431.0953688124392, 431.21203547910585, 431.3287021457725, 431.4453688124392, 431.5620354791059, 431.67870214577255, 431.7953688124392, 431.9120354791059, 432.02870214577257, 432.2620354791059]	2020_Nov_26_1226	59.93549613248299	1	1
5	72	FALSE	NA	v	['Z', 'A', 'M', 'H', 'U', 'W', 'J', 'V', 'B', 'Y', 'X', 'E', 'K', 'G', 'T', 'R']	[2911, 697, 1224, 986, 2059, 2448, 1029, 2245, 760, 2670, 4000, 904, 1122, 944, 1888, 1587]	11	Present	NA	NA	ABSENT	0.7887189388275146	434.247367143631	436.2584121227264	437.19226598739624	437.54232692718506	440.3659031391144	4.1074910163879395	[434.2575490474701, 434.3743860721588, 435.3585810661316, 435.52561020851135, 436.27614521980286, 436.39311814308167, 436.5099081993103, 436.6266460418701, 436.74327421188354, 436.8602092266083, 436.9772400856018, 437.0938801765442, 437.21050810813904, 437.3273961544037, 437.44422221183777, 437.561044216156, 437.6776690483093, 437.794625043869, 437.91122913360596, 438.02817702293396, 438.1450412273407, 438.3659031391144]	[434.2620354791059, 434.3787021457726, 435.3617021457726, 435.5284021457726, 436.2784021457726, 436.39506881243926, 436.51173547910594, 436.6284021457726, 436.7450688124393, 436.86173547910596, 436.97840214577263, 437.0950688124393, 437.211735479106, 437.32840214577266, 437.44506881243933, 437.561735479106, 437.6784021457727, 437.79506881243935, 437.911735479106, 438.0284021457727, 438.1450688124394, 438.3784021457727]	2020_Nov_26_1226	59.93549613248299	1	1
5	73	FALSE	NN	v	['G', 'M', 'K', 'V', 'T', 'J', 'Z', 'S', 'Y', 'C', 'N', 'A', 'P', 'B', 'H', 'E']	[944, 1224, 1122, 2245, 1888, 1029, 2911, 1731, 2670, 829, 1335, 697, 1456, 760, 986, 904]	10	Absent	NA	NA	ABSENT	0.6740138530731201	440.3706040382385	442.37448596954346	443.1917750835418	443.5420470237732	446.4822700023651	4.107784032821655	[440.380784034729, 440.497447013855, 441.4818561077118, 441.64856910705566, 442.399530172348, 442.5164370536804, 442.6329491138458, 442.7497651576996, 442.8664791584015, 442.983439207077, 443.1002051830292, 443.21713519096375, 443.33385014533997, 443.45048809051514, 443.5673761367798, 443.6842792034149, 443.80103302001953, 443.9177191257477, 444.03446221351624, 444.1513252258301, 444.268226146698, 444.4822700023651]	[440.3784021457727, 440.4950688124394, 441.4780688124394, 441.6447688124394, 442.3947688124394, 442.51143547910607, 442.62810214577274, 442.7447688124394, 442.8614354791061, 442.97810214577277, 443.09476881243944, 443.2114354791061, 443.3281021457728, 443.44476881243946, 443.56143547910614, 443.6781021457728, 443.7947688124395, 443.91143547910616, 444.02810214577283, 444.1447688124395, 444.2614354791062, 444.49476881243953]	2020_Nov_26_1226	59.93549613248299	1	1
5	74	FALSE	NV	v	['S', 'G', 'H', 'N', 'A', 'Y', 'V', 'P', 'M', 'B', 'C', 'J', 'X', 'Z', 'T', 'W']	[1731, 944, 986, 1335, 697, 2670, 2245, 1456, 1224, 760, 829, 1029, 4000, 2911, 1888, 2448]	13	Present	NA	NA	PRESENT	0.4710431098937988	446.49362111091614	448.49105191230774	449.6583321094513	450.0086040496826	452.5986371040344	4.107585191726685	[446.50380206108093, 446.6038911342621, 447.58831310272217, 447.75504207611084, 448.52311611175537, 448.6396231651306, 448.75642108917236, 448.8562090396881, 448.9730010032654, 449.08976316452026, 449.2065761089325, 449.32344913482666, 449.44017219543457, 449.5569930076599, 449.6737930774689, 449.7905671596527, 449.90737318992615, 450.024138212204, 450.14097714424133, 450.2577610015869, 450.37458419799805, 450.5986371040344]	[446.49476881243953, 446.6114354791062, 447.5944354791062, 447.7611354791062, 448.5111354791062, 448.6278021457729, 448.74446881243955, 448.8611354791062, 448.9778021457729, 449.0944688124396, 449.21113547910625, 449.3278021457729, 449.4444688124396, 449.56113547910627, 449.67780214577294, 449.7944688124396, 449.9111354791063, 450.02780214577297, 450.14446881243964, 450.2611354791063, 450.377802145773, 450.61113547910634]	2020_Nov_26_1226	59.93549613248299	1	1
5	75	FALSE	VV	v	['G', 'M', 'V', 'U', 'H', 'R', 'Y', 'T', 'E', 'surprise', 'W', 'J', 'X', 'P', 'Z', 'A']	[944, 1224, 2245, 2059, 986, 1587, 2670, 1888, 904, 'stimAuditory/all_stimAuditory/113.wav', 2448, 1029, 4000, 1456, 2911, 697]	13	Present	NA	stimVisual/all_stimVisual/121.jpg	PRESENT	0.4036579132080078	452.60029006004333	454.60725593566895	455.7746419906616	456.1247019767761	458.71500515937805	4.1077492237091064	[452.6104700565338, 452.7273180484772, 453.71149802207947, 453.87852907180786, 454.62921118736267, 454.74606919288635, 454.86264204978943, 454.9794912338257, 455.0962541103363, 455.2132830619812, 455.3298861980438, 455.44689416885376, 455.5633521080017, 455.6803572177887, 455.797247171402, 455.9139151573181, 456.0307641029358, 456.1474940776825, 456.26426911354065, 456.38114404678345, 456.49823904037476, 456.71500515937805]	[452.61113547910634, 452.727802145773, 453.710802145773, 453.877502145773, 454.627502145773, 454.7441688124397, 454.86083547910636, 454.97750214577303, 455.0941688124397, 455.2108354791064, 455.32750214577305, 455.4441688124397, 455.5608354791064, 455.6775021457731, 455.79416881243975, 455.9108354791064, 456.0275021457731, 456.1441688124398, 456.26083547910645, 456.3775021457731, 456.4941688124398, 456.72750214577314]	2020_Nov_26_1226	59.93549613248299	1	1
5	76	FALSE	NA	v	['R', 'E', 'N', 'M', 'B', 'A', 'U', 'G', 'H', 'X', 'K', 'P', 'C', 'S', 'Y', 'T']	[1587, 904, 1335, 1224, 760, 697, 2059, 944, 986, 4000, 1122, 1456, 829, 1731, 2670, 1888]	10	Present	NA	NA	PRESENT	0.5050220489501953	458.7238519191742	460.7239549160004	461.5415930747986	461.8908460140228	464.83137106895447	4.107416152954102	[458.73403310775757, 458.85032320022583, 459.8348650932312, 460.0016930103302, 460.75239610671997, 460.86922216415405, 460.9859540462494, 461.102872133255, 461.21946001052856, 461.33635902404785, 461.4532890319824, 461.5698001384735, 461.6867890357971, 461.8034222126007, 461.9204740524292, 462.0370180606842, 462.1539330482483, 462.2706410884857, 462.3876121044159, 462.50416803359985, 462.6043050289154, 462.83137106895447]	[458.72750214577314, 458.8441688124398, 459.8271688124398, 459.9938688124398, 460.7438688124398, 460.8605354791065, 460.97720214577316, 461.09386881243984, 461.2105354791065, 461.3272021457732, 461.44386881243986, 461.56053547910653, 461.6772021457732, 461.7938688124399, 461.91053547910656, 462.02720214577323, 462.1438688124399, 462.2605354791066, 462.37720214577325, 462.4938688124399, 462.6105354791066, 462.84386881243995]	2020_Nov_26_1226	59.93549613248299	1	1
5	77	FALSE	NV	v	['M', 'P', 'H', 'B', 'Y', 'G', 'A', 'J', 'S', 'C', 'X', 'Z', 'V', 'R', 'T', 'K']	[1224, 1456, 986, 760, 2670, 944, 697, 1029, 1731, 829, 4000, 2911, 2245, 1587, 1888, 1122]	11	Present	NA	NA	PRESENT	0.35746002197265625	464.83008193969727	466.8401010036469	467.774099111557	468.1240899562836	470.9477381706238	4.107637166976929	[464.8402621746063, 464.95681500434875, 465.9412341117859, 466.1082191467285, 466.8588111400604, 466.9756271839142, 467.09248518943787, 467.20929622650146, 467.3260540962219, 467.4430010318756, 467.55971908569336, 467.67641615867615, 467.7931230068207, 467.91016721725464, 468.02672719955444, 468.1436400413513, 468.26072001457214, 468.377366065979, 468.49394607543945, 468.61091208457947, 468.72753620147705, 468.94773721694946]	[464.84386881243995, 464.9605354791066, 465.94353547910663, 466.1102354791066, 466.8602354791066, 466.9769021457733, 467.09356881243997, 467.21023547910664, 467.3269021457733, 467.44356881244, 467.56023547910667, 467.67690214577334, 467.79356881244, 467.9102354791067, 468.02690214577336, 468.14356881244004, 468.2602354791067, 468.3769021457734, 468.49356881244006, 468.61023547910673, 468.7269021457734, 468.96023547910676]	2020_Nov_26_1226	59.93549613248299	1	1
5	78	FALSE	NA	v	['P', 'Z', 'M', 'Y', 'S', 'G', 'C', 'E', 'X', 'V', 'K', 'H', 'A', 'N', 'U', 'T']	[1456, 2911, 1224, 2670, 1731, 944, 829, 904, 4000, 2245, 1122, 986, 697, 1335, 2059, 1888]	9	Present	NA	NA	PRESENT	0.4742200374603271	470.95320200920105	472.957190990448	473.65713596343994	474.00702595710754	477.0641040802002	4.106913089752197	[470.9633831977844, 471.07995104789734, 472.06455516815186, 472.23124718666077, 472.9821391105652, 473.09895420074463, 473.2155530452728, 473.3325161933899, 473.44922518730164, 473.5660021305084, 473.68281412124634, 473.79972314834595, 473.916451215744, 474.033331155777, 474.1499991416931, 474.2667691707611, 474.38369822502136, 474.5003252029419, 474.6173141002655, 474.7341182231903, 474.8508551120758, 475.0641050338745]	[470.96023547910676, 471.07690214577343, 472.05990214577344, 472.2266021457734, 472.9766021457734, 473.0932688124401, 473.2099354791068, 473.32660214577345, 473.4432688124401, 473.5599354791068, 473.6766021457735, 473.79326881244015, 473.9099354791068, 474.0266021457735, 474.14326881244017, 474.25993547910684, 474.3766021457735, 474.4932688124402, 474.60993547910687, 474.72660214577354, 474.8432688124402, 475.07660214577356]	2020_Nov_26_1226	59.93549613248299	1	1
5	79	FALSE	NA	v	['Z', 'U', 'K', 'S', 'R', 'M', 'B', 'E', 'N', 'C', 'P', 'W', 'J', 'X', 'T', 'H']	[2911, 2059, 1122, 1731, 1587, 1224, 760, 904, 1335, 829, 1456, 2448, 1029, 4000, 1888, 986]	14	Present	NA	NA	PRESENT	0.4794890880584717	477.0595510005951	479.07281398773193	480.3566999435425	480.7066330909729	483.1804702281952	4.107656240463257	[477.06973218917847, 477.1864380836487, 478.1708781719208, 478.3381972312927, 479.1052601337433, 479.2052400112152, 479.32200717926025, 479.438814163208, 479.5557041168213, 479.6726222038269, 479.78929018974304, 479.90621519088745, 480.0228822231293, 480.13979411125183, 480.2564871311188, 480.3732051849365, 480.4900932312012, 480.6070330142975, 480.7236862182617, 480.840558052063, 480.9572160243988, 481.1804711818695]	[477.07660214577356, 477.19326881244024, 478.17626881244024, 478.34296881244023, 479.09296881244023, 479.2096354791069, 479.3263021457736, 479.44296881244026, 479.55963547910693, 479.6763021457736, 479.7929688124403, 479.90963547910695, 480.0263021457736, 480.1429688124403, 480.259635479107, 480.37630214577365, 480.4929688124403, 480.609635479107, 480.7263021457737, 480.84296881244035, 480.959635479107, 481.19296881244037]	2020_Nov_26_1226	59.93549613248299	1	1
