participant	trial_num	practice	task	condition	RSVP	RAP	probePos	probe_presence	surprise_sound	surprise_img	probe_response	probe_resp_time	first_fixation_time	trial_start_time	surprise_start_time	probe_start_time	trial_end_time	trial_duration	actualEventTimes	plannedEventTimes	date	framerate	marker_vol	RAP_vol
17	1	FALSE	NA	v	['U', 'C', 'E', 'G', 'Z', 'P', 'M', 'X', 'A', 'H', 'B', 'N', 'V', 'T', 'S', 'Y']	[2059, 829, 904, 944, 2911, 1456, 1224, 4000, 697, 986, 760, 1335, 2245, 1888, 1731, 2670]	8	Present	NA	NA	PRESENT	0.9865550994873048	2.1457672119140625e-6	1.989449977874756	2.570302963256836	2.9207279682159424	6.103869915008545	4.114419937133789	[0.019923925399780273, 0.11966705322265625, 1.1040568351745605, 1.270946979522705, 2.0215299129486084, 2.1385090351104736, 2.2553670406341553, 2.3720219135284424, 2.488905906677246, 2.605545997619629, 2.722327947616577, 2.8393380641937256, 2.9558420181274414, 3.072816848754883, 3.189610004425049, 3.3063859939575195, 3.422945976257324, 3.539928913116455, 3.6566548347473145, 3.773397922515869, 3.890363931655884, 4.103869915008545]	[9.5367431640625e-07, 0.11666762034098306, 1.099667620340983, 1.266367620340983, 2.016367620340983, 2.1330342870076495, 2.249700953674316, 2.366367620340983, 2.4830342870076496, 2.5997009536743163, 2.716367620340983, 2.8330342870076497, 2.9497009536743164, 3.066367620340983, 3.18303428700765, 3.2997009536743165, 3.416367620340983, 3.53303428700765, 3.6497009536743166, 3.7663676203409833, 3.88303428700765, 4.116367620340983]	2021_Feb_01_1110	59.95383003449169	1	1
17	2	FALSE	NV	v	['C', 'H', 'U', 'J', 'Z', 'N', 'M', 'V', 'P', 'X', 'R', 'T', 'B', 'A', 'W', 'G']	[829, 986, 2059, 1029, 2911, 1335, 1224, 2245, 1456, 4000, 1587, 1888, 760, 697, 2448, 944]	10	Present	NA	NA	PRESENT	0.8079051971435547	6.089287042617798	8.102988004684448	8.919870138168335	9.270939111709597	12.22023606300354	4.117248058319092	[6.10920786857605, 6.2260119915008545, 7.2104480266571045, 7.377249002456665, 8.144891023635864, 8.244839906692505, 8.36155390739441, 8.495126962661743, 8.595164060592651, 8.711973905563354, 8.828978061676025, 8.94556999206543, 9.062556982040405, 9.17914891242981, 9.295904874801636, 9.412699937820435, 9.529720067977905, 9.646381855010986, 9.763123035430908, 9.880032062530518, 9.99669098854065, 10.220237016677856]	[6.116367620340983, 6.23303428700765, 7.216034287007649, 7.382734287007649, 8.132734287007649, 8.249400953674316, 8.366067620340983, 8.48273428700765, 8.599400953674317, 8.716067620340985, 8.832734287007652, 8.949400953674319, 9.066067620340986, 9.182734287007653, 9.29940095367432, 9.416067620340987, 9.532734287007655, 9.649400953674322, 9.766067620340989, 9.882734287007656, 9.999400953674323, 10.232734287007656]	2021_Feb_01_1110	59.95383003449169	1	1
17	3	FALSE	NV	v	['N', 'S', 'R', 'W', 'A', 'Z', 'B', 'X', 'P', 'G', 'K', 'T', 'Y', 'M', 'U', 'H']	[1335, 1731, 1587, 2448, 697, 2911, 760, 4000, 1456, 944, 1122, 1888, 2670, 1224, 2059, 986]	8	Present	NA	NA	PRESENT	0.9883880615234376	12.212564945220947	14.219491958618164	14.803025007247925	15.15295696258545	18.336602926254272	4.117110967636108	[12.232486963272095, 12.349348068237305, 13.333592891693115, 13.500699043273926, 14.251301050186157, 14.367985010147095, 14.484971046447754, 14.601536989212036, 14.718477964401245, 14.835270881652832, 14.951936960220337, 15.068790912628174, 15.18554401397705, 15.30239486694336, 15.419086933135986, 15.535984992980957, 15.653015851974487, 15.76976203918457, 15.886452913284302, 16.003298044204712, 16.119855880737305, 16.336601972579956]	[12.232734287007656, 12.349400953674323, 13.332400953674323, 13.499100953674324, 14.249100953674324, 14.365767620340991, 14.482434287007658, 14.599100953674325, 14.715767620340992, 14.83243428700766, 14.949100953674327, 15.065767620340994, 15.182434287007661, 15.299100953674328, 15.415767620340995, 15.532434287007662, 15.64910095367433, 15.765767620340997, 15.882434287007664, 15.999100953674331, 16.115767620340996, 16.34910095367433]	2021_Feb_01_1110	59.95383003449169	1	1
17	4	FALSE	VA	v	['Z', 'V', 'C', 'M', 'G', 'E', 'H', 'surprise', 'N', 'W', 'X', 'P', 'T', 'B', 'K', 'A']	[2911, 2245, 829, 1224, 944, 904, 986, 'stimAuditory/all_stimAuditory/221.wav', 1335, 2448, 4000, 1456, 1888, 760, 1122, 697]	11	Present	NA	stimVisual/all_stimVisual/213.jpg	NONE	-1	18.335761070251465	20.33555006980896	21.26932907104492	21.619372129440308	24.46211004257202	4.1265599727630615	[18.355681896209717, 18.472321033477783, 19.456950902938843, 19.62405490875244, 20.374506950378418, 20.491365909576416, 20.608022928237915, 20.724833965301514, 20.841745853424072, 20.95849299430847, 21.075398921966553, 21.20885992050171, 21.308990955352783, 21.42552399635315, 21.542546033859253, 21.659343957901, 21.77611494064331, 21.893000841140747, 22.00978183746338, 22.126338005065918, 22.22653889656067, 22.45296883583069]	[18.34910095367433, 18.465767620340998, 19.448767620341, 19.615467620340997, 20.365467620340997, 20.482134287007664, 20.59880095367433, 20.715467620341, 20.832134287007666, 20.948800953674333, 21.065467620341, 21.182134287007667, 21.298800953674334, 21.415467620341, 21.53213428700767, 21.648800953674336, 21.765467620341003, 21.88213428700767, 21.998800953674337, 22.115467620341004, 22.23213428700767, 22.465467620341006]	2021_Feb_01_1110	59.95383003449169	1	1
17	5	FALSE	NA	v	['P', 'S', 'W', 'V', 'J', 'R', 'E', 'C', 'B', 'A', 'K', 'N', 'X', 'G', 'U', 'H']	[1456, 1731, 2448, 2245, 1029, 1587, 904, 829, 760, 697, 1122, 1335, 4000, 944, 2059, 986]	13	Present	NA	NA	PRESENT	0.6943910121917725	24.458791971206665	26.45213103294373	27.619086980819706	27.969027996063232	30.5693359375	4.117204904556274	[24.478713989257812, 24.57914900779724, 25.563264846801758, 25.730298042297363, 26.480854034423828, 26.59782385826111, 26.714675903320312, 26.831335067749023, 26.94826889038086, 27.065062046051025, 27.18188786506653, 27.298655033111572, 27.4152410030365, 27.53216791152954, 27.648993968963623, 27.765769004821777, 27.882402896881104, 27.999343872070312, 28.116211891174316, 28.23302984237671, 28.349670886993408, 28.569336891174316]	[24.465467620341006, 24.582134287007673, 25.565134287007673, 25.731834287007672, 26.481834287007672, 26.59850095367434, 26.715167620341006, 26.831834287007673, 26.94850095367434, 27.065167620341008, 27.181834287007675, 27.298500953674342, 27.41516762034101, 27.531834287007676, 27.648500953674343, 27.76516762034101, 27.881834287007678, 27.998500953674345, 28.115167620341012, 28.23183428700768, 28.348500953674346, 28.58183428700768]	2021_Feb_01_1110	59.95383003449169	1	1
17	6	FALSE	NN	v	['M', 'G', 'V', 'N', 'Y', 'K', 'E', 'T', 'P', 'R', 'Z', 'C', 'J', 'U', 'A', 'S']	[1224, 944, 2245, 1335, 2670, 1122, 904, 1888, 1456, 1587, 2911, 829, 1029, 2059, 697, 1731]	9	Absent	NA	NA	ABSENT	0.8428280353546143	30.56593894958496	32.56837296485901	33.26857805252075	33.6189980506897	36.68570303916931	4.117330074310303	[30.58586096763611, 30.701987981796265, 31.686585903167725, 31.85358500480652, 32.604182958602905, 32.72094702720642, 32.83793807029724, 32.954723834991455, 33.071460008621216, 33.18813705444336, 33.30481791496277, 33.42177605628967, 33.538646936416626, 33.65537786483765, 33.77207589149475, 33.888957023620605, 34.005674839019775, 34.122668981552124, 34.23918795585632, 34.35619902610779, 34.4729208946228, 34.685704946517944]	[30.58183428700768, 30.698500953674348, 31.681500953674348, 31.848200953674347, 32.59820095367435, 32.71486762034102, 32.831534287007685, 32.94820095367435, 33.06486762034102, 33.181534287007686, 33.29820095367435, 33.41486762034102, 33.53153428700769, 33.648200953674355, 33.76486762034102, 33.88153428700769, 33.998200953674356, 34.11486762034102, 34.23153428700769, 34.34820095367436, 34.464867620341025, 34.69820095367436]	2021_Feb_01_1110	59.95383003449169	1	1
17	7	FALSE	VV	v	['G', 'S', 'Z', 'K', 'P', 'T', 'Y', 'B', 'surprise', 'C', 'V', 'X', 'N', 'U', 'A', 'R']	[944, 1731, 2911, 1122, 1456, 1888, 2670, 760, 'stimAuditory/all_stimAuditory/216.wav', 829, 2245, 4000, 1335, 2059, 697, 1587]	12	Present	NA	stimVisual/all_stimVisual/104.jpg	ABSENT	0.7920889854431152	36.671793937683105	38.68453001976013	39.735180139541626	40.08539295196533	42.80206894874573	4.117538928985596	[36.69171404838562, 36.808758020401, 37.793022871017456, 37.96000790596008, 38.72730803489685, 38.82734799385071, 38.94412899017334, 39.06097388267517, 39.1778929233551, 39.29450488090515, 39.41151785850525, 39.52836298942566, 39.66165494918823, 39.76189684867859, 39.87869191169739, 39.99547100067139, 40.11205506324768, 40.228983879089355, 40.345874071121216, 40.46259784698486, 40.57957696914673, 40.80206894874573]	[36.69820095367436, 36.814867620341026, 37.79786762034102, 37.96456762034102, 38.71456762034102, 38.83123428700769, 38.947900953674356, 39.06456762034102, 39.18123428700769, 39.29790095367436, 39.414567620341025, 39.53123428700769, 39.64790095367436, 39.764567620341026, 39.88123428700769, 39.99790095367436, 40.11456762034103, 40.231234287007695, 40.34790095367436, 40.46456762034103, 40.581234287007696, 40.81456762034103]	2021_Feb_01_1110	59.95383003449169	1	1
17	8	FALSE	NV	v	['U', 'S', 'R', 'J', 'V', 'C', 'G', 'E', 'N', 'P', 'A', 'X', 'K', 'M', 'H', 'W']	[2059, 1731, 1587, 1029, 2245, 829, 944, 904, 1335, 1456, 697, 4000, 1122, 1224, 986, 2448]	12	Present	NA	NA	PRESENT	0.6686749458312988	42.79524993896485	44.80114197731018	45.851391077041626	46.2017560005188	48.918437004089355	4.117295026779175	[42.81517004966736, 42.93174195289612, 43.9163179397583, 44.08314085006714, 44.83368396759033, 44.95054602622986, 45.06739902496338, 45.184329986572266, 45.30114984512329, 45.41795587539673, 45.53469800949097, 45.65142202377319, 45.768296003341675, 45.88505291938782, 46.0016770362854, 46.118725061416626, 46.235283851623535, 46.35218906402588, 46.46909499168396, 46.58587098121643, 46.702494859695435, 46.918434858322144]	[42.81456762034103, 42.9312342870077, 43.914234287007694, 44.08093428700769, 44.83093428700769, 44.94760095367436, 45.06426762034103, 45.180934287007695, 45.29760095367436, 45.41426762034103, 45.530934287007696, 45.64760095367436, 45.76426762034103, 45.8809342870077, 45.997600953674365, 46.11426762034103, 46.2309342870077, 46.347600953674366, 46.46426762034103, 46.5809342870077, 46.69760095367437, 46.9309342870077]	2021_Feb_01_1110	59.95383003449169	1	1
17	9	FALSE	NN	v	['A', 'T', 'U', 'M', 'P', 'H', 'B', 'Z', 'E', 'S', 'V', 'G', 'R', 'N', 'J', 'W']	[697, 1888, 2059, 1224, 1456, 986, 760, 2911, 904, 1731, 2245, 944, 1587, 1335, 1029, 2448]	12	Absent	NA	NA	ABSENT	1.026163101196289	48.91846513748169	50.917680978775024	51.9678750038147	52.31781911849976	55.03480291366577	4.117121934890747	[48.93840003013611, 49.055187940597534, 50.039363861083984, 50.18944787979126, 50.95744585990906, 51.0738799571991, 51.19049596786499, 51.30749201774597, 51.42433786392212, 51.54111385345459, 51.65775489807129, 51.77457904815674, 51.8915810585022, 52.00828003883362, 52.12507891654968, 52.24173188209534, 52.35854196548462, 52.458569049835205, 52.59233093261719, 52.69216704368591, 52.808982849121094, 53.03480386734009]	[48.9309342870077, 49.04760095367437, 50.030600953674366, 50.197300953674365, 50.947300953674365, 51.06396762034103, 51.1806342870077, 51.297300953674366, 51.41396762034103, 51.5306342870077, 51.64730095367437, 51.763967620341035, 51.8806342870077, 51.99730095367437, 52.113967620341036, 52.2306342870077, 52.34730095367437, 52.46396762034104, 52.580634287007705, 52.69730095367437, 52.81396762034104, 53.04730095367437]	2021_Feb_01_1110	59.95383003449169	1	1
17	10	FALSE	NA	v	['Z', 'Y', 'R', 'K', 'T', 'U', 'J', 'S', 'V', 'A', 'W', 'B', 'X', 'P', 'C', 'N']	[2911, 2670, 1587, 1122, 1888, 2059, 1029, 1731, 2245, 697, 2448, 760, 4000, 1456, 829, 1335]	13	Present	NA	NA	ABSENT	0.6867759227752686	55.02483296394348	57.03404211997986	58.200835943222046	58.550944089889526	61.15117001533508	4.117127895355225	[55.04475402832031, 55.161499977111816, 56.14584493637085, 56.31280493736267, 57.06351685523987, 57.18026089668274, 57.29704189300537, 57.413832902908325, 57.530807971954346, 57.64755702018738, 57.764155864715576, 57.881165981292725, 57.99795889854431, 58.114821910858154, 58.231531858444214, 58.34830689430237, 58.46522092819214, 58.581923961639404, 58.69882583618164, 58.81548595428467, 58.93217492103577, 59.1511709690094]	[55.04730095367437, 55.16396762034104, 56.14696762034104, 56.313667620341036, 57.063667620341036, 57.1803342870077, 57.29700095367437, 57.41366762034104, 57.530334287007705, 57.64700095367437, 57.76366762034104, 57.880334287007706, 57.99700095367437, 58.11366762034104, 58.23033428700771, 58.347000953674375, 58.46366762034104, 58.58033428700771, 58.697000953674376, 58.81366762034104, 58.93033428700771, 59.163667620341045]	2021_Feb_01_1110	59.95383003449169	1	1
17	11	FALSE	AV	v	['T', 'R', 'W', 'C', 'Y', 'U', 'A', 'surprise', 'V', 'Z', 'X', 'E', 'M', 'N', 'B', 'G']	[1888, 1587, 2448, 829, 2670, 2059, 697, 'stimAuditory/all_stimAuditory/113.wav', 2245, 2911, 4000, 904, 1224, 1335, 760, 944]	11	Present	stimAuditory/all_stimAuditory/221.wav	stimVisual/all_stimVisual/205.jpg	PRESENT	0.4920330047607422	61.148229122161865	63.150339126586914	64.08412194252014	64.4338150024414	67.26753687858582	4.117197751998901	[61.16814994812012, 61.284618854522705, 62.26901602745056, 62.43608283996582, 63.186676025390625, 63.30339002609253, 63.42018795013428, 63.5373158454895, 63.653789043426514, 63.770829916000366, 63.887452840805054, 64.0043740272522, 64.12120199203491, 64.23783493041992, 64.35467195510864, 64.47160387039185, 64.58836603164673, 64.70496797561646, 64.82203006744385, 64.93876600265503, 65.03865194320679, 65.2675359249115]	[61.163667620341045, 61.28033428700771, 62.26333428700771, 62.43003428700771, 63.18003428700771, 63.296700953674375, 63.41336762034104, 63.53003428700771, 63.646700953674376, 63.76336762034104, 63.88003428700771, 63.99670095367438, 64.11336762034104, 64.2300342870077, 64.34670095367436, 64.46336762034102, 64.58003428700768, 64.69670095367434, 64.813367620341, 64.93003428700766, 65.04670095367432, 65.28003428700765]	2021_Feb_01_1110	59.95383003449169	1	1
17	12	FALSE	NA	v	['V', 'E', 'G', 'B', 'K', 'J', 'P', 'R', 'C', 'N', 'Z', 'H', 'A', 'X', 'W', 'S']	[2245, 904, 944, 760, 1122, 1029, 1456, 1587, 829, 1335, 2911, 986, 697, 4000, 2448, 1731]	14	Present	NA	NA	PRESENT	0.90435194969177235	67.25460910797119	69.26662993431091	70.55052304267883	70.90025115013123	73.38390398025513	4.117274045944214	[67.27452993392944, 67.39113306999207, 68.37548899650574, 68.5425808429718, 69.31005191802979, 69.4100329875946, 69.52661991119385, 69.64350891113281, 69.76051998138428, 69.87715983390808, 69.99409985542297, 70.11065983772278, 70.22753095626831, 70.34440684318542, 70.46124601364136, 70.57834196090698, 70.69472002983093, 70.81153297424316, 70.92840886116028, 71.04509806632996, 71.16187906265259, 71.38390302658081]	[67.28003428700765, 67.39670095367431, 68.37970095367432, 68.54640095367432, 69.29640095367432, 69.41306762034098, 69.52973428700764, 69.6464009536743, 69.76306762034096, 69.87973428700762, 69.99640095367428, 70.11306762034094, 70.2297342870076, 70.34640095367426, 70.46306762034092, 70.57973428700758, 70.69640095367424, 70.8130676203409, 70.92973428700756, 71.04640095367422, 71.16306762034088, 71.39640095367422]	2021_Feb_01_1110	59.95383003449169	1	1
17	13	FALSE	NV	v	['E', 'S', 'H', 'R', 'V', 'J', 'G', 'A', 'X', 'U', 'M', 'T', 'P', 'K', 'Y', 'N']	[904, 1731, 986, 1587, 2245, 1029, 944, 697, 4000, 2059, 1224, 1888, 1456, 1122, 2670, 1335]	9	Present	NA	NA	ABSENT	1.0367510318756104	73.3778989315033	75.38300204277039	76.08325004577637	76.43330001831055	79.50026988983154	4.117267847061157	[73.39781999588013, 73.51429295539856, 74.49879193305969, 74.66578006744385, 75.41645503044128, 75.53330898284912, 75.64998006820679, 75.76693296432495, 75.88354706764221, 76.0505108833313, 76.1171338558197, 76.233962059021, 76.3506510257721, 76.46761989593506, 76.58424496650696, 76.70124983787537, 76.81788992881775, 76.9346559047699, 77.0515718460083, 77.16849684715271, 77.28516888618469, 77.50026893615723]	[73.39640095367422, 73.51306762034088, 74.49606762034088, 74.66276762034089, 75.41276762034089, 75.52943428700755, 75.6461009536742, 75.76276762034087, 75.87943428700753, 75.99610095367419, 76.11276762034085, 76.2294342870075, 76.34610095367417, 76.46276762034083, 76.57943428700749, 76.69610095367415, 76.81276762034081, 76.92943428700747, 77.04610095367413, 77.16276762034079, 77.27943428700745, 77.51276762034078]	2021_Feb_01_1110	59.95383003449169	1	1
17	14	FALSE	NV	v	['P', 'S', 'Y', 'H', 'U', 'G', 'E', 'W', 'K', 'C', 'Z', 'X', 'N', 'A', 'J', 'R']	[1456, 1731, 2670, 986, 2059, 944, 904, 2448, 1122, 829, 2911, 4000, 1335, 697, 1029, 1587]	12	Present	NA	NA	PRESENT	0.5382449626922607	79.50107598304749	81.499342918396	82.54979205131531	82.89967107772827	85.61663699150085	4.117294073104858	[79.52099704742432, 79.63768100738525, 80.60548400878906, 80.77212691307068, 81.5397720336914, 81.6564269065857, 81.77305388450623, 81.8899929523468, 82.00688004493713, 82.1237359046936, 82.2405149936676, 82.35715794563293, 82.4571099281311, 82.59093594551086, 82.69080400466919, 82.80755186080933, 82.9244019985199, 83.04116892814636, 83.15799188613892, 83.2747209072113, 83.39160203933716, 83.61663794517517]	[79.51276762034078, 79.62943428700744, 80.61243428700745, 80.77913428700745, 81.52913428700745, 81.64580095367411, 81.76246762034077, 81.87913428700743, 81.99580095367409, 82.11246762034075, 82.22913428700741, 82.34580095367407, 82.46246762034073, 82.57913428700739, 82.69580095367405, 82.81246762034071, 82.92913428700737, 83.04580095367403, 83.16246762034069, 83.27913428700735, 83.39580095367401, 83.62913428700735]	2021_Feb_01_1110	59.95383003449169	1	1
17	15	FALSE	NA	v	['B', 'H', 'S', 'W', 'M', 'T', 'J', 'C', 'K', 'P', 'X', 'E', 'U', 'R', 'Z', 'N']	[760, 986, 1731, 2448, 1224, 1888, 1029, 829, 1122, 1456, 4000, 904, 2059, 1587, 2911, 1335]	11	Present	NA	NA	ABSENT	1.0707919597625732	85.60753202438354	87.61566495895386	88.54948496818542	88.89936399459839	91.73300290107728	4.117337942123413	[85.6274528503418, 85.74421095848083, 86.7284939289093, 86.89541888237, 87.64614796638489, 87.76289486885071, 87.8798189163208, 87.99650502204895, 88.11328792572021, 88.23014783859253, 88.34674787521362, 88.46375894546509, 88.58032703399658, 88.69739985466003, 88.81401705741882, 88.93100500106812, 89.0477819442749, 89.16441583633423, 89.28120589256287, 89.39808702468872, 89.51556992530823, 89.73300194740295]	[85.62913428700735, 85.745800953674, 86.72880095367401, 86.89550095367402, 87.64550095367402, 87.76216762034068, 87.87883428700734, 87.995500953674, 88.11216762034066, 88.22883428700732, 88.34550095367398, 88.46216762034064, 88.5788342870073, 88.69550095367396, 88.81216762034062, 88.92883428700728, 89.04550095367394, 89.1621676203406, 89.27883428700726, 89.39550095367392, 89.51216762034058, 89.74550095367391]	2021_Feb_01_1110	59.95383003449169	1	1
17	16	FALSE	NV	v	['K', 'R', 'M', 'C', 'P', 'Z', 'B', 'W', 'X', 'U', 'J', 'E', 'V', 'T', 'H', 'Y']	[1122, 1587, 1224, 829, 1456, 2911, 760, 2448, 4000, 2059, 1029, 904, 2245, 1888, 986, 2670]	9	Present	NA	NA	PRESENT	0.780256986618042	91.73061895370483	93.73222208023073	94.43275094032288	94.7823760509491	97.84936904907228	4.117146968841553	[91.75054001808167, 91.86740899085999, 92.8517599105835, 93.018807888031, 93.76943802833557, 93.88626098632812, 94.00316286087036, 94.11963295936584, 94.23643898963928, 94.35319399833679, 94.47022795677185, 94.58680200576782, 94.70359086990356, 94.82033085823059, 94.93730902671814, 95.05392289161682, 95.17078900337219, 95.2876889705658, 95.40463995933533, 95.52122783660889, 95.62123489379883, 95.84936904907227]	[91.74550095367391, 91.86216762034057, 92.84516762034058, 93.01186762034058, 93.76186762034058, 93.87853428700724, 93.9952009536739, 94.11186762034056, 94.22853428700722, 94.34520095367388, 94.46186762034054, 94.5785342870072, 94.69520095367386, 94.81186762034052, 94.92853428700718, 95.04520095367384, 95.1618676203405, 95.27853428700716, 95.39520095367382, 95.51186762034048, 95.62853428700714, 95.86186762034048]	2021_Feb_01_1110	59.95383003449169	1	1
17	17	FALSE	AA	v	['S', 'B', 'P', 'C', 'A', 'W', 'Z', 'surprise', 'Y', 'E', 'X', 'U', 'G', 'J', 'M', 'K']	[1731, 760, 1456, 829, 697, 2448, 2911, 'stimAuditory/all_stimAuditory/102.wav', 2670, 904, 4000, 2059, 944, 1029, 1224, 1122]	11	Present	stimAuditory/all_stimAuditory/216.wav	stimVisual/all_stimVisual/200.jpg	PRESENT	0.3926122188568115	97.8372540473938	99.84836602211	100.78260612487792	101.13211512565611	103.965735912323	4.117369890213013	[97.85717487335205, 97.97387385368347, 98.95827603340149, 99.12518000602722, 99.87569689750671, 99.99258589744568, 100.1095118522644, 100.2262179851532, 100.342857837677, 100.45971703529358, 100.57688188552856, 100.7099540233612, 100.81004095077515, 100.92705702781677, 101.04382991790771, 101.16057705879211, 101.27735090255737, 101.39420795440674, 101.51094198226929, 101.62781500816345, 101.74443888664246, 101.96573495864868]	[97.86186762034048, 97.97853428700714, 98.96153428700714, 99.12823428700715, 99.87823428700715, 99.9949009536738, 100.11156762034047, 100.22823428700713, 100.34490095367379, 100.46156762034045, 100.5782342870071, 100.69490095367377, 100.81156762034043, 100.92823428700709, 101.04490095367375, 101.1615676203404, 101.27823428700707, 101.39490095367373, 101.51156762034039, 101.62823428700705, 101.7449009536737, 101.97823428700704]	2021_Feb_01_1110	59.95383003449169	1	1
17	18	FALSE	NA	v	['N', 'P', 'A', 'K', 'S', 'G', 'M', 'R', 'T', 'X', 'U', 'E', 'J', 'H', 'Z', 'W']	[1335, 1456, 697, 1122, 1731, 944, 1224, 1587, 1888, 4000, 2059, 904, 1029, 986, 2911, 2448]	10	Present	NA	NA	PRESENT	0.5411648750305176	103.96045303344728	105.96488094329834	106.78196597099304	107.13192105293274	110.08210396766664	4.117223024368286	[103.98037385940552, 104.09707498550415, 105.08147287368774, 105.2483160495758, 105.9990918636322, 106.11579489707947, 106.2325668334961, 106.34945583343506, 106.46620583534241, 106.58302402496338, 106.69977498054504, 106.81665205955505, 106.93330597877502, 107.05023789405823, 107.16704988479614, 107.28367686271667, 107.40056085586548, 107.51737594604492, 107.6341199874878, 107.75079798698425, 107.86782097816467, 108.08210492134094]	[103.97823428700704, 104.0949009536737, 105.0779009536737, 105.24460095367371, 105.99460095367371, 106.11126762034037, 106.22793428700703, 106.34460095367369, 106.46126762034035, 106.57793428700701, 106.69460095367367, 106.81126762034033, 106.92793428700699, 107.04460095367365, 107.16126762034031, 107.27793428700697, 107.39460095367363, 107.51126762034029, 107.62793428700695, 107.74460095367361, 107.86126762034027, 108.0946009536736]	2021_Feb_01_1110	59.95383003449169	1	1
17	19	FALSE	NV	v	['Z', 'K', 'M', 'V', 'G', 'T', 'Y', 'E', 'P', 'X', 'S', 'R', 'B', 'A', 'C', 'W']	[2911, 1122, 1224, 2245, 944, 1888, 2670, 904, 1456, 4000, 1731, 1587, 760, 697, 829, 2448]	10	Present	NA	NA	ABSENT	0.690561056137085	110.08336997032166	112.08135104179382	112.89806294441225	113.24933099746704	116.19846987724304	4.117118835449219	[110.10329103469849, 110.20342302322388, 111.18804788589478, 111.35461187362671, 112.12231802940369, 112.23892784118652, 112.33904194831848, 112.45583295822144, 112.58955597877502, 112.68929386138916, 112.80610394477844, 112.92291402816772, 113.03966498374939, 113.15648484230042, 113.29029297828674, 113.3903079032898, 113.50694584846497, 113.62403988838196, 113.74055194854736, 113.85745906829834, 113.97433805465698, 114.19846892356873]	[110.0946009536736, 110.21126762034027, 111.19426762034027, 111.36096762034028, 112.11096762034028, 112.22763428700694, 112.3443009536736, 112.46096762034026, 112.57763428700692, 112.69430095367358, 112.81096762034024, 112.9276342870069, 113.04430095367356, 113.16096762034022, 113.27763428700688, 113.39430095367354, 113.5109676203402, 113.62763428700686, 113.74430095367352, 113.86096762034018, 113.97763428700684, 114.21096762034017]	2021_Feb_01_1110	59.95383003449169	1	1
17	20	FALSE	NA	v	['Z', 'N', 'P', 'C', 'W', 'E', 'Y', 'K', 'R', 'H', 'G', 'X', 'V', 'U', 'B', 'M']	[2911, 1335, 1456, 829, 2448, 904, 2670, 1122, 1587, 986, 944, 4000, 2245, 2059, 760, 1224]	12	Present	NA	NA	PRESENT	0.33524298667907715	116.19010305404665	118.19766998291016	119.24771094322205	119.59845495224	122.31483602523804	4.117166042327881	[116.2100248336792, 116.32684302330017, 117.31113886833191, 117.4781289100647, 118.22862386703491, 118.34562802314758, 118.46241688728333, 118.5792920589447, 118.6960220336914, 118.81276392936707, 118.9293749332428, 119.04625487327576, 119.1631920337677, 119.27996587753296, 119.39652299880981, 119.5140278339386, 119.63010001182556, 119.74699592590332, 119.86391091346741, 119.98066091537476, 120.09734296798706, 120.31483602523804]	[116.21096762034017, 116.32763428700683, 117.31063428700683, 117.47733428700684, 118.22733428700684, 118.3440009536735, 118.46066762034016, 118.57733428700682, 118.69400095367348, 118.81066762034014, 118.9273342870068, 119.04400095367346, 119.16066762034012, 119.27733428700678, 119.39400095367344, 119.5106676203401, 119.62733428700676, 119.74400095367342, 119.86066762034008, 119.97733428700674, 120.0940009536734, 120.32733428700674]	2021_Feb_01_1110	59.95383003449169	1	1
17	21	FALSE	NA	v	['P', 'T', 'K', 'R', 'S', 'G', 'E', 'W', 'X', 'U', 'B', 'V', 'Y', 'J', 'C', 'N']	[1456, 1888, 1122, 1587, 1731, 944, 904, 2448, 4000, 2059, 760, 2245, 2670, 1029, 829, 1335]	9	Present	NA	NA	PRESENT	0.4925038814544678	122.31310105323792	124.3139750957489	125.0143871307373	125.36447501182556	128.43120288848877	4.117227792739868	[122.33302307128906, 122.44992995262146, 123.43438696861267, 123.60110306739807, 124.3520028591156, 124.4688949584961, 124.58555603027344, 124.70245504379272, 124.8191819190979, 124.93574595451355, 125.05248188972473, 125.16951704025269, 125.28621983528137, 125.40289497375488, 125.51986789703369, 125.63662505149841, 125.7535400390625, 125.87011694908142, 125.98693203926086, 126.1037380695343, 126.20375394821167, 126.43120288848877]	[122.32733428700674, 122.4440009536734, 123.4270009536734, 123.5937009536734, 124.3437009536734, 124.46036762034007, 124.57703428700673, 124.69370095367339, 124.81036762034005, 124.9270342870067, 125.04370095367337, 125.16036762034003, 125.27703428700669, 125.39370095367335, 125.51036762034, 125.62703428700667, 125.74370095367333, 125.86036762033999, 125.97703428700665, 126.0937009536733, 126.21036762033997, 126.4437009536733]	2021_Feb_01_1110	59.95383003449169	1	1
17	22	FALSE	NA	v	['K', 'Y', 'E', 'B', 'T', 'V', 'G', 'C', 'X', 'Z', 'P', 'U', 'A', 'N', 'M', 'S']	[1122, 2670, 904, 760, 1888, 2245, 944, 829, 4000, 2911, 1456, 2059, 697, 1335, 1224, 1731]	9	Present	NA	NA	PRESENT	0.8090360164642334	128.41958594322205	130.4305019378662	131.13064002990723	131.4805200099945	134.54756999015808	4.11706805229187	[128.4395079612732, 128.55627584457397, 129.54063391685486, 129.70768284797668, 130.45824885368347, 130.5754668712616, 130.69217085838318, 130.8087809085846, 130.9259250164032, 131.042338848114, 131.15910506248474, 131.27594184875488, 131.39281702041626, 131.5097770690918, 131.62618398666382, 131.74314785003662, 131.85985898971558, 131.97682404518127, 132.09340405464172, 132.21036386489868, 132.32705688476562, 132.5475709438324]	[128.4437009536733, 128.56036762033997, 129.54336762033998, 129.71006762033997, 130.46006762033997, 130.57673428700664, 130.69340095367332, 130.81006762034, 130.92673428700667, 131.04340095367334, 131.16006762034002, 131.2767342870067, 131.39340095367336, 131.51006762034004, 131.6267342870067, 131.7434009536734, 131.86006762034006, 131.97673428700674, 132.0934009536734, 132.21006762034008, 132.32673428700676, 132.56006762034008]	2021_Feb_01_1110	59.95383003449169	1	1
17	23	FALSE	VN	v	['A', 'M', 'G', 'R', 'E', 'surprise', 'N', 'T', 'H', 'K', 'Z', 'C', 'Y', 'J', 'V', 'U']	[697, 1224, 944, 1587, 904, 'stimAuditory/all_stimAuditory/222.wav', 1335, 1888, 986, 1122, 2911, 829, 2670, 1029, 2245, 2059]	9	Absent	NA	stimVisual/all_stimVisual/114.jpg	ABSENT	0.3976418972015381	134.54304814338684	136.54689693450928	137.2471640110016	137.5972261428833	140.6639368534088	4.117039918899536	[134.5629689693451, 134.67961597442627, 135.6639380455017, 135.83075094223022, 136.58150100708008, 136.69849801063538, 136.81528496742249, 136.932049036026, 137.04879903793335, 137.16552686691284, 137.28231501579285, 137.3992259502411, 137.5159969329834, 137.63277006149292, 137.74953389167786, 137.86624598503113, 137.98301100730896, 138.1000199317932, 138.21666598320007, 138.33349204063416, 138.45012784004211, 138.6639380455017]	[134.56006762034008, 134.67673428700675, 135.65973428700676, 135.82643428700675, 136.57643428700675, 136.69310095367342, 136.8097676203401, 136.92643428700677, 137.04310095367345, 137.15976762034012, 137.2764342870068, 137.39310095367347, 137.50976762034014, 137.62643428700682, 137.7431009536735, 137.85976762034016, 137.97643428700684, 138.0931009536735, 138.2097676203402, 138.32643428700686, 138.44310095367354, 138.67643428700686]	2021_Feb_01_1110	59.95383003449169	1	1
17	24	FALSE	NN	v	['N', 'T', 'J', 'G', 'B', 'C', 'K', 'H', 'Y', 'S', 'A', 'U', 'M', 'P', 'Z', 'W']	[1335, 1888, 1029, 944, 760, 829, 1122, 986, 2670, 1731, 697, 2059, 1224, 1456, 2911, 2448]	13	Absent	NA	NA	ABSENT	0.6348419189453125	140.66632199287417	142.66302609443665	143.83012795448303	144.17996311187744	146.78030395507812	4.1172778606414795	[140.6862440109253, 140.78598189353943, 141.77029085159302, 141.93716406822205, 142.70485997200012, 142.80478692054749, 142.9215350151062, 143.03838801383972, 143.15514302253723, 143.27203106880188, 143.38882398605347, 143.50547194480896, 143.62227201461792, 143.73920702934265, 143.8559229373932, 143.97283506393433, 144.089448928833, 144.20646786689758, 144.32310605049133, 144.44010090827942, 144.55675888061523, 144.7803030014038]	[140.67643428700686, 140.79310095367353, 141.77610095367353, 141.94280095367353, 142.69280095367353, 142.8094676203402, 142.92613428700687, 143.04280095367355, 143.15946762034022, 143.2761342870069, 143.39280095367357, 143.50946762034025, 143.62613428700692, 143.7428009536736, 143.85946762034027, 143.97613428700694, 144.09280095367362, 144.2094676203403, 144.32613428700697, 144.44280095367364, 144.5594676203403, 144.79280095367363]	2021_Feb_01_1110	59.95383003449169	1	1
17	25	FALSE	NA	v	['Y', 'H', 'C', 'K', 'S', 'U', 'A', 'W', 'G', 'B', 'R', 'Z', 'X', 'M', 'N', 'P']	[2670, 986, 829, 1122, 1731, 2059, 697, 2448, 944, 760, 1587, 2911, 4000, 1224, 1335, 1456]	13	Present	NA	NA	PRESENT	0.31134510040283203	146.7727301120758	148.7793231010437	149.94645714759827	150.29642605781555	152.89666986465454	4.11734676361084	[146.7926540374756, 146.90934300422668, 147.89371490478516, 148.06039190292358, 148.8112289905548, 148.92807388305664, 149.04481291770935, 149.16178393363953, 149.27846002578735, 149.39542388916016, 149.5126039981842, 149.62884306907654, 149.7454650402069, 149.86242294311523, 149.97913098335266, 150.09606885910034, 150.21278405189514, 150.32942485809326, 150.446359872818, 150.56330490112305, 150.68005299568176, 150.89666891098022]	[146.79280095367363, 146.9094676203403, 147.8924676203403, 148.0591676203403, 148.8091676203403, 148.92583428700698, 149.04250095367365, 149.15916762034033, 149.275834287007, 149.39250095367368, 149.50916762034035, 149.62583428700702, 149.7425009536737, 149.85916762034037, 149.97583428700705, 150.09250095367372, 150.2091676203404, 150.32583428700707, 150.44250095367374, 150.55916762034042, 150.6758342870071, 150.9091676203404]	2021_Feb_01_1110	59.95383003449169	1	1
17	26	FALSE	NN	v	['P', 'Z', 'T', 'M', 'J', 'H', 'Y', 'C', 'V', 'U', 'R', 'G', 'N', 'W', 'A', 'B']	[1456, 2911, 1888, 1224, 1029, 986, 2670, 829, 2245, 2059, 1587, 944, 1335, 2448, 697, 760]	13	Absent	NA	NA	ABSENT	0.6687572002410889	152.89575910568237	154.89597606658936	156.06280708312988	156.41281294822693	159.01303696632385	4.117060899734497	[152.91567993164062, 153.03255605697632, 154.01705288887024, 154.18351483345032, 154.9344038963318, 155.05116987228394, 155.16821193695068, 155.28498792648315, 155.40180897712708, 155.51851987838745, 155.6351580619812, 155.75207090377808, 155.86893892288208, 155.9855878353119, 156.10234093666077, 156.21927189826965, 156.33604788780212, 156.45271801948547, 156.56974601745605, 156.68628191947937, 156.78654885292053, 157.01303696632385]	[152.9091676203404, 153.0258342870071, 154.0088342870071, 154.17553428700708, 154.92553428700708, 155.04220095367376, 155.15886762034043, 155.2755342870071, 155.39220095367378, 155.50886762034045, 155.62553428700713, 155.7422009536738, 155.85886762034048, 155.97553428700715, 156.09220095367382, 156.2088676203405, 156.32553428700717, 156.44220095367385, 156.55886762034052, 156.6755342870072, 156.79220095367387, 157.0255342870072]	2021_Feb_01_1110	59.95383003449169	1	1
17	27	FALSE	NN	v	['G', 'A', 'W', 'M', 'H', 'Z', 'Y', 'C', 'S', 'K', 'V', 'T', 'E', 'J', 'R', 'B']	[944, 697, 2448, 1224, 986, 2911, 2670, 829, 1731, 1122, 2245, 1888, 904, 1029, 1587, 760]	8	Absent	NA	NA	ABSENT	0.9610857963562012	159.00224614143372	161.01216793060303	161.59587812423706	161.94572806358337	165.12940287590027	4.117234945297241	[159.02216696739197, 159.13885283470154, 160.1233148574829, 160.2902638912201, 161.0411548614502, 161.15789794921875, 161.274484872818, 161.39147305488586, 161.50869703292847, 161.62490391731262, 161.74163794517517, 161.85865998268127, 161.9752459526062, 162.09218406677246, 162.20878386497498, 162.32579898834229, 162.44242191314697, 162.5591640472412, 162.67609286308289, 162.79285788536072, 162.909747838974, 163.12940192222595]	[159.0255342870072, 159.14220095367386, 160.12520095367387, 160.29190095367386, 161.04190095367386, 161.15856762034053, 161.2752342870072, 161.39190095367388, 161.50856762034056, 161.62523428700723, 161.7419009536739, 161.85856762034058, 161.97523428700725, 162.09190095367393, 162.2085676203406, 162.32523428700728, 162.44190095367395, 162.55856762034063, 162.6752342870073, 162.79190095367397, 162.90856762034065, 163.14190095367397]	2021_Feb_01_1110	59.95383003449169	1	1
17	28	FALSE	NV	v	['Y', 'J', 'B', 'N', 'T', 'A', 'K', 'M', 'Z', 'E', 'C', 'U', 'V', 'X', 'P', 'W']	[2670, 1029, 760, 1335, 1888, 697, 1122, 1224, 2911, 904, 829, 2059, 2245, 4000, 1456, 2448]	14	Present	NA	NA	PRESENT	0.7816801071166992	165.12533807754517	167.128653049469	168.4125051498413	168.76212310791016	171.24576997756958	4.117116928100586	[165.14525985717773, 165.2623360157013, 166.24665188789368, 166.41347885131836, 167.1640658378601, 167.28103184700012, 167.39792490005493, 167.51466584205627, 167.63134503364563, 167.7483148574829, 167.86480903625488, 167.98169994354248, 168.09862995147705, 168.2152259349823, 168.3320369720459, 168.44873785972595, 168.56580305099487, 168.68261194229126, 168.79917287826538, 168.9159379005432, 169.03301692008972, 169.24576997756958]	[165.14190095367397, 165.25856762034064, 166.24156762034065, 166.40826762034064, 167.15826762034064, 167.2749342870073, 167.391600953674, 167.50826762034066, 167.62493428700733, 167.741600953674, 167.85826762034068, 167.97493428700736, 168.09160095367403, 168.2082676203407, 168.32493428700738, 168.44160095367405, 168.55826762034073, 168.6749342870074, 168.79160095367408, 168.90826762034075, 169.02493428700743, 169.25826762034075]	2021_Feb_01_1110	59.95383003449169	1	1
17	29	FALSE	NV	v	['Z', 'R', 'G', 'Y', 'T', 'V', 'W', 'B', 'P', 'E', 'U', 'X', 'J', 'C', 'H', 'N']	[2911, 1587, 944, 2670, 1888, 2245, 2448, 760, 1456, 904, 2059, 4000, 1029, 829, 986, 1335]	12	Present	NA	NA	PRESENT	0.9948930740356444	171.23211193084717	173.24491691589355	174.2951021194458	174.64517903327942	177.3621368408203	4.117219924926758	[171.252032995224, 171.36857295036316, 172.35297894477844, 172.51996493339539, 173.28740692138672, 173.3873438835144, 173.50414490699768, 173.62105894088745, 173.73773384094238, 173.85469794273376, 173.97132396697998, 174.08810687065125, 174.20489883422852, 174.32185292243958, 174.43861293792725, 174.5554358959198, 174.67220401763916, 174.78899097442627, 174.90565085411072, 175.0225749015808, 175.13920402526855, 175.362135887146]	[171.25826762034075, 171.37493428700742, 172.35793428700742, 172.52463428700742, 173.27463428700742, 173.3913009536741, 173.50796762034076, 173.62463428700744, 173.7413009536741, 173.8579676203408, 173.97463428700746, 174.09130095367414, 174.2079676203408, 174.32463428700748, 174.44130095367416, 174.55796762034083, 174.6746342870075, 174.79130095367418, 174.90796762034086, 175.02463428700753, 175.1413009536742, 175.37463428700752]	2021_Feb_01_1110	59.95383003449169	1	1
17	30	FALSE	AN	v	['T', 'A', 'R', 'M', 'Z', 'G', 'S', 'Y', 'B', 'surprise', 'E', 'H', 'J', 'V', 'C', 'N']	[1888, 697, 1587, 1224, 2911, 944, 1731, 2670, 760, 'stimAuditory/all_stimAuditory/208.wav', 904, 986, 1029, 2245, 829, 1335]	13	Absent	stimAuditory/all_stimAuditory/113.wav	stimVisual/all_stimVisual/201.jpg	ABSENT	0.91168808937072765	177.35528302192688	179.3610429763794	180.52839612960815	180.8781681060791	183.4785039424896	4.1174609661102295	[177.37520384788513, 177.49179005622864, 178.4762270450592, 178.64317989349365, 179.3938319683075, 179.510822057724, 179.62769389152527, 179.74431896209717, 179.86106491088867, 179.9777069091797, 180.0945689678192, 180.2112798690796, 180.32821106910706, 180.4618010520935, 180.56210803985596, 180.6786789894104, 180.7953498363495, 180.9119758605957, 181.02893996238708, 181.14587783813477, 181.2626039981842, 181.47850394248962]	[177.37463428700752, 177.4913009536742, 178.4743009536742, 178.6410009536742, 179.3910009536742, 179.50766762034087, 179.62433428700754, 179.74100095367422, 179.8576676203409, 179.97433428700757, 180.09100095367424, 180.2076676203409, 180.3243342870076, 180.44100095367426, 180.55766762034094, 180.6743342870076, 180.79100095367428, 180.90766762034096, 181.02433428700763, 181.1410009536743, 181.25766762034098, 181.4910009536743]	2021_Feb_01_1110	59.95383003449169	1	1
17	31	FALSE	NA	v	['P', 'Z', 'U', 'V', 'Y', 'S', 'M', 'X', 'H', 'E', 'J', 'C', 'W', 'B', 'A', 'R']	[1456, 2911, 2059, 2245, 2670, 1731, 1224, 4000, 986, 904, 1029, 829, 2448, 760, 697, 1587]	8	Present	NA	NA	ABSENT	1.3089649677276611	183.47836899757385	185.47757196426392	186.06148314476013	186.41122698783877	189.59486985206604	4.117297887802124	[183.49829006195068, 183.61510801315308, 184.59955596923828, 184.74935483932495, 185.51713395118713, 185.63373804092407, 185.7508900165558, 185.86758399009705, 185.98436188697815, 186.1010000705719, 186.2179069519043, 186.33459091186523, 186.4513280391693, 186.56813097000122, 186.6850609779358, 186.80176901817322, 186.91843795776367, 187.03536891937256, 187.15220093727112, 187.25213885307312, 187.36895990371704, 187.59487104415894]	[183.4910009536743, 183.60766762034098, 184.59066762034098, 184.75736762034097, 185.50736762034097, 185.62403428700765, 185.74070095367432, 185.857367620341, 185.97403428700767, 186.09070095367434, 186.20736762034102, 186.3240342870077, 186.44070095367437, 186.55736762034104, 186.67403428700771, 186.7907009536744, 186.90736762034106, 187.02403428700774, 187.1407009536744, 187.25736762034109, 187.37403428700776, 187.60736762034108]	2021_Feb_01_1110	59.95383003449169	1	1
17	32	FALSE	NA	v	['M', 'B', 'N', 'S', 'U', 'K', 'V', 'R', 'W', 'X', 'Y', 'G', 'T', 'H', 'E', 'P']	[1224, 760, 1335, 1731, 2059, 1122, 2245, 1587, 2448, 4000, 2670, 944, 1888, 986, 904, 1456]	10	Present	NA	NA	PRESENT	0.4734358787536621	189.58493399620056	191.59380507469177	192.41094398498535	192.76093101501465	195.71123695373535	4.117431879043579	[189.6048550605774, 189.72149801254272, 190.7062120437622, 190.87267088890076, 191.62347197532654, 191.7403919696808, 191.85727286338806, 191.97398591041565, 192.09060883522034, 192.2076599597931, 192.3243420124054, 192.4412739276886, 192.55811190605164, 192.67482495307922, 192.7913999557495, 192.90817785263062, 193.02496099472046, 193.14194583892822, 193.25865507125854, 193.37550497055054, 193.49212789535522, 193.71123695373535]	[189.60736762034108, 189.72403428700775, 190.70703428700776, 190.87373428700775, 191.62373428700775, 191.74040095367442, 191.8570676203411, 191.97373428700777, 192.09040095367445, 192.20706762034112, 192.3237342870078, 192.44040095367447, 192.55706762034114, 192.67373428700782, 192.7904009536745, 192.90706762034117, 193.02373428700784, 193.14040095367451, 193.2570676203412, 193.37373428700786, 193.49040095367454, 193.72373428700786]	2021_Feb_01_1110	59.95383003449169	1	1
17	33	FALSE	NA	v	['N', 'T', 'W', 'J', 'V', 'P', 'C', 'Y', 'X', 'M', 'S', 'Z', 'R', 'G', 'H', 'A']	[1335, 1888, 2448, 1029, 2245, 1456, 829, 2670, 4000, 1224, 1731, 2911, 1587, 944, 986, 697]	9	Present	NA	NA	PRESENT	0.5670850276947021	195.7079651355743	197.71032404899597	198.41066193580627	198.760635137558	201.82760286331177	4.117278814315796	[195.7278859615326, 195.84486889839172, 196.82910203933716, 196.9959568977356, 197.74674201011658, 197.86345386505127, 197.98034405708313, 198.09708285331726, 198.21398901939392, 198.33073902130127, 198.44776487350464, 198.56424403190613, 198.68122696876526, 198.798033952713, 198.91471886634827, 199.03130888938904, 199.148295879364, 199.26495885849, 199.3820390701294, 199.49870800971985, 199.6152639389038, 199.82760286331177]	[195.72373428700786, 195.84040095367453, 196.82340095367454, 196.99010095367453, 197.74010095367453, 197.8567676203412, 197.97343428700788, 198.09010095367455, 198.20676762034122, 198.3234342870079, 198.44010095367457, 198.55676762034125, 198.67343428700792, 198.7901009536746, 198.90676762034127, 199.02343428700794, 199.14010095367462, 199.2567676203413, 199.37343428700797, 199.49010095367464, 199.60676762034132, 199.84010095367464]	2021_Feb_01_1110	59.95383003449169	1	1
17	34	FALSE	NN	v	['V', 'C', 'R', 'G', 'K', 'U', 'W', 'B', 'M', 'E', 'S', 'H', 'P', 'A', 'N', 'J']	[2245, 829, 1587, 944, 1122, 2059, 2448, 760, 1224, 904, 1731, 986, 1456, 697, 1335, 1029]	10	Absent	NA	NA	ABSENT	1.0353209972381592	201.81473112106323	203.8269600868225	204.64368510246277	204.99376010894775	207.94396996498108	4.117009878158569	[201.8346529006958, 201.9512050151825, 202.93563985824585, 203.10233902931213, 203.8701159954071, 203.97020983695984, 204.0867428779602, 204.20371985435486, 204.32031106948853, 204.4372799396515, 204.55394291877747, 204.67082285881042, 204.78777194023132, 204.90427088737488, 205.02105689048767, 205.1380159854889, 205.25467205047607, 205.37162590026855, 205.4882960319519, 205.60499000549316, 205.7219798564911, 205.94396901130676]	[201.84010095367464, 201.9567676203413, 202.9397676203413, 203.1064676203413, 203.8564676203413, 203.97313428700798, 204.08980095367465, 204.20646762034133, 204.323134287008, 204.43980095367468, 204.55646762034135, 204.67313428700803, 204.7898009536747, 204.90646762034137, 205.02313428700805, 205.13980095367472, 205.2564676203414, 205.37313428700807, 205.48980095367475, 205.60646762034142, 205.7231342870081, 205.9564676203414]	2021_Feb_01_1110	59.95383003449169	1	1
17	35	FALSE	AA	v	['V', 'R', 'K', 'U', 'W', 'P', 'surprise', 'Y', 'Z', 'X', 'E', 'H', 'M', 'C', 'A', 'B']	[2245, 1587, 1122, 2059, 2448, 1456, 'stimAuditory/all_stimAuditory/103.wav', 2670, 2911, 4000, 904, 986, 1224, 829, 697, 760]	10	Present	stimAuditory/all_stimAuditory/102.wav	stimVisual/all_stimVisual/211.jpg	PRESENT	0.599837064743042	207.9378161430359	209.943067073822	210.7600519657135	211.11019015312195	214.0603370666504	4.117269992828369	[207.9577488899231, 208.0743169784546, 209.058984041214, 209.22572898864746, 209.97625303268433, 210.09338903427124, 210.2099678516388, 210.32686805725098, 210.44377899169922, 210.56050205230713, 210.6938600540161, 210.79413986206055, 210.91090297698975, 211.02770686149597, 211.14448595046997, 211.26106691360474, 211.37803888320923, 211.49457788467407, 211.6119999885559, 211.72817707061768, 211.8451919555664, 212.0603380203247]	[207.9564676203414, 208.0731342870081, 209.0561342870081, 209.22283428700808, 209.97283428700808, 210.08950095367476, 210.20616762034143, 210.3228342870081, 210.43950095367478, 210.55616762034145, 210.67283428700813, 210.7895009536748, 210.90616762034148, 211.02283428700815, 211.13950095367483, 211.2561676203415, 211.37283428700817, 211.48950095367485, 211.60616762034152, 211.7228342870082, 211.83950095367487, 212.0728342870082]	2021_Feb_01_1110	59.95383003449169	1	1
17	36	FALSE	NA	v	['Z', 'J', 'W', 'T', 'S', 'N', 'C', 'G', 'E', 'X', 'Y', 'B', 'M', 'A', 'R', 'K']	[2911, 1029, 2448, 1888, 1731, 1335, 829, 944, 904, 4000, 2670, 760, 1224, 697, 1587, 1122]	10	Present	NA	NA	PRESENT	0.5810410976409912	214.06097507476807	216.05954003334045	216.8765730857849	217.2263700962067	220.1767029762268	4.1171629428863525	[214.08089590072632, 214.19774293899536, 215.16522002220154, 215.33208799362183, 216.09972286224365, 216.21631503105164, 216.33333587646484, 216.4501919746399, 216.56680703163147, 216.68368101119995, 216.80031895637512, 216.91712999343872, 217.0339710712433, 217.13392686843872, 217.2508189678192, 217.3674659729004, 217.48421692848206, 217.60107898712158, 217.7178590297699, 217.83467483520508, 217.95151591300964, 218.1767029762268]	[214.0728342870082, 214.18950095367487, 215.17250095367487, 215.33920095367486, 216.08920095367486, 216.20586762034154, 216.3225342870082, 216.43920095367488, 216.55586762034156, 216.67253428700823, 216.7892009536749, 216.90586762034158, 217.02253428700826, 217.13920095367493, 217.2558676203416, 217.37253428700828, 217.48920095367495, 217.60586762034163, 217.7225342870083, 217.83920095367498, 217.95586762034165, 218.18920095367497]	2021_Feb_01_1110	59.95383003449169	1	1
17	37	FALSE	NV	v	['N', 'K', 'S', 'Y', 'C', 'P', 'E', 'R', 'X', 'Z', 'G', 'U', 'B', 'H', 'A', 'J']	[1335, 1122, 1731, 2670, 829, 1456, 904, 1587, 4000, 2911, 944, 2059, 760, 986, 697, 1029]	9	Present	NA	NA	PRESENT	0.6657190322875977	220.16728711128235	222.175616979599	222.8760781288147	223.2263569831848	226.2930688858032	4.117451906204224	[220.1872079372406, 220.30415105819702, 221.28860592842102, 221.4554328918457, 222.20642185211182, 222.32301688194275, 222.4396150112152, 222.55659890174866, 222.67347383499146, 222.79029393196106, 222.90702891349792, 223.02376198768616, 223.14041900634766, 223.25745296478271, 223.3739049434662, 223.49101305007935, 223.60767102241516, 223.72444987297058, 223.8410530090332, 223.9580478668213, 224.07490992546082, 224.29306983947754]	[220.18920095367497, 220.30586762034164, 221.28886762034165, 221.45556762034164, 222.20556762034164, 222.3222342870083, 222.438900953675, 222.55556762034166, 222.67223428700834, 222.788900953675, 222.90556762034169, 223.02223428700836, 223.13890095367503, 223.2555676203417, 223.37223428700838, 223.48890095367506, 223.60556762034173, 223.7222342870084, 223.83890095367508, 223.95556762034175, 224.07223428700843, 224.30556762034175]	2021_Feb_01_1110	59.95383003449169	1	1
17	38	FALSE	NA	v	['B', 'K', 'E', 'J', 'S', 'P', 'T', 'V', 'X', 'W', 'N', 'A', 'Z', 'C', 'H', 'M']	[760, 1122, 904, 1029, 1731, 1456, 1888, 2245, 4000, 2448, 1335, 697, 2911, 829, 986, 1224]	9	Present	NA	NA	PRESENT	0.36710190773010254	226.2906310558319	228.29203701019287	228.99302697181705	229.34242510795593	232.40943598747253	4.117398977279663	[226.31055092811584, 226.42736387252808, 227.4118468761444, 227.57863688468933, 228.32927203178406, 228.44680190086365, 228.56307005882263, 228.67973804473877, 228.7966799736023, 228.9131519794464, 229.03006601333618, 229.14678192138672, 229.2638168334961, 229.38052892684937, 229.49731397628784, 229.6140730381012, 229.73075604438782, 229.84746384620667, 229.9643189907074, 230.08126091957092, 230.18119883537292, 230.40943598747253]	[226.30556762034175, 226.42223428700842, 227.40523428700843, 227.57193428700842, 228.32193428700842, 228.4386009536751, 228.55526762034177, 228.67193428700844, 228.78860095367511, 228.9052676203418, 229.02193428700846, 229.13860095367514, 229.2552676203418, 229.3719342870085, 229.48860095367516, 229.60526762034183, 229.7219342870085, 229.83860095367518, 229.95526762034186, 230.07193428700853, 230.1886009536752, 230.42193428700853]	2021_Feb_01_1110	59.95383003449169	1	1
17	39	FALSE	NA	v	['G', 'Y', 'Z', 'P', 'E', 'W', 'H', 'N', 'C', 'V', 'A', 'X', 'T', 'M', 'U', 'R']	[944, 2670, 2911, 1456, 904, 2448, 986, 1335, 829, 2245, 697, 4000, 1888, 1224, 2059, 1587]	12	Present	NA	NA	PRESENT	0.4115369319915771	232.3974449634552	234.40856194496155	235.45869612693787	235.80883312225345	238.52580404281616	4.117242097854614	[232.41736602783203, 232.53363490104675, 233.51818203926086, 233.6851930618286, 234.4526870250702, 234.55271792411804, 234.66931891441345, 234.7862410545349, 234.902902841568, 235.01993894577026, 235.13648295402527, 235.25349497795105, 235.37019205093384, 235.48699283599854, 235.6037619113922, 235.72043800354004, 235.83733296394348, 235.95401787757874, 236.07099103927612, 236.18760585784912, 236.30456686019897, 236.52580499649048]	[232.42193428700853, 232.5386009536752, 233.5216009536752, 233.6883009536752, 234.4383009536752, 234.55496762034187, 234.67163428700854, 234.78830095367522, 234.9049676203419, 235.02163428700857, 235.13830095367524, 235.25496762034192, 235.3716342870086, 235.48830095367526, 235.60496762034194, 235.7216342870086, 235.8383009536753, 235.95496762034196, 236.07163428700864, 236.1883009536753, 236.30496762034198, 236.5383009536753]	2021_Feb_01_1110	59.95383003449169	1	1
17	40	FALSE	NV	v	['W', 'P', 'M', 'A', 'J', 'B', 'G', 'T', 'N', 'K', 'X', 'H', 'U', 'E', 'R', 'V']	[2448, 1456, 1224, 697, 1029, 760, 944, 1888, 1335, 1122, 4000, 986, 2059, 904, 1587, 2245]	11	Present	NA	NA	ABSENT	0.792294979095459	238.52038598060608	240.52488803863525	241.4584379196167	241.80856013298035	244.64216995239255	4.117281913757324	[238.5403070449829, 238.65706706047058, 239.64125895500183, 239.80813002586365, 240.55895900726318, 240.67587089538574, 240.7926540374756, 240.90939283370972, 241.02632594108582, 241.14303994178772, 241.25989699363708, 241.37653183937073, 241.4932520389557, 241.61042594909668, 241.7270278930664, 241.84386086463928, 241.96059799194336, 242.0773310661316, 242.1941418647766, 242.31072783470154, 242.4275438785553, 242.6421709060669]	[238.5383009536753, 238.65496762034198, 239.63796762034198, 239.80466762034197, 240.55466762034197, 240.67133428700865, 240.78800095367532, 240.904667620342, 241.02133428700867, 241.13800095367534, 241.25466762034202, 241.3713342870087, 241.48800095367537, 241.60466762034204, 241.72133428700872, 241.8380009536754, 241.95466762034206, 242.07133428700874, 242.1880009536754, 242.3046676203421, 242.42133428700876, 242.65466762034208]	2021_Feb_01_1110	59.95383003449169	1	1
17	41	FALSE	NA	v	['G', 'H', 'E', 'R', 'K', 'J', 'N', 'X', 'B', 'V', 'Y', 'U', 'S', 'A', 'T', 'P']	[944, 986, 904, 1587, 1122, 1029, 1335, 4000, 760, 2245, 2670, 2059, 1731, 697, 1888, 1456]	8	Present	NA	NA	PRESENT	0.6215348243713379	244.64344692230225	246.64127802848816	247.22497701644895	247.5750391483307	250.7585370540619	4.1172590255737305	[244.66336798667908, 244.76328992843628, 245.74786901474, 245.91462993621826, 246.68224000930786, 246.7989149093628, 246.9159698486328, 247.03268194198608, 247.14950299263, 247.2493188381195, 247.3661549091339, 247.4829490184784, 247.59970998764038, 247.71648693084717, 247.83332085609436, 247.950119972229, 248.0669629573822, 248.18368196487427, 248.30040001869202, 248.41749095916748, 248.53403687477112, 248.7585370540619]	[244.65466762034208, 244.77133428700876, 245.75433428700876, 245.92103428700875, 246.67103428700875, 246.78770095367543, 246.9043676203421, 247.02103428700877, 247.13770095367545, 247.25436762034212, 247.3710342870088, 247.48770095367547, 247.60436762034215, 247.72103428700882, 247.8377009536755, 247.95436762034217, 248.07103428700884, 248.18770095367552, 248.3043676203422, 248.42103428700887, 248.53770095367554, 248.77103428700886]	2021_Feb_01_1110	59.95383003449169	1	1
17	42	FALSE	NA	v	['G', 'N', 'Y', 'C', 'M', 'Z', 'J', 'X', 'P', 'K', 'U', 'R', 'S', 'H', 'T', 'W']	[944, 1335, 2670, 829, 1224, 2911, 1029, 4000, 1456, 1122, 2059, 1587, 1731, 986, 1888, 2448]	8	Present	NA	NA	PRESENT	0.4101588726043701	250.74994111061096	252.7575340270996	253.3418309688568	253.69138407707217	256.8749029636383	4.117368936538696	[250.76986289024353, 250.88678288459778, 251.87132692337036, 252.03774094581604, 252.7886679172516, 252.90559887886047, 253.02220702171326, 253.13902688026428, 253.25592303276062, 253.37272906303406, 253.4894938468933, 253.60617089271545, 253.7231879234314, 253.8399360179901, 253.95668005943298, 254.07334685325623, 254.19034004211426, 254.30713891983032, 254.42385506629944, 254.54041004180908, 254.65737104415894, 254.8749029636383]	[250.77103428700886, 250.88770095367553, 251.87070095367554, 252.03740095367553, 252.78740095367553, 252.9040676203422, 253.02073428700888, 253.13740095367555, 253.25406762034223, 253.3707342870089, 253.48740095367558, 253.60406762034225, 253.72073428700892, 253.8374009536756, 253.95406762034227, 254.07073428700895, 254.18740095367562, 254.3040676203423, 254.42073428700897, 254.53740095367564, 254.65406762034232, 254.88740095367564]	2021_Feb_01_1110	59.95383003449169	1	1
17	43	FALSE	NN	v	['Y', 'M', 'J', 'K', 'W', 'S', 'A', 'Z', 'R', 'V', 'N', 'P', 'G', 'E', 'U', 'H']	[2670, 1224, 1029, 1122, 2448, 1731, 697, 2911, 1587, 2245, 1335, 1456, 944, 904, 2059, 986]	12	Absent	NA	NA	ABSENT	0.591343879699707	256.8731200695038	258.8740451335907	259.92449593544006	260.2745051383972	262.9912700653076	4.117224931716919	[256.89304089546204, 257.00985288619995, 257.9942789077759, 258.1612479686737, 258.91188192367554, 259.02868604660034, 259.14536595344543, 259.26235795021057, 259.37914299964905, 259.49602484703064, 259.6125018596649, 259.72931599617004, 259.84632897377014, 259.96298599243164, 260.0799958705902, 260.19657588005066, 260.31360697746277, 260.4302170276642, 260.5468978881836, 260.6636629104614, 260.7637040615082, 260.9912688732147]	[256.88740095367564, 257.0040676203423, 257.9870676203423, 258.1537676203423, 258.9037676203423, 259.020434287009, 259.13710095367566, 259.25376762034233, 259.370434287009, 259.4871009536757, 259.60376762034235, 259.720434287009, 259.8371009536757, 259.9537676203424, 260.07043428700905, 260.1871009536757, 260.3037676203424, 260.4204342870091, 260.53710095367575, 260.6537676203424, 260.7704342870091, 261.00376762034244]	2021_Feb_01_1110	59.95383003449169	1	1
17	44	FALSE	NA	v	['K', 'P', 'E', 'M', 'S', 'T', 'N', 'J', 'Y', 'W', 'X', 'C', 'B', 'U', 'A', 'R']	[1122, 1456, 904, 1224, 1731, 1888, 1335, 1029, 2670, 2448, 4000, 829, 760, 2059, 697, 1587]	11	Present	NA	NA	PRESENT	1.1397790908813477	262.9797739982605	264.99028992652893	265.9242169857025	266.2741930484772	269.10763597488403	4.1173460483551025	[262.99969506263733, 263.1162898540497, 264.10085105895996, 264.2675828933716, 265.018278837204, 265.13505697250366, 265.2518630027771, 265.36884903907776, 265.48548889160156, 265.6023828983307, 265.7191379070282, 265.8359899520874, 265.9528479576111, 266.0694818496704, 266.18628692626953, 266.3030650615692, 266.42003202438354, 266.53685092926025, 266.6535768508911, 266.77010893821716, 266.88711404800415, 267.10763788223267]	[263.00376762034244, 263.1204342870091, 264.1034342870091, 264.2701342870091, 265.0201342870091, 265.1368009536758, 265.25346762034246, 265.37013428700914, 265.4868009536758, 265.6034676203425, 265.72013428700916, 265.83680095367583, 265.9534676203425, 266.0701342870092, 266.18680095367586, 266.30346762034253, 266.4201342870092, 266.5368009536759, 266.65346762034255, 266.7701342870092, 266.8868009536759, 267.12013428700925]	2021_Feb_01_1110	59.95383003449169	1	1
17	45	FALSE	NA	v	['B', 'W', 'S', 'M', 'Y', 'G', 'V', 'K', 'P', 'E', 'H', 'R', 'C', 'X', 'A', 'N']	[760, 2448, 1731, 1224, 2670, 944, 2245, 1122, 1456, 904, 986, 1587, 829, 4000, 697, 1335]	14	Present	NA	NA	PRESENT	1.120378017425537	269.10282611846924	271.10669112205505	272.39074897766113	272.7405569553375	275.22400283813477	4.117311716079712	[269.1227469444275, 269.2396309375763, 270.2238428592682, 270.3908920288086, 271.1415898799896, 271.2586009502411, 271.3752679824829, 271.49190306663513, 271.60893201828003, 271.72545194625854, 271.8423080444336, 271.95900797843933, 272.0761568546295, 272.1928038597107, 272.3094599246979, 272.42619800567627, 272.54323506355286, 272.65994596481323, 272.77681493759155, 272.8935708999634, 273.01025891304016, 273.22400283813477]	[269.12013428700925, 269.2368009536759, 270.21980095367593, 270.3865009536759, 271.1365009536759, 271.2531676203426, 271.36983428700927, 271.48650095367594, 271.6031676203426, 271.7198342870093, 271.83650095367597, 271.95316762034264, 272.0698342870093, 272.186500953676, 272.30316762034266, 272.41983428700934, 272.536500953676, 272.6531676203427, 272.76983428700936, 272.88650095367603, 273.0031676203427, 273.23650095367606]	2021_Feb_01_1110	59.95383003449169	1	1
17	46	FALSE	NV	v	['H', 'Y', 'R', 'J', 'B', 'V', 'S', 'G', 'C', 'Z', 'X', 'U', 'N', 'K', 'W', 'T']	[986, 2670, 1587, 1029, 760, 2245, 1731, 944, 829, 2911, 4000, 2059, 1335, 1122, 2448, 1888]	11	Present	NA	NA	PRESENT	0.4775669574737549	275.2259840965271	277.2230911254883	278.156702041626	278.506854057312	281.3403699398041	4.117278814315796	[275.24590706825256, 275.3459599018097, 276.3306088447571, 276.49720096588135, 277.26484990119934, 277.3646910190582, 277.4815318584442, 277.59833002090454, 277.7151310443878, 277.8319249153137, 277.9487500190735, 278.0654969215393, 278.18236684799194, 278.29906606674194, 278.4158959388733, 278.5327298641205, 278.64963483810425, 278.7662169933319, 278.88325786590576, 279.00007796287537, 279.11673283576965, 279.34036898612976]	[275.23650095367606, 275.35316762034273, 276.33616762034274, 276.5028676203427, 277.2528676203427, 277.3695342870094, 277.4862009536761, 277.60286762034275, 277.7195342870094, 277.8362009536761, 277.9528676203428, 278.06953428700945, 278.1862009536761, 278.3028676203428, 278.41953428700947, 278.53620095367614, 278.6528676203428, 278.7695342870095, 278.88620095367617, 279.00286762034284, 279.1195342870095, 279.35286762034286]	2021_Feb_01_1110	59.95383003449169	1	1
17	47	FALSE	NA	v	['U', 'H', 'T', 'S', 'V', 'P', 'W', 'Z', 'N', 'G', 'K', 'R', 'X', 'B', 'J', 'C']	[2059, 986, 1888, 1731, 2245, 1456, 2448, 2911, 1335, 944, 1122, 1587, 4000, 760, 1029, 829]	13	Present	NA	NA	PRESENT	0.5784318447113037	281.3325560092926	283.33975195884705	284.5065281391144	284.8565559387207	287.4567358493805	4.116983890533447	[281.35247683525085, 281.46931505203247, 282.4540169239044, 282.6204340457916, 283.37122797966003, 283.4879059791565, 283.6049120426178, 283.7217860221863, 283.838397026062, 283.955109834671, 284.07205986976624, 284.1889560222626, 284.30550599098206, 284.42230105400085, 284.5392949581146, 284.6559109687805, 284.772775888443, 284.88950991630554, 285.0064549446106, 285.1232678890228, 285.23991203308105, 285.4567358493805]	[281.35286762034286, 281.46953428700954, 282.45253428700954, 282.61923428700953, 283.36923428700953, 283.4859009536762, 283.6025676203429, 283.71923428700956, 283.83590095367623, 283.9525676203429, 284.0692342870096, 284.18590095367625, 284.3025676203429, 284.4192342870096, 284.5359009536763, 284.65256762034295, 284.7692342870096, 284.8859009536763, 285.002567620343, 285.11923428700965, 285.2359009536763, 285.46923428700967]	2021_Feb_01_1110	59.95383003449169	1	1
17	48	FALSE	NV	v	['M', 'H', 'K', 'E', 'B', 'S', 'W', 'U', 'Z', 'T', 'N', 'X', 'Y', 'C', 'A', 'V']	[1224, 986, 1122, 904, 760, 1731, 2448, 2059, 2911, 1888, 1335, 4000, 2670, 829, 697, 2245]	12	Present	NA	NA	PRESENT	0.7270641326904297	287.4558310508728	289.45624113082886	290.5062611103058	290.85619711875916	293.5731029510498	4.116861820220947	[287.47575187683105, 287.59236001968384, 288.5768370628357, 288.74367594718933, 289.4944429397583, 289.61115288734436, 289.7281708717346, 289.8447639942169, 289.961571931839, 290.07865595817566, 290.1953639984131, 290.3120639324188, 290.42865800857544, 290.5455729961395, 290.6623480319977, 290.7791850566864, 290.89607191085815, 291.01285099983215, 291.1296968460083, 291.2464418411255, 291.34656596183777, 291.5731029510498]	[287.46923428700967, 287.58590095367634, 288.56890095367635, 288.73560095367634, 289.48560095367634, 289.602267620343, 289.7189342870097, 289.83560095367636, 289.95226762034304, 290.0689342870097, 290.1856009536764, 290.30226762034306, 290.41893428700973, 290.5356009536764, 290.6522676203431, 290.76893428700976, 290.88560095367643, 291.0022676203431, 291.1189342870098, 291.23560095367645, 291.3522676203431, 291.5856009536765]	2021_Feb_01_1110	59.95383003449169	1	1
17	49	FALSE	NV	v	['N', 'Z', 'P', 'W', 'A', 'C', 'S', 'E', 'B', 'X', 'J', 'U', 'T', 'Y', 'G', 'K']	[1335, 2911, 1456, 2448, 697, 829, 1731, 904, 760, 4000, 1029, 2059, 1888, 2670, 944, 1122]	10	Present	NA	NA	PRESENT	0.1320180892944336	293.5622971057892	295.5722961425781	296.38936495780945	296.73961114883423	299.6894688606262	4.117172718048096	[293.58221793174744, 293.6990659236908, 294.68334794044495, 294.85004591941833, 295.60078287124634, 295.7177720069885, 295.83438086509705, 295.9512770175934, 296.06813287734985, 296.1850929260254, 296.30181789398193, 296.41868805885315, 296.5352249145508, 296.6519739627838, 296.7689440250397, 296.8855490684509, 297.00288701057434, 297.1194179058075, 297.2360818386078, 297.3527829647064, 297.4697070121765, 297.6894700527191]	[293.5856009536765, 293.70226762034315, 294.68526762034315, 294.85196762034315, 295.60196762034315, 295.7186342870098, 295.8353009536765, 295.95196762034317, 296.06863428700984, 296.1853009536765, 296.3019676203432, 296.41863428700987, 296.53530095367654, 296.6519676203432, 296.7686342870099, 296.88530095367656, 297.00196762034324, 297.1186342870099, 297.2353009536766, 297.35196762034326, 297.46863428700993, 297.7019676203433]	2021_Feb_01_1110	59.95383003449169	1	1
17	50	FALSE	NV	v	['T', 'U', 'E', 'R', 'B', 'K', 'V', 'M', 'W', 'C', 'Y', 'P', 'J', 'X', 'G', 'A']	[1888, 2059, 904, 1587, 760, 1122, 2245, 1224, 2448, 829, 2670, 1456, 1029, 4000, 944, 697]	14	Present	NA	NA	PRESENT	1.2087359428405762	299.68542098999023	301.68888092041016	302.9724450111389	303.32225608825684	305.80583691596985	4.116955995559692	[299.70534205436707, 299.82207202911377, 300.8064749240875, 300.97349405288696, 301.7245180606842, 301.84109902381897, 301.9577479362488, 302.0746109485626, 302.1914060115814, 302.30816292762756, 302.4250419139862, 302.54166197776794, 302.65854692459106, 302.77542090415955, 302.8922019004822, 303.0089499950409, 303.1256718635559, 303.2425539493561, 303.3592200279236, 303.47610688209534, 303.59299206733704, 303.80583596229553]	[299.7019676203433, 299.81863428700996, 300.80163428700996, 300.96833428700995, 301.71833428700995, 301.8350009536766, 301.9516676203433, 302.06833428701, 302.18500095367665, 302.3016676203433, 302.41833428701, 302.5350009536767, 302.65166762034335, 302.76833428701, 302.8850009536767, 303.00166762034337, 303.11833428701004, 303.2350009536767, 303.3516676203434, 303.46833428701007, 303.58500095367674, 303.8183342870101]	2021_Feb_01_1110	59.95383003449169	1	1
17	51	FALSE	NV	v	['H', 'T', 'G', 'C', 'U', 'B', 'A', 'J', 'X', 'V', 'S', 'N', 'W', 'P', 'K', 'M']	[986, 1888, 944, 829, 2059, 760, 697, 1029, 4000, 2245, 1731, 1335, 2448, 1456, 1122, 1224]	9	Present	NA	NA	PRESENT	1.5178110599517822	305.79174399375916	307.8048589229584	308.50552892684937	308.85549211502075	311.92220306396484	4.11734414100647	[305.8116638660431, 305.9284899234772, 306.91291904449463, 307.0797929763794, 307.84733295440674, 307.9472990036011, 308.0640959739685, 308.18111205101013, 308.29764795303345, 308.4147310256958, 308.5312478542328, 308.64828991889954, 308.76500701904297, 308.8816659450531, 308.9986460208893, 309.11530804634094, 309.23234701156616, 309.3489270210266, 309.46584486961365, 309.58252000808716, 309.699334859848, 309.92220401763916]	[305.8183342870101, 305.93500095367676, 306.91800095367677, 307.08470095367676, 307.83470095367676, 307.95136762034343, 308.0680342870101, 308.1847009536768, 308.30136762034346, 308.41803428701013, 308.5347009536768, 308.6513676203435, 308.76803428701015, 308.8847009536768, 309.0013676203435, 309.1180342870102, 309.23470095367685, 309.3513676203435, 309.4680342870102, 309.5847009536769, 309.70136762034355, 309.9347009536769]	2021_Feb_01_1110	59.95383003449169	1	1
17	52	FALSE	NN	v	['R', 'U', 'E', 'H', 'A', 'B', 'Z', 'C', 'Y', 'G', 'S', 'N', 'T', 'J', 'V', 'P']	[1587, 2059, 904, 986, 697, 760, 2911, 829, 2670, 944, 1731, 1335, 1888, 1029, 2245, 1456]	14	Absent	NA	NA	ABSENT	1.242581129074097	311.9155340194702	313.92140197753906	315.2050130367279	315.55519008636475	318.0385699272156	4.117167949676514	[311.93545484542847, 312.05181884765625, 313.0364668369293, 313.20316791534424, 313.9538848400116, 314.070515871048, 314.18752098083496, 314.30429196357727, 314.4211599826813, 314.53767800331116, 314.6547529697418, 314.7712960243225, 314.8881869316101, 315.0050449371338, 315.12184500694275, 315.2385070323944, 315.3554060459137, 315.47222089767456, 315.5890738964081, 315.70573687553406, 315.8225898742676, 316.0385699272156]	[311.9347009536769, 312.05136762034357, 313.0343676203436, 313.20106762034357, 313.95106762034357, 314.06773428701024, 314.1844009536769, 314.3010676203436, 314.41773428701026, 314.53440095367694, 314.6510676203436, 314.7677342870103, 314.88440095367696, 315.00106762034363, 315.1177342870103, 315.234400953677, 315.35106762034366, 315.46773428701033, 315.584400953677, 315.7010676203437, 315.81773428701035, 316.0510676203437]	2021_Feb_01_1110	59.95383003449169	1	1
17	53	FALSE	VA	v	['J', 'T', 'M', 'W', 'Y', 'surprise', 'C', 'R', 'X', 'N', 'P', 'U', 'G', 'K', 'Z', 'A']	[1029, 1888, 1224, 2448, 2670, 'stimAuditory/all_stimAuditory/106.wav', 829, 1587, 4000, 1335, 1456, 2059, 944, 1122, 2911, 697]	9	Present	NA	stimVisual/all_stimVisual/103.jpg	PRESENT	0.5757350921630859	318.03829407691956	320.03802514076233	320.73802304267883	321.0880870819092	324.1549370288849	4.116911888122559	[318.0582158565521, 318.1748938560486, 319.15951704978943, 319.3261799812317, 320.07712483406067, 320.19397807121277, 320.3106758594513, 320.42745900154114, 320.54416584968567, 320.66093587875366, 320.77775287628174, 320.89476895332336, 321.01148104667664, 321.1282489299774, 321.24484491348267, 321.36175084114075, 321.47840690612793, 321.5958068370819, 321.7120349407196, 321.82906699180603, 321.9290819168091, 322.1549370288849]	[318.0510676203437, 318.1677342870104, 319.1507342870104, 319.31743428701037, 320.06743428701037, 320.18410095367705, 320.3007676203437, 320.4174342870104, 320.53410095367707, 320.65076762034374, 320.7674342870104, 320.8841009536771, 321.00076762034377, 321.11743428701044, 321.2341009536771, 321.3507676203438, 321.46743428701046, 321.58410095367714, 321.7007676203438, 321.8174342870105, 321.93410095367716, 322.1674342870105]	2021_Feb_01_1110	59.95383003449169	1	1
17	54	FALSE	NN	v	['R', 'P', 'H', 'J', 'W', 'E', 'Y', 'K', 'G', 'Z', 'V', 'N', 'S', 'A', 'C', 'T']	[1587, 1456, 986, 1029, 2448, 904, 2670, 1122, 944, 2911, 2245, 1335, 1731, 697, 829, 1888]	8	Absent	NA	NA	ABSENT	0.9402179718017578	324.14485597610474	326.1540150642395	326.7377369403839	327.08802604675293	330.2713029384613	4.117287874221802	[324.16477704048157, 324.2816069126129, 325.265841960907, 325.43278098106384, 326.18359184265137, 326.3002898693085, 326.4172959327698, 326.5339848995209, 326.6507909297943, 326.7673890590668, 326.88431191444397, 327.001384973526, 327.11799001693726, 327.2345378398895, 327.3513288497925, 327.46816301345825, 327.5850839614868, 327.7019588947296, 327.8185348510742, 327.93549394607544, 328.0523748397827, 328.2713029384613]	[324.1674342870105, 324.2841009536772, 325.2671009536772, 325.4338009536772, 326.1838009536772, 326.30046762034385, 326.4171342870105, 326.5338009536772, 326.6504676203439, 326.76713428701055, 326.8838009536772, 327.0004676203439, 327.1171342870106, 327.23380095367725, 327.3504676203439, 327.4671342870106, 327.58380095367727, 327.70046762034394, 327.8171342870106, 327.9338009536773, 328.05046762034397, 328.2838009536773]	2021_Feb_01_1110	59.95383003449169	1	1
17	55	FALSE	NV	v	['A', 'J', 'M', 'T', 'Z', 'K', 'S', 'H', 'P', 'C', 'V', 'X', 'B', 'R', 'E', 'Y']	[697, 1029, 1224, 1888, 2911, 1122, 1731, 986, 1456, 829, 2245, 4000, 760, 1587, 904, 2670]	12	Present	NA	NA	PRESENT	0.2897980213165283	330.2679169178009	332.2705240249634	333.3208010196686	333.6708359718323	336.3876700401306	4.117146015167236	[330.28783798217773, 330.40469694137573, 331.38920307159424, 331.55636501312256, 332.30674600601196, 332.4237439632416, 332.5403380393982, 332.6571960449219, 332.77389788627625, 332.89073300361633, 333.0074999332428, 333.1242208480835, 333.24097299575806, 333.35774087905884, 333.4744679927826, 333.591591835022, 333.70809602737427, 333.82509183883667, 333.9416799545288, 334.05870604515076, 334.17524790763855, 334.3876700401306]	[330.2838009536773, 330.400467620344, 331.383467620344, 331.550167620344, 332.300167620344, 332.41683428701066, 332.53350095367733, 332.650167620344, 332.7668342870107, 332.88350095367736, 333.00016762034403, 333.1168342870107, 333.2335009536774, 333.35016762034405, 333.4668342870107, 333.5835009536774, 333.7001676203441, 333.81683428701075, 333.9335009536774, 334.0501676203441, 334.1668342870108, 334.4001676203441]	2021_Feb_01_1110	59.95383003449169	1	1
17	56	FALSE	NV	v	['Z', 'J', 'A', 'P', 'B', 'E', 'T', 'N', 'W', 'M', 'K', 'X', 'C', 'U', 'S', 'G']	[2911, 1029, 697, 1456, 760, 904, 1888, 1335, 2448, 1224, 1122, 4000, 829, 2059, 1731, 944]	12	Present	NA	NA	PRESENT	0.6540350914001465	336.3743779659271	338.38655495643616	339.4372510910034	339.78720211982727	342.50403690338135	4.11748194694519	[336.39429783821106, 336.51142287254333, 337.4956889152527, 337.6623799800873, 338.43004298210144, 338.53000688552856, 338.64689803123474, 338.76362895965576, 338.88031101226807, 338.99703001976013, 339.1139109134674, 339.2306640148163, 339.3476278781891, 339.4642310142517, 339.5812129974365, 339.6978380680084, 339.81484389305115, 339.93160605430603, 340.0481209754944, 340.16520500183105, 340.28178906440735, 340.50403785705566]	[336.4001676203441, 336.5168342870108, 337.4998342870108, 337.6665342870108, 338.4165342870108, 338.53320095367746, 338.64986762034414, 338.7665342870108, 338.8832009536775, 338.99986762034416, 339.11653428701084, 339.2332009536775, 339.3498676203442, 339.46653428701086, 339.58320095367753, 339.6998676203442, 339.8165342870109, 339.93320095367756, 340.04986762034423, 340.1665342870109, 340.2832009536776, 340.5165342870109]	2021_Feb_01_1110	59.95383003449169	1	1
17	57	FALSE	NA	v	['R', 'W', 'N', 'T', 'H', 'G', 'A', 'S', 'J', 'C', 'K', 'X', 'E', 'Y', 'M', 'P']	[1587, 2448, 1335, 1888, 986, 944, 697, 1731, 1029, 829, 1122, 4000, 904, 2670, 1224, 1456]	12	Present	NA	NA	PRESENT	0.5145938396453857	342.49792194366455	344.50327801704407	345.5539140701294	345.90353894233704	348.62040400505066	4.117125988006592	[342.5178439617157, 342.6345670223236, 343.6187379360199, 343.78571605682373, 344.5364029407501, 344.6533000469208, 344.7701518535614, 344.8867070674896, 345.0038809776306, 345.12033796310425, 345.2370328903198, 345.35390400886536, 345.47080087661743, 345.58750104904175, 345.7044270038605, 345.8211588859558, 345.9377908706665, 346.05464696884155, 346.17153000831604, 346.28847789764404, 346.40523195266724, 346.620404958725]	[342.5165342870109, 342.6332009536776, 343.6162009536776, 343.7829009536776, 344.5329009536776, 344.64956762034427, 344.76623428701095, 344.8829009536776, 344.9995676203443, 345.11623428701097, 345.23290095367764, 345.3495676203443, 345.466234287011, 345.58290095367767, 345.69956762034434, 345.816234287011, 345.9329009536777, 346.04956762034436, 346.16623428701104, 346.2829009536777, 346.3995676203444, 346.63290095367773]	2021_Feb_01_1110	59.95383003449169	1	1
17	58	FALSE	NV	v	['V', 'B', 'M', 'E', 'T', 'W', 'K', 'Z', 'X', 'A', 'J', 'N', 'U', 'R', 'C', 'P']	[2245, 760, 1224, 904, 1888, 2448, 1122, 2911, 4000, 697, 1029, 1335, 2059, 1587, 829, 1456]	9	Present	NA	NA	PRESENT	0.2801198959350586	348.62104296684265	350.6195340156555	351.3200089931488	351.6699731349945	354.73676896095276	4.117234945297241	[348.64098596572876, 348.75769090652466, 349.7251579761505, 349.8919699192047, 350.6596670150757, 350.7763409614563, 350.89325404167175, 351.01005506515503, 351.12681889533997, 351.2436349391937, 351.36023688316345, 351.4772369861603, 351.5941309928894, 351.71090602874756, 351.81060099601746, 351.9444570541382, 352.04425501823425, 352.1611020565033, 352.2778649330139, 352.3946900367737, 352.51172399520874, 352.73676896095276]	[348.63290095367773, 348.7495676203444, 349.7325676203444, 349.8992676203444, 350.6492676203444, 350.7659342870111, 350.88260095367775, 350.9992676203444, 351.1159342870111, 351.2326009536778, 351.34926762034445, 351.4659342870111, 351.5826009536778, 351.6992676203445, 351.81593428701115, 351.9326009536778, 352.0492676203445, 352.16593428701117, 352.28260095367784, 352.3992676203445, 352.5159342870112, 352.74926762034454]	2021_Feb_01_1110	59.95383003449169	1	1
17	59	FALSE	NV	v	['K', 'R', 'T', 'A', 'P', 'G', 'H', 'B', 'N', 'X', 'V', 'M', 'Y', 'Z', 'J', 'U']	[1122, 1587, 1888, 697, 1456, 944, 986, 760, 1335, 4000, 2245, 1224, 2670, 2911, 1029, 2059]	10	Present	NA	NA	PRESENT	0.3327209949493408	354.72746896743774	356.73595094680786	357.5531311035156	357.9028480052948	360.8531370162964	4.117186069488525	[354.7473888397217, 354.8640339374542, 355.84858202934265, 356.0152189731598, 356.76610589027405, 356.88310503959656, 356.99972891807556, 357.116446018219, 357.23320603370667, 357.349946975708, 357.46692299842834, 357.58376693725586, 357.70056891441345, 357.81734704971313, 357.93390798568726, 358.0510039329529, 358.1677248477936, 358.28455090522766, 358.40103101730347, 358.5180058479309, 358.6349358558655, 358.85313606262207]	[354.74926762034454, 354.8659342870112, 355.8489342870112, 356.0156342870112, 356.7656342870112, 356.8823009536779, 356.99896762034456, 357.11563428701123, 357.2323009536779, 357.3489676203446, 357.46563428701126, 357.58230095367793, 357.6989676203446, 357.8156342870113, 357.93230095367795, 358.0489676203446, 358.1656342870113, 358.282300953678, 358.39896762034465, 358.5156342870113, 358.632300953678, 358.86563428701135]	2021_Feb_01_1110	59.95383003449169	1	1
17	60	FALSE	NV	v	['Y', 'Z', 'R', 'J', 'C', 'P', 'S', 'X', 'H', 'M', 'E', 'U', 'K', 'A', 'W', 'N']	[2670, 2911, 1587, 1029, 829, 1456, 1731, 4000, 986, 1224, 904, 2059, 1122, 697, 2448, 1335]	8	Present	NA	NA	PRESENT	0.38599586486816406	360.850741147995	362.8524429798126	363.4359941482544	363.78583312034607	366.9695019721985	4.117058992385864	[360.8706648349762, 360.98720598220825, 361.9719240665436, 362.13863801956177, 362.8891530036926, 363.00617694854736, 363.1231038570404, 363.23975586891174, 363.35649490356445, 363.4732189178467, 363.58997201919556, 363.70668387413025, 363.8237829208374, 363.9404709339142, 364.05731892585754, 364.1742739677429, 364.2907519340515, 364.4076428413391, 364.5245530605316, 364.6413550376892, 364.7411959171295, 364.9695029258728]	[360.86563428701135, 360.982300953678, 361.965300953678, 362.132000953678, 362.882000953678, 362.9986676203447, 363.11533428701136, 363.23200095367804, 363.3486676203447, 363.4653342870114, 363.58200095367806, 363.69866762034474, 363.8153342870114, 363.9320009536781, 364.04866762034476, 364.16533428701143, 364.2820009536781, 364.3986676203448, 364.51533428701146, 364.63200095367813, 364.7486676203448, 364.98200095367815]	2021_Feb_01_1110	59.95383003449169	1	1
17	61	FALSE	NA	v	['A', 'Y', 'U', 'J', 'M', 'K', 'W', 'X', 'N', 'H', 'E', 'G', 'R', 'T', 'V', 'B']	[697, 2670, 2059, 1029, 1224, 1122, 2448, 4000, 1335, 986, 904, 944, 1587, 1888, 2245, 760]	8	Present	NA	NA	PRESENT	0.5262308120727539	366.9570610523224	368.96849513053894	369.5524971485138	369.90277910232544	373.0858700275421	4.117374897003174	[366.97698402404785, 367.093957901001, 368.0780429840088, 368.24503803253174, 369.0125820636749, 369.1125018596649, 369.22943806648254, 369.3463089466095, 369.46308493614197, 369.5796129703522, 369.6966300010681, 369.81325507164, 369.9301700592041, 370.0476269721985, 370.16380190849304, 370.2806420326233, 370.3973958492279, 370.5140209197998, 370.63106083869934, 370.7475850582123, 370.86433386802673, 371.08587098121643]	[366.98200095367815, 367.0986676203448, 368.08166762034483, 368.2483676203448, 368.9983676203448, 369.1150342870115, 369.23170095367817, 369.34836762034485, 369.4650342870115, 369.5817009536782, 369.69836762034487, 369.81503428701154, 369.9317009536782, 370.0483676203449, 370.16503428701157, 370.28170095367824, 370.3983676203449, 370.5150342870116, 370.63170095367826, 370.74836762034494, 370.8650342870116, 371.09836762034496]	2021_Feb_01_1110	59.95383003449169	1	1
17	62	FALSE	NN	v	['W', 'J', 'R', 'N', 'P', 'Y', 'G', 'S', 'K', 'C', 'Z', 'E', 'A', 'H', 'V', 'T']	[2448, 1029, 1587, 1335, 1456, 2670, 944, 1731, 1122, 829, 2911, 904, 697, 986, 2245, 1888]	10	Absent	NA	NA	ABSENT	0.5950121879577637	373.08037400245667	375.0850200653076	375.90222907066345	376.2527000904083	379.2022368907929	4.1172168254852295	[373.1002960205078, 373.2169020175934, 374.2013020515442, 374.3682680130005, 375.1189980506897, 375.23568987846375, 375.35279297828674, 375.4694859981537, 375.5860788822174, 375.7029469013214, 375.8196949958801, 375.9365499019623, 376.0533289909363, 376.1702630519867, 376.2870030403137, 376.40373706817627, 376.5203800201416, 376.63743805885315, 376.7540819644928, 376.87105989456177, 376.9875719547272, 377.20223784446716]	[373.09836762034496, 373.21503428701163, 374.19803428701164, 374.36473428701163, 375.11473428701163, 375.2314009536783, 375.348067620345, 375.46473428701165, 375.5814009536783, 375.698067620345, 375.8147342870117, 375.93140095367835, 376.048067620345, 376.1647342870117, 376.28140095367837, 376.39806762034505, 376.5147342870117, 376.6314009536784, 376.74806762034507, 376.86473428701174, 376.9814009536784, 377.21473428701177]	2021_Feb_01_1110	59.95383003449169	1	1
17	63	FALSE	NA	v	['E', 'K', 'G', 'W', 'Y', 'U', 'T', 'V', 'M', 'B', 'Z', 'C', 'X', 'S', 'R', 'N']	[904, 1122, 944, 2448, 2670, 2059, 1888, 2245, 1224, 760, 2911, 829, 4000, 1731, 1587, 1335]	13	Present	NA	NA	ABSENT	0.7441811561584473	379.2036919593811	381.2012150287628	382.3682849407196	382.7185609340668	385.31860399246216	4.117388963699341	[379.22361302375793, 379.32338786125183, 380.30769300460815, 380.4745719432831, 381.24229097366333, 381.3590638637543, 381.4589400291443, 381.5930290222168, 381.69261384010315, 381.80927896499634, 381.9260878562927, 382.0428309440613, 382.15972995758057, 382.27644205093384, 382.393257856369, 382.5101180076599, 382.62686491012573, 382.74364495277405, 382.8604600429535, 382.97725892066956, 383.09430384635925, 383.31860399246216]	[379.21473428701177, 379.33140095367844, 380.31440095367844, 380.48110095367844, 381.23110095367844, 381.3477676203451, 381.4644342870118, 381.58110095367846, 381.69776762034513, 381.8144342870118, 381.9311009536785, 382.04776762034516, 382.16443428701183, 382.2811009536785, 382.3977676203452, 382.51443428701185, 382.6311009536785, 382.7477676203452, 382.8644342870119, 382.98110095367855, 383.0977676203452, 383.3311009536786]	2021_Feb_01_1110	59.95383003449169	1	1
17	64	FALSE	NV	v	['B', 'T', 'R', 'Y', 'J', 'V', 'G', 'A', 'C', 'X', 'N', 'M', 'E', 'K', 'U', 'W']	[760, 1888, 1587, 2670, 1029, 2245, 944, 697, 829, 4000, 1335, 1224, 904, 1122, 2059, 2448]	10	Present	NA	NA	PRESENT	0.7489120960235596	385.3101689815521	387.31781101226807	388.13465213775635	388.4853949546814	391.4349699020386	4.117158889770508	[385.33009004592896, 385.4465379714966, 386.4308979511261, 386.5980260372162, 387.3488030433655, 387.4653859138489, 387.582398891449, 387.6992619037628, 387.81592297554016, 387.9325749874115, 388.0493850708008, 388.1663348674774, 388.28293895721436, 388.39968085289, 388.5165309906006, 388.6334419250488, 388.7501468658447, 388.8669250011444, 388.9837849140167, 389.10071992874146, 389.21727991104126, 389.4349699020386]	[385.3311009536786, 385.44776762034525, 386.43076762034525, 386.59746762034524, 387.34746762034524, 387.4641342870119, 387.5808009536786, 387.69746762034526, 387.81413428701194, 387.9308009536786, 388.0474676203453, 388.16413428701196, 388.28080095367864, 388.3974676203453, 388.514134287012, 388.63080095367866, 388.74746762034533, 388.864134287012, 388.9808009536787, 389.09746762034536, 389.21413428701203, 389.4474676203454]	2021_Feb_01_1110	59.95383003449169	1	1
17	65	FALSE	AV	v	['V', 'Y', 'T', 'N', 'Z', 'A', 'P', 'surprise', 'S', 'K', 'X', 'W', 'H', 'E', 'R', 'C']	[2245, 2670, 1888, 1335, 2911, 697, 1456, 'stimAuditory/all_stimAuditory/122.wav', 1731, 1122, 4000, 2448, 986, 904, 1587, 829]	11	Present	stimAuditory/all_stimAuditory/222.wav	stimVisual/all_stimVisual/208.jpg	PRESENT	0.49835896492004395	391.43326592445374	393.4343240261078	394.36820697784424	394.7176561355591	397.5513370037079	4.117012977600098	[391.4531989097595, 391.5702750682831, 392.5541009902954, 392.72109484672546, 393.47196888923645, 393.58882188796997, 393.7055790424347, 393.8222830295563, 393.93921089172363, 394.0559480190277, 394.17272686958313, 394.2895760536194, 394.4060389995575, 394.52314591407776, 394.6397669315338, 394.7566819190979, 394.8733069896698, 394.9901120662689, 395.10707688331604, 395.2238199710846, 395.3236839771271, 395.5513379573822]	[391.4474676203454, 391.56413428701205, 392.54713428701206, 392.71383428701205, 393.46383428701205, 393.5805009536787, 393.6971676203454, 393.81383428701207, 393.93050095367875, 394.0471676203454, 394.1638342870121, 394.28050095367877, 394.39716762034544, 394.5138342870121, 394.6305009536788, 394.74716762034546, 394.86383428701214, 394.9805009536788, 395.0971676203455, 395.21383428701216, 395.33050095367884, 395.5638342870122]	2021_Feb_01_1110	59.95383003449169	1	1
17	66	FALSE	NN	v	['E', 'N', 'C', 'A', 'M', 'H', 'B', 'J', 'Z', 'R', 'T', 'Y', 'K', 'W', 'V', 'U']	[904, 1335, 829, 697, 1224, 986, 760, 1029, 2911, 1587, 1888, 2670, 1122, 2448, 2245, 2059]	8	Absent	NA	NA	ABSENT	0.6383411884307861	397.5396771430969	399.5505681037903	400.1342670917511	400.4842391014099	403.6677029132843	4.1171348094940186	[397.5595979690552, 397.67625403404236, 398.6606779098511, 398.8275978565216, 399.57833099365234, 399.69509196281433, 399.8121008872986, 399.9288818836212, 400.0460889339447, 400.16235184669495, 400.2790319919586, 400.3958148956299, 400.5126540660858, 400.6295440196991, 400.7463788986206, 400.86291098594666, 400.9797570705414, 401.09675097465515, 401.2135510444641, 401.3303699493408, 401.4470748901367, 401.6677038669586]	[397.5638342870122, 397.68050095367886, 398.66350095367886, 398.83020095367885, 399.58020095367885, 399.69686762034553, 399.8135342870122, 399.9302009536789, 400.04686762034555, 400.1635342870122, 400.2802009536789, 400.3968676203456, 400.51353428701225, 400.6302009536789, 400.7468676203456, 400.86353428701227, 400.98020095367895, 401.0968676203456, 401.2135342870123, 401.33020095367897, 401.44686762034564, 401.680200953679]	2021_Feb_01_1110	59.95383003449169	1	1
17	67	FALSE	NV	v	['J', 'P', 'H', 'U', 'A', 'G', 'M', 'X', 'C', 'Z', 'Y', 'K', 'E', 'R', 'B', 'S']	[1029, 1456, 986, 2059, 697, 944, 1224, 4000, 829, 2911, 2670, 1122, 904, 1587, 760, 1731]	8	Present	NA	NA	PRESENT	0.4193089008331299	403.66296696662903	405.6668519973755	406.250559091568	406.6005370616913	409.7840700149536	4.117218017578125	[403.68288803100586, 403.7995970249176, 404.78382301330566, 404.9507598876953, 405.70153403282166, 405.8184189796448, 405.9352560043335, 406.0520820617676, 406.1688539981842, 406.2856559753418, 406.4024260044098, 406.5191719532013, 406.6359848976135, 406.75276494026184, 406.86941385269165, 406.9864089488983, 407.10299706459045, 407.2199728488922, 407.33675384521484, 407.453439950943, 407.57019805908203, 407.7840690612793]	[403.680200953679, 403.79686762034567, 404.77986762034567, 404.94656762034566, 405.69656762034566, 405.81323428701234, 405.929900953679, 406.0465676203457, 406.16323428701236, 406.27990095367903, 406.3965676203457, 406.5132342870124, 406.62990095367905, 406.74656762034573, 406.8632342870124, 406.9799009536791, 407.09656762034575, 407.2132342870124, 407.3299009536791, 407.4465676203458, 407.56323428701245, 407.7965676203458]	2021_Feb_01_1110	59.95383003449169	1	1
17	68	FALSE	VA	v	['W', 'J', 'M', 'K', 'Y', 'U', 'V', 'E', 'surprise', 'S', 'Z', 'X', 'N', 'P', 'A', 'H']	[2448, 1029, 1224, 1122, 2670, 2059, 2245, 904, 'stimAuditory/all_stimAuditory/109.wav', 1731, 2911, 4000, 1335, 1456, 697, 986]	12	Present	NA	stimVisual/all_stimVisual/105.jpg	PRESENT	0.8006839752197266	409.7691309452057	411.7832279205322	412.8337209224701	413.18350410461426	415.90043687820435	4.117208957672119	[409.7890520095825, 409.905935049057, 410.8904778957367, 411.0572319030762, 411.8250620365143, 411.92473697662354, 412.0415949821472, 412.15835905075073, 412.2751569747925, 412.39199900627136, 412.5087299346924, 412.6254720687866, 412.75910902023315, 412.85910296440125, 412.97616696357727, 413.0926959514618, 413.20943999290466, 413.3263900279999, 413.44319105148315, 413.55990290641785, 413.67678904533386, 413.90043687820435]	[409.7965676203458, 409.9132342870125, 410.8962342870125, 411.06293428701247, 411.81293428701247, 411.92960095367914, 412.0462676203458, 412.1629342870125, 412.27960095367916, 412.39626762034584, 412.5129342870125, 412.6296009536792, 412.74626762034586, 412.86293428701254, 412.9796009536792, 413.0962676203459, 413.21293428701256, 413.32960095367923, 413.4462676203459, 413.5629342870126, 413.67960095367926, 413.9129342870126]	2021_Feb_01_1110	59.95383003449169	1	1
17	69	FALSE	NA	v	['B', 'S', 'G', 'V', 'P', 'H', 'N', 'C', 'J', 'U', 'E', 'X', 'Y', 'M', 'R', 'K']	[760, 1731, 944, 2245, 1456, 986, 1335, 829, 1029, 2059, 904, 4000, 2670, 1224, 1587, 1122]	12	Present	NA	NA	PRESENT	0.6850888729095459	415.89261507987976	417.89951515197754	418.94979310035706	419.3000919818878	422.01680397987366	4.117288827896118	[415.912535905838, 416.0291769504547, 417.0136818885803, 417.1805510520935, 417.9312880039215, 418.0481159687042, 418.16500902175903, 418.2818009853363, 418.3983328342438, 418.51533699035645, 418.6319739818573, 418.7489449977875, 418.8656919002533, 418.9823000431061, 419.0991539955139, 419.2160120010376, 419.33285999298096, 419.4496259689331, 419.566251039505, 419.6829960346222, 419.7998900413513, 420.01680397987366]	[415.9129342870126, 416.0296009536793, 417.0126009536793, 417.1793009536793, 417.9293009536793, 418.04596762034595, 418.1626342870126, 418.2793009536793, 418.39596762034597, 418.51263428701265, 418.6293009536793, 418.745967620346, 418.86263428701267, 418.97930095367934, 419.095967620346, 419.2126342870127, 419.32930095367936, 419.44596762034604, 419.5626342870127, 419.6793009536794, 419.79596762034606, 420.0293009536794]	2021_Feb_01_1110	59.95383003449169	1	1
17	70	FALSE	NN	v	['Y', 'Z', 'T', 'P', 'S', 'C', 'H', 'G', 'W', 'K', 'N', 'B', 'R', 'E', 'V', 'U']	[2670, 2911, 1888, 1456, 1731, 829, 986, 944, 2448, 1122, 1335, 760, 1587, 904, 2245, 2059]	11	Absent	NA	NA	ABSENT	0.5625710487365723	422.0162091255188	424.0156750679016	424.94960498809814	425.29960799217224	428.1331698894501	4.117494821548462	[422.03613090515137, 422.152291059494, 423.13677501678467, 423.3038499355316, 424.0545349121094, 424.17130398750305, 424.2879660129547, 424.40469193458557, 424.52167105674744, 424.6384389400482, 424.7553069591522, 424.87201595306396, 424.9889419078827, 425.1056978702545, 425.2224180698395, 425.33907294273376, 425.45602583885193, 425.572674036026, 425.68949604034424, 425.8065059185028, 425.90651202201843, 426.1331698894501]	[422.0293009536794, 422.1459676203461, 423.1289676203461, 423.2956676203461, 424.0456676203461, 424.16233428701275, 424.27900095367943, 424.3956676203461, 424.5123342870128, 424.62900095367945, 424.7456676203461, 424.8623342870128, 424.9790009536795, 425.09566762034615, 425.2123342870128, 425.3290009536795, 425.44566762034617, 425.56233428701285, 425.6790009536795, 425.7956676203462, 425.91233428701287, 426.1456676203462]	2021_Feb_01_1110	59.95383003449169	1	1
17	71	FALSE	VV	v	['M', 'J', 'A', 'R', 'E', 'T', 'Z', 'S', 'G', 'B', 'surprise', 'P', 'U', 'X', 'W', 'N']	[1224, 1029, 697, 1587, 904, 1888, 2911, 1731, 944, 760, 'stimAuditory/all_stimAuditory/112.wav', 1456, 2059, 4000, 2448, 1335]	14	Present	NA	stimVisual/all_stimVisual/106.jpg	PRESENT	0.7110600471496582	428.1222770214081	430.1323881149292	431.4160189628601	431.76593708992	434.2495369911194	4.1171488761901855	[428.14219784736633, 428.2590079307556, 429.2432589530945, 429.41019797325134, 430.16088795661926, 430.27799701690674, 430.3946359157562, 430.51129388809204, 430.6280908584595, 430.74504590034485, 430.8618199825287, 430.9786288738251, 431.095321893692, 431.212121963501, 431.3454179763794, 431.4456670284271, 431.56270003318787, 431.67910289764404, 431.7962169647217, 431.9128680229187, 432.0297598838806, 432.2495369911194]	[428.1456676203462, 428.2623342870129, 429.2453342870129, 429.4120342870129, 430.1620342870129, 430.27870095367956, 430.39536762034624, 430.5120342870129, 430.6287009536796, 430.74536762034626, 430.86203428701293, 430.9787009536796, 431.0953676203463, 431.21203428701295, 431.32870095367963, 431.4453676203463, 431.562034287013, 431.67870095367965, 431.7953676203463, 431.912034287013, 432.0287009536797, 432.262034287013]	2021_Feb_01_1110	59.95383003449169	1	1
17	72	FALSE	NV	v	['Y', 'G', 'M', 'N', 'C', 'B', 'U', 'W', 'R', 'P', 'T', 'X', 'E', 'J', 'V', 'H']	[2670, 944, 1224, 1335, 829, 760, 2059, 2448, 1587, 1456, 1888, 4000, 904, 1029, 2245, 986]	12	Present	NA	NA	PRESENT	0.6437480449676514	434.245521068573	436.24855613708496	437.2988929748535	437.6489999294281	440.3659019470215	4.117345809936523	[434.26544189453125, 434.3820719718933, 435.3664219379425, 435.53318095207214, 436.28407192230225, 436.40105986595154, 436.5179660320282, 436.63461899757385, 436.7512860298157, 436.86820006370544, 436.9849679470062, 437.1017589569092, 437.21872997283936, 437.33517384529114, 437.45226287841797, 437.5688419342041, 437.685564994812, 437.8022840023041, 437.91930103302, 438.0358638763428, 438.1528718471527, 438.3659019470215]	[434.262034287013, 434.3787009536797, 435.3617009536797, 435.5284009536797, 436.2784009536797, 436.39506762034637, 436.51173428701304, 436.6284009536797, 436.7450676203464, 436.86173428701306, 436.97840095367974, 437.0950676203464, 437.2117342870131, 437.32840095367976, 437.44506762034644, 437.5617342870131, 437.6784009536798, 437.79506762034646, 437.91173428701313, 438.0284009536798, 438.1450676203465, 438.37840095367983]	2021_Feb_01_1110	59.95383003449169	1	1
17	73	FALSE	NN	v	['T', 'H', 'M', 'G', 'Z', 'A', 'E', 'V', 'W', 'K', 'C', 'S', 'Y', 'R', 'P', 'N']	[1888, 986, 1224, 944, 2911, 697, 904, 2245, 2448, 1122, 829, 1731, 2670, 1587, 1456, 1335]	13	Absent	NA	NA	ABSENT	0.9769890308380128	440.35183906555176	442.3649251461029	443.5321171283722	443.8819329738617	446.4822700023651	4.117344856262207	[440.3717839717865, 440.4885079860687, 441.4730689525604, 441.64021492004395, 442.40722584724426, 442.50735092163086, 442.6243588924408, 442.74088406562805, 442.8579318523407, 442.97451996803284, 443.09152698516846, 443.2081530094147, 443.32490396499634, 443.4417350292206, 443.5583679676056, 443.67526602745056, 443.792032957077, 443.9087610244751, 444.0255608558655, 444.14251685142517, 444.259388923645, 444.4822700023651]	[440.37840095367983, 440.4950676203465, 441.4780676203465, 441.6447676203465, 442.3947676203465, 442.5114342870132, 442.62810095367985, 442.7447676203465, 442.8614342870132, 442.97810095367987, 443.09476762034654, 443.2114342870132, 443.3281009536799, 443.44476762034657, 443.56143428701324, 443.6781009536799, 443.7947676203466, 443.91143428701326, 444.02810095367994, 444.1447676203466, 444.2614342870133, 444.49476762034664]	2021_Feb_01_1110	59.95383003449169	1	1
17	74	FALSE	NA	v	['M', 'G', 'E', 'P', 'Y', 'J', 'S', 'T', 'X', 'N', 'B', 'R', 'W', 'A', 'Z', 'H']	[1224, 944, 904, 1456, 2670, 1029, 1731, 1888, 4000, 1335, 760, 1587, 2448, 697, 2911, 986]	9	Present	NA	NA	PRESENT	0.4133880138397217	446.4752810001374	448.4815990924835	449.1816790103912	449.5321259498596	452.59863686561584	4.117037773132324	[446.49520206451416, 446.6117808818817, 447.5963568687439, 447.7630739212036, 448.51379799842834, 448.63072991371155, 448.74734687805176, 448.86443996429443, 448.9811089038849, 449.0979058742523, 449.21444296836853, 449.33146595954895, 449.44832396507263, 449.5651659965515, 449.6818449497223, 449.79857993125916, 449.9153690338135, 450.03230690956116, 450.14890599250793, 450.265830039978, 450.38261890411377, 450.59863805770874]	[446.49476762034664, 446.6114342870133, 447.5944342870133, 447.7611342870133, 448.5111342870133, 448.62780095368, 448.74446762034665, 448.86113428701333, 448.97780095368, 449.0944676203467, 449.21113428701335, 449.32780095368, 449.4444676203467, 449.5611342870134, 449.67780095368005, 449.7944676203467, 449.9111342870134, 450.02780095368007, 450.14446762034675, 450.2611342870134, 450.3778009536801, 450.61113428701344]	2021_Feb_01_1110	59.95383003449169	1	1
17	75	FALSE	NA	v	['C', 'K', 'V', 'Y', 'S', 'Z', 'T', 'G', 'X', 'H', 'W', 'P', 'R', 'A', 'B', 'N']	[829, 1122, 2245, 2670, 1731, 2911, 1888, 944, 4000, 986, 2448, 1456, 1587, 697, 760, 1335]	9	Present	NA	NA	ABSENT	1.3225059509277344	452.5986940860748	454.5977261066437	455.2981929779053	455.6481080055237	458.7150039672851	4.1172778606414795	[452.6186158657074, 452.7350490093231, 453.7195608615875, 453.86929988861084, 454.6370220184326, 454.7538800239563, 454.87071084976196, 454.98730206489563, 455.10406494140625, 455.2211449146271, 455.3376579284668, 455.45479583740234, 455.57152700424194, 455.6883590221405, 455.80492186546326, 455.92183899879456, 456.0383839607239, 456.1552128791809, 456.272127866745, 456.388799905777, 456.4891040325165, 456.7150049209595]	[452.61113428701344, 452.7278009536801, 453.7108009536801, 453.8775009536801, 454.6275009536801, 454.7441676203468, 454.86083428701346, 454.97750095368013, 455.0941676203468, 455.2108342870135, 455.32750095368016, 455.44416762034683, 455.5608342870135, 455.6775009536802, 455.79416762034685, 455.91083428701353, 456.0275009536802, 456.1441676203469, 456.26083428701355, 456.3775009536802, 456.4941676203469, 456.72750095368025]	2021_Feb_01_1110	59.95383003449169	1	1
17	76	FALSE	AA	v	['B', 'V', 'S', 'A', 'H', 'N', 'M', 'surprise', 'W', 'Z', 'X', 'E', 'T', 'G', 'Y', 'J']	[760, 2245, 1731, 697, 986, 1335, 1224, 'stimAuditory/all_stimAuditory/108.wav', 2448, 2911, 4000, 904, 1888, 944, 2670, 1029]	11	Present	stimAuditory/all_stimAuditory/208.wav	stimVisual/all_stimVisual/203.jpg	PRESENT	0.27930688858032227	458.7048909664154	460.7139949798584	461.6478300094605	461.9978709220886	464.8313698768616	4.117374897003174	[458.72481203079224, 458.8415460586548, 459.82586097717285, 459.99282598495483, 460.74353098869324, 460.8604328632355, 460.9771890640259, 461.0938799381256, 461.21075797080994, 461.32745385169983, 461.4442298412323, 461.5778260231018, 461.6779589653015, 461.7948269844055, 461.9114348888397, 462.0281958580017, 462.14513301849365, 462.2619059085846, 462.37850403785706, 462.49544286727905, 462.612673997879, 462.83136892318726]	[458.72750095368025, 458.8441676203469, 459.8271676203469, 459.9938676203469, 460.7438676203469, 460.8605342870136, 460.97720095368027, 461.09386762034694, 461.2105342870136, 461.3272009536803, 461.44386762034696, 461.56053428701364, 461.6772009536803, 461.793867620347, 461.91053428701366, 462.02720095368034, 462.143867620347, 462.2605342870137, 462.37720095368036, 462.49386762034703, 462.6105342870137, 462.84386762034705]	2021_Feb_01_1110	59.95383003449169	1	1
17	77	FALSE	NV	v	['K', 'T', 'C', 'V', 'Z', 'M', 'U', 'E', 'R', 'N', 'P', 'H', 'X', 'A', 'S', 'J']	[1122, 1888, 829, 2245, 2911, 1224, 2059, 904, 1587, 1335, 1456, 986, 4000, 697, 1731, 1029]	13	Present	NA	NA	PRESENT	0.4117610454559326	464.82804107666016	466.8304719924927	467.9976069927216	468.3474450111389	470.9477369785309	4.117264986038208	[464.8479619026184, 464.9645709991455, 465.9492528438568, 466.11581802368164, 466.86665987968445, 466.9835739135742, 467.10050201416016, 467.2170009613037, 467.3340280056, 467.45084500312805, 467.5675120353699, 467.68437790870667, 467.80109906196594, 467.91801285743713, 468.03481698036194, 468.15133690834045, 468.26813793182373, 468.3849959373474, 468.50190806388855, 468.61873292922974, 468.7354040145874, 468.94773602485657]	[464.84386762034705, 464.96053428701373, 465.94353428701373, 466.1102342870137, 466.8602342870137, 466.9769009536804, 467.0935676203471, 467.21023428701375, 467.3269009536804, 467.4435676203471, 467.56023428701377, 467.67690095368044, 467.7935676203471, 467.9102342870138, 468.02690095368047, 468.14356762034714, 468.2602342870138, 468.3769009536805, 468.49356762034716, 468.61023428701384, 468.7269009536805, 468.96023428701386]	2021_Feb_01_1110	59.95383003449169	1	1
17	78	FALSE	NV	v	['H', 'P', 'J', 'R', 'G', 'B', 'Z', 'T', 'A', 'X', 'S', 'W', 'E', 'K', 'U', 'V']	[986, 1456, 1029, 1587, 944, 760, 2911, 1888, 697, 4000, 1731, 2448, 904, 1122, 2059, 2245]	10	Present	NA	NA	PRESENT	0.7289509773254395	470.9345281124115	472.9469139575958	473.7638931274414	474.1143610477447	477.0641028881073	4.117188930511475	[470.95444893836975, 471.07106590270996, 472.05554604530334, 472.22232699394226, 472.99015498161316, 473.08994793891907, 473.206750869751, 473.3235740661621, 473.44041085243225, 473.5570778846741, 473.67411184310913, 473.79081988334656, 473.9075849056244, 474.0244119167328, 474.14101791381836, 474.2579839229584, 474.3747229576111, 474.491553068161, 474.60816192626953, 474.7251479625702, 474.8420250415802, 475.0641038417816]	[470.96023428701386, 471.07690095368054, 472.05990095368054, 472.22660095368053, 472.97660095368053, 473.0932676203472, 473.2099342870139, 473.32660095368055, 473.4432676203472, 473.5599342870139, 473.6766009536806, 473.79326762034725, 473.9099342870139, 474.0266009536806, 474.1432676203473, 474.25993428701395, 474.3766009536806, 474.4932676203473, 474.60993428701397, 474.72660095368065, 474.8432676203473, 475.07660095368067]	2021_Feb_01_1110	59.95383003449169	1	1
17	79	FALSE	NN	v	['Z', 'A', 'K', 'C', 'M', 'Y', 'H', 'P', 'E', 'U', 'B', 'R', 'T', 'J', 'W', 'S']	[2911, 697, 1122, 829, 1224, 2670, 986, 1456, 904, 2059, 760, 1587, 1888, 1029, 2448, 1731]	14	Absent	NA	NA	ABSENT	0.6135139465332031	477.05780506134033	479.06318402290344	480.3467700481415	480.69692397117615	483.1804699897766	4.117285966873169	[477.07773900032043, 477.1942639350891, 478.17875504493713, 478.34550499916077, 479.09628796577454, 479.2131998538971, 479.3300738334656, 479.4467890262604, 479.56368589401245, 479.68046402931213, 479.79703998565674, 479.9140348434448, 480.030709028244, 480.1474120616913, 480.2642459869385, 480.38124895095825, 480.49784088134766, 480.6148419380188, 480.73161005973816, 480.8482048511505, 480.96519684791565, 481.1804699897766]	[477.07660095368067, 477.19326762034734, 478.17626762034735, 478.34296762034734, 479.09296762034734, 479.209634287014, 479.3263009536807, 479.44296762034736, 479.55963428701403, 479.6763009536807, 479.7929676203474, 479.90963428701406, 480.02630095368073, 480.1429676203474, 480.2596342870141, 480.37630095368075, 480.49296762034743, 480.6096342870141, 480.7263009536808, 480.84296762034745, 480.9596342870141, 481.1929676203475]	2021_Feb_01_1110	59.95383003449169	1	1
