participant	trial_num	practice	task	condition	RSVP	RAP	probePos	probe_presence	surprise_sound	surprise_img	probe_response	probe_resp_time	first_fixation_time	trial_start_time	surprise_start_time	probe_start_time	trial_end_time	trial_duration	actualEventTimes	plannedEventTimes	date	framerate	marker_vol	RAP_vol
29	1	FALSE	NV	a	['C', 'Z', 'V', 'G', 'N', 'K', 'B', 'U', 'X', 'S', 'P', 'A', 'R', 'W', 'H', 'M']	[829, 2911, 2245, 944, 1335, 1122, 760, 2059, 4000, 1731, 1456, 697, 1587, 2448, 986, 1224]	9	Present	NA	NA	PRESENT	0.4260051250457764	3.0994415283203125e-6	1.9977760314941408	2.697786045034463	3.0477879523630955	6.103869915008545	4.106093883514404	[0.012312889099121094, 0.1122589111328125, 1.087190866470337, 1.263840913772583, 2.031141996383667, 2.1311099529266357, 2.247891902923584, 2.3647890090942383, 2.4816319942474365, 2.5983388423919678, 2.7150719165802, 2.8317627906799316, 2.948730945587158, 3.065426826477051, 3.182101011276245, 3.2990407943725586, 3.4157278537750244, 3.5327107906341553, 3.6494147777557373, 3.766267776489258, 3.8828189373016357, 4.103870868682861]	[1.9073486328125e-06, 0.11666857400863281, 1.0996685740086327, 1.2663685740086328, 2.0163685740086326, 2.1330352406686326, 2.2497019073286326, 2.3663685739886327, 2.4830352406486327, 2.5997019073086327, 2.7163685739686327, 2.8330352406286328, 2.949701907288633, 3.066368573948633, 3.183035240608633, 3.299701907268633, 3.416368573928633, 3.533035240588633, 3.649701907248633, 3.766368573908633, 3.883035240568633, 4.116368573901966]	2021_Feb_10_1256	59.89749331307382	1	0.375
29	2	FALSE	NA	a	['K', 'N', 'P', 'H', 'A', 'E', 'C', 'X', 'B', 'G', 'R', 'M', 'J', 'S', 'Y', 'W']	[1122, 1335, 1456, 986, 697, 904, 829, 4000, 760, 944, 1587, 1224, 1029, 1731, 2670, 2448]	8	Present	NA	NA	PRESENT	0.6066601276397705	6.106426000595093	8.110368013381958	8.693709452913648	9.04371136024228	12.220236778259276	4.109868764877319	[6.118736982345581, 6.23544979095459, 7.203558921813965, 7.3867738246917725, 8.137501955032349, 8.25431489944458, 8.370998859405518, 8.48789095878601, 8.604712009429932, 8.721337795257568, 8.838182926177979, 8.955271005630493, 9.071834802627563, 9.188549995422363, 9.305263996124268, 9.422170877456665, 9.538867950439453, 9.655833959579468, 9.772547960281372, 9.889209985733032, 10.006038904190063, 10.220236778259277]	[6.116368573901966, 6.233035240561966, 7.216035240561966, 7.382735240561965, 8.132735240561965, 8.249401907221966, 8.366068573881966, 8.482735240541967, 8.599401907201967, 8.716068573861968, 8.832735240521968, 8.949401907181969, 9.066068573841969, 9.18273524050197, 9.29940190716197, 9.41606857382197, 9.532735240481971, 9.649401907141971, 9.766068573801972, 9.882735240461972, 9.999401907121973, 10.232735240455305]	2021_Feb_10_1256	59.89749331307382	1	0.375
29	3	FALSE	NA	a	['W', 'A', 'P', 'E', 'T', 'Y', 'B', 'Z', 'X', 'S', 'R', 'H', 'C', 'N', 'J', 'U']	[2448, 697, 1456, 904, 1888, 2670, 760, 2911, 4000, 1731, 1587, 986, 829, 1335, 1029, 2059]	9	Present	NA	NA	PRESENT	0.19594907760620117	12.229485034942629	14.227356910705566	14.92736406322294	15.27736692422589	18.336602926254272	4.109246015548706	[12.24179482460022, 12.34180498123169, 13.31992483139038, 13.493046998977661, 14.26065993309021, 14.3605477809906, 14.4775869846344, 14.594174861907959, 14.711195945739746, 14.827825784683228, 14.944731950759888, 15.061389923095703, 15.177994012832642, 15.294782876968384, 15.411777973175049, 15.528609991073608, 15.645365953445435, 15.762213945388794, 15.878919839859009, 15.995737791061401, 16.112661838531494, 16.336602926254272]	[12.232735240455305, 12.349401907115306, 13.332401907115306, 13.499101907115307, 14.249101907115307, 14.365768573775307, 14.482435240435308, 14.599101907095308, 14.715768573755309, 14.83243524041531, 14.94910190707531, 15.06576857373531, 15.18243524039531, 15.299101907055311, 15.415768573715312, 15.532435240375312, 15.649101907035313, 15.765768573695313, 15.882435240355314, 15.999101907015314, 16.115768573675314, 16.34910190700865]	2021_Feb_10_1256	59.89749331307382	1	0.375
29	4	FALSE	NA	a	['W', 'C', 'T', 'S', 'Y', 'Z', 'U', 'B', 'M', 'R', 'X', 'G', 'A', 'H', 'P', 'K']	[2448, 829, 1888, 1731, 2670, 2911, 2059, 760, 1224, 1587, 4000, 944, 697, 986, 1456, 1122]	11	Present	NA	NA	PRESENT	0.2565178871154785	18.335931062698364	20.3435800075531	21.27692144706479	21.626923354393423	24.4529709815979	4.1093909740448	[18.348240852355957, 18.465250968933105, 19.436291933059692, 19.61622381210327, 20.367000818252563, 20.483762979507446, 20.6007559299469, 20.717458963394165, 20.834088802337646, 20.95094895362854, 21.067718982696533, 21.18466591835022, 21.30120086669922, 21.41817879676819, 21.534897804260254, 21.651771783828735, 21.76842999458313, 21.885257959365845, 22.00200891494751, 22.118932962417603, 22.235651969909668, 22.452969789505005]	[18.34910190700865, 18.465768573668647, 19.448768573668648, 19.615468573668647, 20.365468573668647, 20.482135240328645, 20.598801906988644, 20.715468573648643, 20.83213524030864, 20.94880190696864, 21.06546857362864, 21.182135240288638, 21.298801906948636, 21.415468573608635, 21.532135240268634, 21.648801906928632, 21.76546857358863, 21.88213524024863, 21.99880190690863, 22.115468573568627, 22.232135240228626, 22.46546857356196]	2021_Feb_10_1256	59.89749331307382	1	0.375
29	5	FALSE	NN	a	['C', 'K', 'W', 'H', 'M', 'Y', 'T', 'S', 'V', 'A', 'J', 'U', 'R', 'P', 'E', 'G']	[829, 1122, 2448, 986, 1224, 2670, 1888, 1731, 2245, 697, 1029, 2059, 1587, 1456, 904, 944]	11	Absent	NA	NA	ABSENT	0.221912145614624	24.459139108657837	26.45949912071228	27.39283936813107	27.742841275459707	30.569336891174316	4.109837770462036	[24.471457958221436, 24.587947845458984, 25.55265784263611, 25.73912286758423, 26.490023851394653, 26.607061862945557, 26.723876953125, 26.84062886238098, 26.940415859222412, 27.05718684196472, 27.17399001121521, 27.29083490371704, 27.40759778022766, 27.5243558883667, 27.641151905059814, 27.757903814315796, 27.87475299835205, 27.991551876068115, 28.10830593109131, 28.225250959396362, 28.341938972473145, 28.569336891174316]	[24.46546857356196, 24.58213524022196, 25.56513524022196, 25.731835240221958, 26.481835240221958, 26.598501906881957, 26.715168573541956, 26.831835240201954, 26.948501906861953, 27.06516857352195, 27.18183524018195, 27.29850190684195, 27.415168573501948, 27.531835240161946, 27.648501906821945, 27.765168573481944, 27.881835240141942, 27.99850190680194, 28.11516857346194, 28.23183524012194, 28.348501906781937, 28.58183524011527]	2021_Feb_10_1256	59.89749331307382	1	0.375
29	6	FALSE	VA	a	['A', 'S', 'V', 'R', 'surprise', 'N', 'Y', 'X', 'M', 'Z', 'J', 'G', 'C', 'E', 'H', 'P']	[697, 1731, 2245, 1587, 'stimAuditory/all_stimAuditory/102.wav', 1335, 2670, 4000, 1224, 2911, 1029, 944, 829, 904, 986, 1456]	8	Present	NA	NA	ABSENT	0.8582980632781982	30.565794944763184	32.57606792449951	33.1594093640312	33.50941127135983	36.685704946517944	4.109637022018433	[30.578104972839355, 30.694665908813477, 31.66902494430542, 31.845621824264526, 32.59653377532959, 32.713321924209595, 32.82997488975525, 32.94721579551697, 33.063902854919434, 33.180519819259644, 33.29745697975159, 33.414214849472046, 33.53104496002197, 33.647740840911865, 33.764301776885986, 33.88126087188721, 33.99785089492798, 34.11481189727783, 34.231507778167725, 34.34836387634277, 34.46504592895508, 34.685704946517944]	[30.58183524011527, 30.69850190677527, 31.68150190677527, 31.84820190677527, 32.59820190677527, 32.714868573435275, 32.83153524009528, 32.94820190675528, 33.06486857341528, 33.181535240075284, 33.29820190673529, 33.41486857339529, 33.53153524005529, 33.64820190671529, 33.764868573375296, 33.8815352400353, 33.9982019066953, 34.1148685733553, 34.231535240015305, 34.34820190667531, 34.46486857333531, 34.69820190666864]	2021_Feb_10_1256	59.89749331307382	1	0.375
29	7	FALSE	NA	a	['N', 'C', 'K', 'Y', 'M', 'G', 'A', 'H', 'W', 'J', 'X', 'S', 'V', 'P', 'T', 'U']	[1335, 829, 1122, 2670, 1224, 944, 697, 986, 2448, 1029, 4000, 1731, 2245, 1456, 1888, 2059]	11	Present	NA	NA	PRESENT	0.1907820701599121	36.688405990600586	38.692200899124146	39.62554233863583	39.97554424596447	42.80207085609436	4.109869956970215	[36.700716972351074, 36.817707777023315, 37.785393953323364, 37.968984842300415, 38.7196409702301, 38.8365159034729, 38.953290939331055, 39.07011580467224, 39.186829805374146, 39.30361795425415, 39.42042899131775, 39.53706479072571, 39.65400791168213, 39.77071189880371, 39.88747692108154, 40.004384994506836, 40.1211678981781, 40.237809896469116, 40.354649782180786, 40.47159481048584, 40.58864998817444, 40.802069902420044]	[36.69820190666864, 36.814868573328646, 37.79786857332864, 37.96456857332864, 38.71456857332864, 38.831235239988644, 38.947901906648646, 39.06456857330865, 39.18123523996865, 39.29790190662865, 39.414568573288655, 39.53123523994866, 39.64790190660866, 39.76456857326866, 39.881235239928664, 39.997901906588666, 40.11456857324867, 40.23123523990867, 40.34790190656867, 40.464568573228675, 40.58123523988868, 40.81456857322201]	2021_Feb_10_1256	59.89749331307382	1	0.375
29	8	FALSE	NN	a	['E', 'Z', 'J', 'H', 'R', 'M', 'T', 'A', 'B', 'N', 'C', 'S', 'W', 'V', 'G', 'U']	[904, 2911, 1029, 986, 1587, 1224, 1888, 697, 760, 1335, 829, 1731, 2448, 2245, 944, 2059]	14	Absent	NA	NA	ABSENT	0.23628807067871097	42.81154489517212	44.80873203277588	46.09207323384899	46.44207537959621	48.91843795776367	4.109705924987793	[42.82385492324829, 42.9239718914032, 43.9017608165741, 44.07537794113159, 44.82591485977173, 44.94308280944824, 45.05972981452942, 45.17640686035156, 45.29336881637573, 45.41000699996948, 45.526983976364136, 45.643757820129395, 45.760504961013794, 45.87714099884033, 45.99398994445801, 46.110848903656006, 46.227460861206055, 46.344440937042236, 46.46100378036499, 46.57802700996399, 46.69465398788452, 46.918437004089355]	[42.81456857322201, 42.931235239882014, 43.91423523988201, 44.08093523988201, 44.83093523988201, 44.94760190654201, 45.064268573202014, 45.180935239862016, 45.29760190652202, 45.41426857318202, 45.53093523984202, 45.647601906502025, 45.76426857316203, 45.88093523982203, 45.99760190648203, 46.114268573142034, 46.23093523980204, 46.34760190646204, 46.46426857312204, 46.58093523978204, 46.697601906442046, 46.93093523977538]	2021_Feb_10_1256	59.89749331307382	1	0.375
29	9	FALSE	NN	a	['E', 'T', 'P', 'Y', 'G', 'Z', 'K', 'U', 'C', 'R', 'V', 'W', 'S', 'N', 'H', 'J']	[904, 1888, 1456, 2670, 944, 2911, 1122, 2059, 829, 1587, 2245, 2448, 1731, 1335, 986, 1029]	13	Absent	NA	NA	ABSENT	0.784635066986084	48.91797995567322	50.92496395111084	52.09163872394253	52.44164063127116	55.03480386734009	4.109839916229248	[48.93028998374939, 49.0472629070282, 50.01812791824341, 50.198498010635376, 50.95019793510437, 51.065997838974, 51.18285393714905, 51.29958891868591, 51.41647982597351, 51.53334093093872, 51.6499547958374, 51.76686477661133, 51.88366389274597, 52.00031495094299, 52.11721396446228, 52.233914852142334, 52.350565910339355, 52.46762800216675, 52.584213972091675, 52.70111298561096, 52.817832946777344, 53.03480386734009]	[48.93093523977538, 49.04760190643538, 50.03060190643538, 50.19730190643538, 50.94730190643538, 51.06396857309538, 51.18063523975538, 51.297301906415385, 51.41396857307539, 51.53063523973539, 51.64730190639539, 51.763968573055394, 51.880635239715396, 51.9973019063754, 52.1139685730354, 52.2306352396954, 52.347301906355405, 52.46396857301541, 52.58063523967541, 52.69730190633541, 52.813968572995414, 53.04730190632875]	2021_Feb_10_1256	59.89749331307382	1	0.375
29	10	FALSE	NN	a	['G', 'P', 'M', 'J', 'B', 'S', 'A', 'Y', 'R', 'K', 'Z', 'U', 'W', 'H', 'V', 'N']	[944, 1456, 1224, 1029, 760, 1731, 697, 2670, 1587, 1122, 2911, 2059, 2448, 986, 2245, 1335]	12	Absent	NA	NA	ABSENT	0.3419950008392334	55.04107213020325	57.041614055633545	58.091621923386654	58.44162311545955	61.1511709690094	4.1095569133758545	[55.053382873535156, 55.170469999313354, 56.134493827819824, 56.32147979736328, 57.072282791137695, 57.172210931777954, 57.289055824279785, 57.40585899353027, 57.52273392677307, 57.63951086997986, 57.75629496574402, 57.87311887741089, 57.98986792564392, 58.10672688484192, 58.22334885597229, 58.34019088745117, 58.45697999000549, 58.573752880096436, 58.69062280654907, 58.807318925857544, 58.92412495613098, 59.1511709690094]	[55.04730190632875, 55.16396857298875, 56.14696857298875, 56.313668572988746, 57.063668572988746, 57.18033523964875, 57.29700190630875, 57.41366857296875, 57.530335239628755, 57.64700190628876, 57.76366857294876, 57.88033523960876, 57.997001906268764, 58.113668572928766, 58.23033523958877, 58.34700190624877, 58.46366857290877, 58.580335239568775, 58.69700190622878, 58.81366857288878, 58.93033523954878, 59.163668572882116]	2021_Feb_10_1256	59.89749331307382	1	0.375
29	11	FALSE	NV	a	['J', 'A', 'E', 'M', 'U', 'V', 'S', 'P', 'X', 'N', 'G', 'Z', 'K', 'R', 'B', 'H']	[1029, 697, 904, 1224, 2059, 2245, 1731, 1456, 4000, 1335, 944, 2911, 1122, 1587, 760, 986]	9	Present	NA	NA	PRESENT	0.13069796562194824	61.14810299873352	63.15796208381653	63.85796995158964	64.20797209733685	67.26753783226013	4.1095757484436035	[61.160414934158325, 61.2766637802124, 62.25086188316345, 62.42779779434204, 63.17873787879944, 63.2955379486084, 63.41218900680542, 63.52918887138367, 63.645869970321655, 63.762690782547, 63.879424810409546, 63.99632000923157, 64.11324000358582, 64.22993087768555, 64.34649395942688, 64.46322393417358, 64.58009600639343, 64.69692778587341, 64.8137629032135, 64.93069982528687, 65.04734587669373, 65.26753687858582]	[61.163668572882116, 61.28033523954212, 62.263335239542116, 62.430035239542114, 63.180035239542114, 63.29670190620212, 63.41336857286212, 63.53003523952212, 63.64670190618212, 63.763368572842126, 63.88003523950213, 63.99670190616213, 64.11336857282213, 64.23003523948212, 64.34670190614212, 64.46336857280211, 64.5800352394621, 64.6967019061221, 64.8133685727821, 64.93003523944209, 65.04670190610209, 65.28003523943542]	2021_Feb_10_1256	59.89749331307382	1	0.375
29	12	FALSE	NV	a	['W', 'V', 'E', 'M', 'C', 'S', 'K', 'N', 'B', 'Z', 'Y', 'J', 'R', 'X', 'A', 'G']	[2448, 2245, 904, 1224, 829, 1731, 1122, 1335, 760, 2911, 2670, 1029, 1587, 4000, 697, 944]	14	Present	NA	NA	PRESENT	0.08723783493041992	67.27079606056213	69.27412605285645	70.55746725392956	70.90746939967677	73.38390493392944	4.109778881072998	[67.28310680389404, 67.39993286132812, 68.36722683906555, 68.55093383789062, 69.30178785324097, 69.41874194145203, 69.5353569984436, 69.6523687839508, 69.76902198791504, 69.88585495948792, 70.00269889831543, 70.11941599845886, 70.23618483543396, 70.35305690765381, 70.46972393989563, 70.58688688278198, 70.70321893692017, 70.81993794441223, 70.93696689605713, 71.05374884605408, 71.17061996459961, 71.38390398025513]	[67.28003523943542, 67.39670190609542, 68.37970190609542, 68.54640190609543, 69.29640190609543, 69.41306857275542, 69.52973523941542, 69.64640190607541, 69.7630685727354, 69.8797352393954, 69.9964019060554, 70.11306857271539, 70.22973523937539, 70.34640190603538, 70.46306857269538, 70.57973523935537, 70.69640190601537, 70.81306857267536, 70.92973523933536, 71.04640190599535, 71.16306857265535, 71.39640190598868]	2021_Feb_10_1256	59.89749331307382	1	0.375
29	13	FALSE	NV	a	['C', 'B', 'S', 'P', 'A', 'E', 'H', 'K', 'R', 'J', 'Y', 'W', 'X', 'M', 'N', 'Z']	[829, 760, 1731, 1456, 697, 904, 986, 1122, 1587, 1029, 2670, 2448, 4000, 1224, 1335, 2911]	13	Present	NA	NA	PRESENT	0.26055407524108887	73.37699508666992	75.39040493965149	76.55707971248317	76.9070816198118	79.50027084350586	4.10986590385437	[73.38930487632751, 73.5061547756195, 74.48359680175781, 74.65762090682983, 75.40815877914429, 75.52498579025269, 75.64201283454895, 75.75865697860718, 75.87531685829163, 75.99227094650269, 76.10919094085693, 76.22601795196533, 76.3427197933197, 76.45956778526306, 76.57635593414307, 76.69302892684937, 76.80969500541687, 76.92645597457886, 77.04348087310791, 77.16014885902405, 77.27704191207886, 77.50026988983154]	[73.39640190598868, 73.51306857264868, 74.49606857264868, 74.66276857264869, 75.41276857264869, 75.52943523930868, 75.64610190596868, 75.76276857262867, 75.87943523928867, 75.99610190594866, 76.11276857260866, 76.22943523926865, 76.34610190592865, 76.46276857258864, 76.57943523924864, 76.69610190590863, 76.81276857256863, 76.92943523922862, 77.04610190588862, 77.16276857254861, 77.27943523920861, 77.51276857254194]	2021_Feb_10_1256	59.89749331307382	1	0.375
29	14	FALSE	NV	a	['W', 'Y', 'N', 'U', 'C', 'K', 'Z', 'X', 'A', 'T', 'M', 'B', 'P', 'J', 'R', 'S']	[2448, 2670, 1335, 2059, 829, 1122, 2911, 4000, 697, 1888, 1224, 760, 1456, 1029, 1587, 1731]	8	Present	NA	NA	PRESENT	0.1368560791015625	79.50040102005005	81.50697898864746	82.09031923608626	82.44032138183347	85.61663794517517	4.10965895652771	[79.51271200180054, 79.62937188148499, 80.59995985031128, 80.7807559967041, 81.53122091293335, 81.64835786819458, 81.76493787765503, 81.88180685043335, 81.9986720085144, 82.11546087265015, 82.23218894004822, 82.34897184371948, 82.46570301055908, 82.58268094062805, 82.69947099685669, 82.8159339427948, 82.93276286125183, 83.04968690872192, 83.16647100448608, 83.28307485580444, 83.40005087852478, 83.61663699150085]	[79.51276857254194, 79.62943523920194, 80.61243523920194, 80.77913523920195, 81.52913523920195, 81.64580190586194, 81.76246857252194, 81.87913523918193, 81.99580190584193, 82.11246857250192, 82.22913523916192, 82.34580190582192, 82.46246857248191, 82.5791352391419, 82.6958019058019, 82.8124685724619, 82.92913523912189, 83.04580190578189, 83.16246857244188, 83.27913523910188, 83.39580190576187, 83.6291352390952]	2021_Feb_10_1256	59.89749331307382	1	0.375
29	15	FALSE	AV	a	['E', 'A', 'K', 'W', 'Y', 'C', 'T', 'M', 'G', 'P', 'surprise', 'Z', 'J', 'X', 'B', 'S']	[904, 697, 1122, 2448, 2670, 829, 1888, 1224, 944, 1456, 'stimAuditory/all_stimAuditory/108.wav', 2911, 1029, 4000, 760, 1731]	14	Present	stimAuditory/all_stimAuditory/102.wav	NA	ABSENT	0.3742189407348633	85.62344598770142	87.62339901924133	88.90674045873303	89.25674236606166	91.7330038547516	4.109604835510254	[85.63575792312622, 85.75253796577454, 86.71632790565491, 86.90361285209656, 87.65455198287964, 87.75448989868164, 87.87134194374084, 87.98807382583618, 88.1048378944397, 88.22166800498962, 88.33847188949585, 88.45530581474304, 88.57207989692688, 88.68887090682983, 88.8056378364563, 88.92245483398438, 89.03916597366333, 89.15592384338379, 89.27270984649658, 89.38964986801147, 89.50636792182922, 89.73300290107727]	[85.6291352390952, 85.7458019057552, 86.7288019057552, 86.89550190575521, 87.64550190575521, 87.7621685724152, 87.8788352390752, 87.9955019057352, 88.11216857239519, 88.22883523905519, 88.34550190571518, 88.46216857237518, 88.57883523903517, 88.69550190569517, 88.81216857235516, 88.92883523901516, 89.04550190567515, 89.16216857233515, 89.27883523899514, 89.39550190565514, 89.51216857231513, 89.74550190564847]	2021_Feb_10_1256	59.89749331307382	1	0.375
29	16	FALSE	NV	a	['Z', 'H', 'U', 'A', 'G', 'E', 'V', 'T', 'R', 'M', 'J', 'P', 'X', 'S', 'B', 'Y']	[2911, 986, 2059, 697, 944, 904, 2245, 1888, 1587, 1224, 1029, 1456, 4000, 1731, 760, 2670]	13	Present	NA	NA	PRESENT	0.1307668685913086	91.73021197319032	93.73995399475098	94.90662876758266	95.25663067491128	97.84937000274658	4.1094160079956055	[91.74252200126648, 91.8587749004364, 92.83269691467285, 93.01026892662048, 93.76087284088135, 93.87782096862793, 93.99440693855286, 94.11138391494751, 94.22814798355103, 94.34498882293701, 94.46168184280396, 94.57844400405884, 94.69540596008301, 94.81215286254883, 94.92887282371521, 95.0456268787384, 95.16236996650696, 95.27929377555847, 95.3960189819336, 95.51286697387695, 95.62963485717773, 95.84937000274658]	[91.74550190564847, 91.86216857230846, 92.84516857230847, 93.01186857230847, 93.76186857230847, 93.87853523896847, 93.99520190562846, 94.11186857228846, 94.22853523894845, 94.34520190560845, 94.46186857226844, 94.57853523892844, 94.69520190558843, 94.81186857224843, 94.92853523890842, 95.04520190556842, 95.16186857222841, 95.27853523888841, 95.3952019055484, 95.5118685722084, 95.6285352388684, 95.86186857220173]	2021_Feb_10_1256	59.89749331307382	1	0.375
29	17	FALSE	NN	a	['Z', 'K', 'Y', 'U', 'S', 'W', 'M', 'C', 'R', 'G', 'T', 'V', 'N', 'A', 'E', 'P']	[2911, 1122, 2670, 2059, 1731, 2448, 1224, 829, 1587, 944, 1888, 2245, 1335, 697, 904, 1456]	8	Absent	NA	NA	ABSENT	0.6394751071929932	97.85284900665285	99.85620999336244	100.43955238656844	100.78955429389708	103.96573781967165	4.109527826309204	[97.86515998840332, 97.98217391967773, 98.94906282424927, 99.13330578804016, 99.88395094871521, 100.00096893310547, 100.11757278442383, 100.23437094688416, 100.351313829422, 100.46804690361023, 100.5849609375, 100.70146679878235, 100.81849098205566, 100.93515396118164, 101.05193400382996, 101.16870284080505, 101.28568482398987, 101.40212988853455, 101.51945400238037, 101.63583278656006, 101.75281095504761, 101.96573686599731]	[97.86186857220173, 97.97853523886172, 98.96153523886173, 99.12823523886173, 99.87823523886173, 99.99490190552173, 100.11156857218172, 100.22823523884172, 100.34490190550171, 100.46156857216171, 100.5782352388217, 100.6949019054817, 100.8115685721417, 100.92823523880169, 101.04490190546169, 101.16156857212168, 101.27823523878168, 101.39490190544167, 101.51156857210167, 101.62823523876166, 101.74490190542166, 101.97823523875499]	2021_Feb_10_1256	59.89749331307382	1	0.375
29	18	FALSE	NN	a	['B', 'Y', 'A', 'G', 'J', 'H', 'E', 'S', 'W', 'C', 'V', 'P', 'R', 'N', 'T', 'M']	[760, 2670, 697, 944, 1029, 986, 904, 1731, 2448, 829, 2245, 1456, 1587, 1335, 1888, 1224]	8	Absent	NA	NA	ABSENT	0.13262200355529785	103.97596311569214	105.97241711616516	106.55575736360396	106.9057592709326	110.08210492134094	4.109687805175781	[103.98827385902405, 104.08845496177673, 105.06542992591858, 105.23969888687134, 105.99030494689941, 106.10735082626343, 106.22401189804077, 106.34097695350647, 106.45752692222595, 106.57462286949158, 106.6912169456482, 106.80814695358276, 106.92481899261475, 107.04174089431763, 107.15840101242065, 107.2751259803772, 107.39189791679382, 107.50873899459839, 107.62545895576477, 107.74235677719116, 107.85905385017395, 108.08210492134094]	[103.97823523875499, 104.09490190541499, 105.07790190541499, 105.244601905415, 105.994601905415, 106.11126857207499, 106.22793523873499, 106.34460190539498, 106.46126857205498, 106.57793523871497, 106.69460190537497, 106.81126857203496, 106.92793523869496, 107.04460190535495, 107.16126857201495, 107.27793523867494, 107.39460190533494, 107.51126857199493, 107.62793523865493, 107.74460190531492, 107.86126857197492, 108.09460190530825]	2021_Feb_10_1256	59.89749331307382	1	0.375
29	19	FALSE	NN	a	['S', 'J', 'T', 'V', 'B', 'C', 'P', 'A', 'U', 'Z', 'M', 'N', 'R', 'H', 'W', 'G']	[1731, 1029, 1888, 2245, 760, 829, 1456, 697, 2059, 2911, 1224, 1335, 1587, 986, 2448, 944]	14	Absent	NA	NA	ABSENT	0.3052208423614502	110.0824010372162	112.08877491950987	113.37211635900158	113.7221182663302	116.19846987724304	4.109694957733154	[110.09472298622131, 110.21171998977661, 111.18179297447205, 111.3627598285675, 112.11390900611877, 112.2305519580841, 112.34717893600464, 112.46397495269775, 112.58073592185974, 112.6976227760315, 112.81426787376404, 112.93122291564941, 113.04801297187805, 113.16482281684875, 113.28150677680969, 113.39822196960449, 113.51515483856201, 113.63193893432617, 113.74874997138977, 113.86531901359558, 113.98226881027222, 114.19846987724304]	[110.09460190530825, 110.21126857196825, 111.19426857196825, 111.36096857196826, 112.11096857196826, 112.22763523862825, 112.34430190528825, 112.46096857194824, 112.57763523860824, 112.69430190526823, 112.81096857192823, 112.92763523858822, 113.04430190524822, 113.16096857190821, 113.27763523856821, 113.3943019052282, 113.5109685718882, 113.6276352385482, 113.74430190520819, 113.86096857186818, 113.97763523852818, 114.21096857186151]	2021_Feb_10_1256	59.89749331307382	1	0.375
29	20	FALSE	NA	a	['J', 'G', 'A', 'K', 'U', 'N', 'Z', 'P', 'R', 'H', 'X', 'C', 'E', 'W', 'S', 'T']	[1029, 944, 697, 1122, 2059, 1335, 2911, 1456, 1587, 986, 4000, 829, 904, 2448, 1731, 1888]	11	Present	NA	NA	PRESENT	0.07849287986755371	116.20560193061829	118.20504593849182	119.13838737800351	119.48838928533216	122.31483793258668	4.109791994094849	[116.21791291236877, 116.33477878570557, 117.29816198348999, 117.48596596717834, 118.23668479919434, 118.33674788475037, 118.45347690582275, 118.57028079032898, 118.68708491325378, 118.80389499664307, 118.92062878608704, 119.03742599487305, 119.15427899360657, 119.2711877822876, 119.38785982131958, 119.50465393066406, 119.6215147972107, 119.73808288574219, 119.85497689247131, 119.97191596031189, 120.0885968208313, 120.31483697891235]	[116.21096857186151, 116.32763523852151, 117.31063523852151, 117.47733523852152, 118.22733523852152, 118.34400190518151, 118.46066857184151, 118.5773352385015, 118.6940019051615, 118.8106685718215, 118.92733523848149, 119.04400190514149, 119.16066857180148, 119.27733523846148, 119.39400190512147, 119.51066857178147, 119.62733523844146, 119.74400190510146, 119.86066857176145, 119.97733523842145, 120.09400190508144, 120.32733523841478]	2021_Feb_10_1256	59.89749331307382	1	0.375
29	21	FALSE	VV	a	['K', 'Y', 'P', 'H', 'N', 'M', 'Z', 'G', 'V', 'S', 'surprise', 'B', 'U', 'X', 'T', 'E']	[1122, 2670, 1456, 986, 1335, 1224, 2911, 944, 2245, 1731, 'stimAuditory/all_stimAuditory/122.wav', 760, 2059, 4000, 1888, 904]	14	Present	NA	NA	ABSENT	0.07469487190246582	122.31245613098145	124.32149696350098	125.60483840299268	125.9548403103213	128.4312038421631	4.109706878662109	[122.32476687431335, 122.44116997718811, 123.41452884674072, 123.59236693382263, 124.34302282333374, 124.46002197265625, 124.57675886154175, 124.69358587265015, 124.81023097038269, 124.92718195915222, 125.04388689994812, 125.16079688072205, 125.27752780914307, 125.3943510055542, 125.51108980178833, 125.62802481651306, 125.74464893341064, 125.86131978034973, 125.97814083099365, 126.09492993354797, 126.21184778213501, 126.43120288848877]	[122.32733523841478, 122.44400190507477, 123.42700190507477, 123.59370190507478, 124.34370190507478, 124.46036857173478, 124.57703523839477, 124.69370190505477, 124.81036857171476, 124.92703523837476, 125.04370190503475, 125.16036857169475, 125.27703523835474, 125.39370190501474, 125.51036857167473, 125.62703523833473, 125.74370190499472, 125.86036857165472, 125.97703523831471, 126.09370190497471, 126.2103685716347, 126.44370190496804]	2021_Feb_10_1256	59.89749331307382	1	0.375
29	22	FALSE	NV	a	['N', 'B', 'H', 'Z', 'A', 'C', 'P', 'S', 'T', 'K', 'G', 'J', 'V', 'X', 'U', 'Y']	[1335, 760, 986, 2911, 697, 829, 1456, 1731, 1888, 1122, 944, 1029, 2245, 4000, 2059, 2670]	14	Present	NA	NA	PRESENT	0.17563486099243164	128.43522906303406	130.4380240440369	131.72136524510998	132.07136739085718	134.5475709438324	4.109546899795532	[128.44753980636597, 128.56431198120117, 129.53089594841003, 129.71538281440735, 130.46628189086914, 130.58296489715576, 130.6998839378357, 130.81647992134094, 130.93352794647217, 131.05026078224182, 131.16694593429565, 131.28388381004333, 131.4007477760315, 131.51778388023376, 131.634272813797, 131.7510848045349, 131.86767292022705, 131.98451399803162, 132.10146284103394, 132.21817183494568, 132.33503985404968, 132.5475718975067]	[128.44370190496804, 128.56036857162803, 129.54336857162804, 129.71006857162803, 130.46006857162803, 130.57673523828802, 130.69340190494802, 130.810068571608, 130.926735238268, 131.043401904928, 131.160068571588, 131.276735238248, 131.393401904908, 131.51006857156798, 131.62673523822798, 131.74340190488797, 131.86006857154797, 131.97673523820797, 132.09340190486796, 132.21006857152796, 132.32673523818795, 132.56006857152127]	2021_Feb_10_1256	59.89749331307382	1	0.375
29	23	FALSE	NA	a	['J', 'H', 'M', 'U', 'P', 'W', 'N', 'V', 'E', 'T', 'X', 'Y', 'R', 'S', 'Z', 'A']	[1029, 986, 1224, 2059, 1456, 2448, 1335, 2245, 904, 1888, 4000, 2670, 1587, 1731, 2911, 697]	11	Present	NA	NA	PRESENT	0.08502697944641113	134.54144191741943	136.55434608459473	137.48768728568783	137.83768943143505	140.66393780708313	4.109591722488403	[134.5537519454956, 134.67072796821594, 135.64726185798645, 135.82189679145813, 136.57258296012878, 136.68957090377808, 136.80619597434998, 136.9231607913971, 137.03984379768372, 137.1567418575287, 137.27337884902954, 137.39026379585266, 137.50707578659058, 137.62390780448914, 137.7405138015747, 137.85748291015625, 137.97423386573792, 138.09110283851624, 138.20776796340942, 138.3245828151703, 138.44137692451477, 138.66393780708313]	[134.56006857152127, 134.67673523818127, 135.65973523818127, 135.82643523818126, 136.57643523818126, 136.69310190484126, 136.80976857150125, 136.92643523816125, 137.04310190482124, 137.15976857148124, 137.27643523814123, 137.39310190480123, 137.50976857146122, 137.62643523812122, 137.7431019047812, 137.8597685714412, 137.9764352381012, 138.0931019047612, 138.2097685714212, 138.3264352380812, 138.44310190474118, 138.6764352380745]	2021_Feb_10_1256	59.89749331307382	1	0.375
29	24	FALSE	NN	a	['A', 'Y', 'R', 'V', 'C', 'P', 'J', 'M', 'N', 'K', 'E', 'H', 'W', 'T', 'S', 'B']	[697, 2670, 1587, 2245, 829, 1456, 1029, 1224, 1335, 1122, 904, 986, 2448, 1888, 1731, 760]	10	Absent	NA	NA	ABSENT	0.1375598907470703	140.6648120880127	142.67054390907288	143.48721772825024	143.8372196355789	146.78030490875244	4.109760999679565	[140.6771218776703, 140.79386687278748, 141.76362895965576, 141.94533896446228, 142.69577479362488, 142.81256198883057, 142.92937088012695, 143.04620385169983, 143.1629958152771, 143.27963495254517, 143.39661598205566, 143.51330590248108, 143.63024282455444, 143.7470269203186, 143.8638458251953, 143.98047590255737, 144.0974907875061, 144.21417999267578, 144.3308229446411, 144.4476878643036, 144.56429886817932, 144.78030395507812]	[140.6764352380745, 140.7931019047345, 141.7761019047345, 141.9428019047345, 142.6928019047345, 142.8094685713945, 142.92613523805448, 143.04280190471448, 143.15946857137448, 143.27613523803447, 143.39280190469447, 143.50946857135446, 143.62613523801446, 143.74280190467445, 143.85946857133445, 143.97613523799444, 144.09280190465444, 144.20946857131443, 144.32613523797443, 144.44280190463442, 144.55946857129442, 144.79280190462774]	2021_Feb_10_1256	59.89749331307382	1	0.375
29	25	FALSE	AA	a	['A', 'E', 'U', 'Z', 'N', 'G', 'C', 'surprise', 'J', 'H', 'X', 'S', 'R', 'V', 'T', 'K']	[697, 904, 2059, 2911, 1335, 944, 829, 'stimAuditory/all_stimAuditory/217.wav', 1029, 986, 4000, 1731, 1587, 2245, 1888, 1122]	11	Present	stimAuditory/all_stimAuditory/108.wav	NA	PRESENT	0.03093791007995605	146.7876250743866	148.78714895248413	149.7204903919958	150.07049229932446	152.89667081832886	4.109521865844727	[146.7999348640442, 146.9169569015503, 147.87999296188354, 148.05128693580627, 148.8189058303833, 148.91897177696228, 149.03564381599426, 149.1525309085846, 149.26924085617065, 149.38621878623962, 149.50289297103882, 149.61981987953186, 149.73667883872986, 149.8534038066864, 149.9700379371643, 150.08699584007263, 150.20363187789917, 150.32063388824463, 150.43734192848206, 150.55406594276428, 150.67088389396667, 150.89666986465454]	[146.79280190462774, 146.90946857128773, 147.89246857128774, 148.05916857128773, 148.80916857128773, 148.92583523794772, 149.04250190460772, 149.1591685712677, 149.2758352379277, 149.3925019045877, 149.5091685712477, 149.6258352379077, 149.7425019045677, 149.85916857122768, 149.97583523788768, 150.09250190454767, 150.20916857120767, 150.32583523786766, 150.44250190452766, 150.55916857118766, 150.67583523784765, 150.90916857118097]	2021_Feb_10_1256	59.89749331307382	1	0.375
29	26	FALSE	NV	a	['Z', 'B', 'J', 'R', 'A', 'C', 'P', 'S', 'V', 'W', 'Y', 'K', 'T', 'X', 'E', 'U']	[2911, 760, 1029, 1587, 697, 829, 1456, 1731, 2245, 2448, 2670, 1122, 1888, 4000, 904, 2059]	14	Present	NA	NA	PRESENT	0.1794450283050537	152.89442706108093	154.9031229019165	156.1864643414082	156.5364652950625	159.01303791999817	4.109915018081665	[152.90673780441284, 153.02353978157043, 153.9963629245758, 154.17456698417664, 154.92526483535767, 155.0422399044037, 155.15895080566406, 155.27572584152222, 155.39248180389404, 155.5094130039215, 155.62599992752075, 155.74295377731323, 155.85973978042603, 155.9767279624939, 156.09332084655762, 156.2098867893219, 156.3269579410553, 156.44423985481262, 156.56058883666992, 156.6770420074463, 156.7940969467163, 157.01303887367249]	[152.90916857118097, 153.02583523784097, 154.00883523784097, 154.17553523784096, 154.92553523784096, 155.04220190450096, 155.15886857116095, 155.27553523782095, 155.39220190448094, 155.50886857114094, 155.62553523780093, 155.74220190446093, 155.85886857112092, 155.97553523778092, 156.0922019044409, 156.2088685711009, 156.3255352377609, 156.4422019044209, 156.5588685710809, 156.6755352377409, 156.79220190440088, 157.0255352377342]	2021_Feb_10_1256	59.89749331307382	1	0.375
29	27	FALSE	NV	a	['B', 'M', 'J', 'T', 'K', 'Z', 'A', 'H', 'Y', 'P', 'G', 'R', 'X', 'S', 'C', 'E']	[760, 1224, 1029, 1888, 1122, 2911, 697, 986, 2670, 1456, 944, 1587, 4000, 1731, 829, 904]	13	Present	NA	NA	PRESENT	0.2238609790802002	159.01721811294556	161.01981592178345	162.18649069461517	162.53649260194376	165.12940382957458	4.109587907791138	[159.02952885627747, 159.14644384384155, 160.1127269268036, 160.29768800735474, 161.04838180541992, 161.16518688201904, 161.28205180168152, 161.39888787269592, 161.51568388938904, 161.63227891921997, 161.74908900260925, 161.8659029006958, 161.98302483558655, 162.09960198402405, 162.21647787094116, 162.33335089683533, 162.45025897026062, 162.56706190109253, 162.68359994888306, 162.80042099952698, 162.91718077659607, 163.12940382957458]	[159.0255352377342, 159.1422019043942, 160.1252019043942, 160.2919019043942, 161.0419019043942, 161.1585685710542, 161.27523523771418, 161.39190190437418, 161.50856857103417, 161.62523523769417, 161.74190190435417, 161.85856857101416, 161.97523523767416, 162.09190190433415, 162.20856857099415, 162.32523523765414, 162.44190190431414, 162.55856857097413, 162.67523523763413, 162.79190190429412, 162.90856857095412, 163.14190190428744]	2021_Feb_10_1256	59.89749331307382	1	0.375
29	28	FALSE	VA	a	['A', 'P', 'T', 'J', 'Y', 'U', 'B', 'surprise', 'M', 'S', 'X', 'H', 'W', 'N', 'K', 'E']	[697, 1456, 1888, 1029, 2670, 2059, 760, 'stimAuditory/all_stimAuditory/104.wav', 1224, 1731, 4000, 986, 2448, 1335, 1122, 904]	11	Present	NA	NA	PRESENT	0.0371088981628418	165.12365698814392	167.1361289024353	168.0694693882727	168.4194712956013	171.2457709312439	4.109642028808594	[165.1359667778015, 165.25291395187378, 166.22909498214722, 166.40405082702637, 167.15491795539856, 167.27174997329712, 167.38852381706238, 167.5052947998047, 167.62191796302795, 167.73868584632874, 167.8556559085846, 167.97251296043396, 168.08921599388123, 168.20592379570007, 168.32286882400513, 168.4397258758545, 168.55650782585144, 168.6731538772583, 168.7901690006256, 168.90685296058655, 169.02363801002502, 169.2457709312439]	[165.14190190428744, 165.25856857094743, 166.24156857094744, 166.40826857094743, 167.15826857094743, 167.27493523760742, 167.39160190426742, 167.5082685709274, 167.6249352375874, 167.7416019042474, 167.8582685709074, 167.9749352375674, 168.0916019042274, 168.20826857088738, 168.32493523754738, 168.44160190420737, 168.55826857086737, 168.67493523752736, 168.79160190418736, 168.90826857084735, 169.02493523750735, 169.25826857084067]	2021_Feb_10_1256	59.89749331307382	1	0.375
29	29	FALSE	NV	a	['R', 'B', 'W', 'Y', 'N', 'E', 'M', 'P', 'Z', 'V', 'X', 'H', 'G', 'T', 'J', 'S']	[1587, 760, 2448, 2670, 1335, 904, 1224, 1456, 2911, 2245, 4000, 986, 944, 1888, 1029, 1731]	11	Present	NA	NA	PRESENT	0.2097480297088623	171.24698996543884	173.2524869441986	174.1858283837103	174.53583029103893	177.36213779449463	4.1096508502960205	[171.25930094718933, 171.3761007785797, 172.34546184539795, 172.5275559425354, 173.27792882919312, 173.39481782913208, 173.51159000396729, 173.62849378585815, 173.74506092071533, 173.86190581321716, 173.9788019657135, 174.09550094604492, 174.21247792243958, 174.32909083366394, 174.44592094421387, 174.56275486946106, 174.67962980270386, 174.79629492759705, 174.91296792030334, 175.03005480766296, 175.14662790298462, 175.3621368408203]	[171.25826857084067, 171.37493523750067, 172.35793523750067, 172.52463523750066, 173.27463523750066, 173.39130190416066, 173.50796857082065, 173.62463523748065, 173.74130190414064, 173.85796857080064, 173.97463523746063, 174.09130190412063, 174.20796857078062, 174.32463523744062, 174.4413019041006, 174.5579685707606, 174.6746352374206, 174.7913019040806, 174.9079685707406, 175.0246352374006, 175.14130190406058, 175.3746352373939]	2021_Feb_10_1256	59.89749331307382	1	0.375
29	30	FALSE	NA	a	['M', 'S', 'N', 'B', 'U', 'Z', 'T', 'A', 'H', 'J', 'C', 'Y', 'K', 'X', 'V', 'W']	[1224, 1731, 1335, 760, 2059, 2911, 1888, 697, 986, 1029, 829, 2670, 1122, 4000, 2245, 2448]	14	Present	NA	NA	PRESENT	0.27106189727783203	177.37006402015686	179.3688259124756	180.65216735196728	181.0021704513888	183.4785048961639	4.1096789836883545	[177.3823847770691, 177.49903798103333, 178.46182799339294, 178.63355898857117, 179.40113997459412, 179.5013108253479, 179.61784482002258, 179.73488688468933, 179.8514609336853, 179.96842980384827, 180.0851218700409, 180.20201086997986, 180.3186399936676, 180.43550491333008, 180.5523397922516, 180.66921591758728, 180.78595399856567, 180.90279293060303, 181.01952695846558, 181.1363308429718, 181.2530858516693, 181.47850394248962]	[177.3746352373939, 177.4913019040539, 178.4743019040539, 178.6410019040539, 179.3910019040539, 179.5076685707139, 179.62433523737388, 179.74100190403388, 179.85766857069387, 179.97433523735387, 180.09100190401386, 180.20766857067386, 180.32433523733386, 180.44100190399385, 180.55766857065385, 180.67433523731384, 180.79100190397384, 180.90766857063383, 181.02433523729383, 181.14100190395382, 181.25766857061382, 181.49100190394714]	2021_Feb_10_1256	59.89749331307382	1	0.375
29	31	FALSE	VN	a	['E', 'K', 'C', 'H', 'V', 'M', 'surprise', 'A', 'R', 'U', 'B', 'N', 'J', 'G', 'Y', 'T']	[904, 1122, 829, 986, 2245, 1224, 'stimAuditory/all_stimAuditory/213.wav', 697, 1587, 2059, 760, 1335, 1029, 944, 2670, 1888]	10	Absent	NA	NA	ABSENT	0.1314680576324463	183.4765899181366	185.4851520061493	186.30182677900095	186.6518286863296	189.59486985206604	4.109717845916748	[183.48890089988708, 183.60566687583923, 184.57819485664368, 184.75673699378967, 185.5075089931488, 185.62439489364624, 185.74115991592407, 185.8577539920807, 185.97464895248413, 186.09138679504395, 186.20826697349548, 186.32512378692627, 186.4422059059143, 186.55855584144592, 186.6755678653717, 186.79224300384521, 186.90894198417664, 187.02587699890137, 187.14265489578247, 187.25943398475647, 187.37629294395447, 187.59487199783325]	[183.49100190394714, 183.60766857060713, 184.59066857060714, 184.75736857060713, 185.50736857060713, 185.62403523726712, 185.74070190392712, 185.8573685705871, 185.9740352372471, 186.0907019039071, 186.2073685705671, 186.3240352372271, 186.4407019038871, 186.55736857054708, 186.67403523720708, 186.79070190386707, 186.90736857052707, 187.02403523718706, 187.14070190384706, 187.25736857050705, 187.37403523716705, 187.60736857050037]	2021_Feb_10_1256	59.89749331307382	1	0.375
29	32	FALSE	NV	a	['M', 'T', 'C', 'K', 'Y', 'H', 'N', 'Z', 'B', 'V', 'X', 'S', 'J', 'R', 'W', 'G']	[1224, 1888, 829, 1122, 2670, 986, 1335, 2911, 760, 2245, 4000, 1731, 1029, 1587, 2448, 944]	11	Present	NA	NA	PRESENT	0.10515999794006348	189.59956002235413	191.60146689414975	192.53480833366143	192.8848092873158	195.71123790740967	4.109771013259888	[189.61187195777893, 189.72880792617798, 190.69455885887146, 190.8798439502716, 191.6307590007782, 191.74732184410095, 191.86432600021362, 191.98118591308594, 192.09777092933655, 192.2147068977356, 192.331533908844, 192.44834399223328, 192.56536078453064, 192.68189978599548, 192.79870200157166, 192.9154667854309, 193.03212690353394, 193.14910292625427, 193.26565098762512, 193.3825488090515, 193.48250794410706, 193.71123695373535]	[189.60736857050037, 189.72403523716036, 190.70703523716037, 190.87373523716036, 191.62373523716036, 191.74040190382036, 191.85706857048035, 191.97373523714035, 192.09040190380034, 192.20706857046034, 192.32373523712033, 192.44040190378033, 192.55706857044032, 192.67373523710032, 192.7904019037603, 192.9070685704203, 193.0237352370803, 193.1404019037403, 193.2570685704003, 193.3737352370603, 193.49040190372028, 193.7237352370536]	2021_Feb_10_1256	59.89749331307382	1	0.375
29	33	FALSE	NN	a	['J', 'E', 'V', 'M', 'S', 'B', 'T', 'N', 'Z', 'W', 'Y', 'C', 'K', 'G', 'R', 'P']	[1029, 904, 2245, 1224, 1731, 760, 1888, 1335, 2911, 2448, 2670, 829, 1122, 944, 1587, 1456]	9	Absent	NA	NA	ABSENT	0.4453580379486084	195.70589900016785	197.71784710884097	198.41785497661405	198.76785712236128	201.82760381698608	4.109756708145142	[195.71820998191833, 195.83513379096985, 196.81092882156372, 196.9862289428711, 197.73696279525757, 197.85373091697693, 197.97067785263062, 198.08748579025269, 198.204167842865, 198.32109379768372, 198.43776988983154, 198.55458283424377, 198.67150592803955, 198.78815984725952, 198.90514492988586, 199.02171897888184, 199.13878297805786, 199.2554988861084, 199.37232780456543, 199.48905777931213, 199.60577487945557, 199.82760286331177]	[195.7237352370536, 195.8404019037136, 196.8234019037136, 196.9901019037136, 197.7401019037136, 197.8567685703736, 197.97343523703358, 198.09010190369358, 198.20676857035357, 198.32343523701357, 198.44010190367356, 198.55676857033356, 198.67343523699356, 198.79010190365355, 198.90676857031355, 199.02343523697354, 199.14010190363354, 199.25676857029353, 199.37343523695353, 199.49010190361352, 199.60676857027352, 199.84010190360684]	2021_Feb_10_1256	59.89749331307382	1	0.375
29	34	FALSE	VV	a	['M', 'H', 'A', 'P', 'K', 'E', 'C', 'W', 'V', 'G', 'surprise', 'Y', 'Z', 'X', 'B', 'N']	[1224, 986, 697, 1456, 1122, 904, 829, 2448, 2245, 944, 'stimAuditory/all_stimAuditory/218.wav', 2670, 2911, 4000, 760, 1335]	14	Present	NA	NA	PRESENT	0.17001700401306152	201.82906413078308	203.8345069885254	205.11784842801708	205.4678503353457	207.9439709186554	4.109463930130005	[201.84137392044067, 201.9582028388977, 202.92729496955872, 203.10976195335388, 203.8601758480072, 203.97701692581177, 204.09387493133545, 204.21062898635864, 204.3274428844452, 204.44435691833496, 204.56103777885437, 204.67780685424805, 204.79465079307556, 204.91148900985718, 205.0282428264618, 205.145015001297, 205.26164293289185, 205.37852382659912, 205.49522280693054, 205.61208486557007, 205.72904181480408, 205.94398593902588]	[201.84010190360684, 201.95676857026683, 202.93976857026684, 203.10646857026683, 203.85646857026683, 203.97313523692682, 204.08980190358682, 204.2064685702468, 204.3231352369068, 204.4398019035668, 204.5564685702268, 204.6731352368868, 204.7898019035468, 204.90646857020678, 205.02313523686678, 205.13980190352677, 205.25646857018677, 205.37313523684676, 205.48980190350676, 205.60646857016675, 205.72313523682675, 205.95646857016007]	2021_Feb_10_1256	59.89749331307382	1	0.375
29	35	FALSE	NV	a	['V', 'R', 'E', 'S', 'A', 'J', 'Y', 'X', 'N', 'W', 'G', 'B', 'K', 'M', 'H', 'C']	[2245, 1587, 904, 1731, 697, 1029, 2670, 4000, 1335, 2448, 944, 760, 1122, 1224, 986, 829]	8	Present	NA	NA	PRESENT	0.7432661056518555	207.95218801498413	209.9507040977478	210.5340443451866	210.8840462525152	214.06033778190613	4.109633684158325	[207.96449995040894, 208.08119893074036, 209.04367184638977, 209.21581387519836, 209.98329091072083, 210.08323979377747, 210.20011401176453, 210.31707882881165, 210.43376898765564, 210.55056500434875, 210.66736483573914, 210.78420686721802, 210.90085983276367, 211.01785278320312, 211.13442993164062, 211.2512698173523, 211.36807084083557, 211.48486280441284, 211.6018259525299, 211.7185938358307, 211.8353579044342, 212.06033897399902]	[207.95646857016007, 208.07313523682006, 209.05613523682007, 209.22283523682006, 209.97283523682006, 210.08950190348006, 210.20616857014005, 210.32283523680005, 210.43950190346004, 210.55616857012004, 210.67283523678003, 210.78950190344003, 210.90616857010002, 211.02283523676002, 211.13950190342, 211.25616857008, 211.37283523674, 211.4895019034, 211.60616857006, 211.72283523672, 211.83950190337998, 212.0728352367133]	2021_Feb_10_1256	59.89749331307382	1	0.375
29	36	FALSE	NN	a	['W', 'T', 'A', 'M', 'Z', 'S', 'B', 'G', 'V', 'E', 'U', 'Y', 'N', 'P', 'J', 'K']	[2448, 1888, 697, 1224, 2911, 1731, 760, 944, 2245, 904, 2059, 2670, 1335, 1456, 1029, 1122]	12	Absent	NA	NA	ABSENT	0.4917471408843994	214.05870699882507	216.06707000732425	217.11707811349592	217.46708002082457	220.17670488357544	4.109634876251221	[214.07101893424988, 214.18773889541626, 215.16002678871155, 215.33897590637207, 216.08974981307983, 216.2063868045807, 216.32328701019287, 216.44050288200378, 216.55693578720093, 216.673583984375, 216.7905309200287, 216.9071798324585, 217.02423977851868, 217.1407117843628, 217.25777792930603, 217.37446999549866, 217.49137377738953, 217.60807180404663, 217.724937915802, 217.84162592887878, 217.9585258960724, 218.17670392990112]	[214.0728352367133, 214.1895019033733, 215.1725019033733, 215.3392019033733, 216.0892019033733, 216.2058685700333, 216.32253523669328, 216.43920190335328, 216.55586857001327, 216.67253523667327, 216.78920190333326, 216.90586856999326, 217.02253523665325, 217.13920190331325, 217.25586856997325, 217.37253523663324, 217.48920190329324, 217.60586856995323, 217.72253523661323, 217.83920190327322, 217.95586856993322, 218.18920190326654]	2021_Feb_10_1256	59.89749331307382	1	0.375
29	37	FALSE	AN	a	['B', 'Y', 'E', 'W', 'Z', 'surprise', 'A', 'H', 'P', 'G', 'T', 'S', 'V', 'U', 'R', 'K']	[760, 2670, 904, 2448, 2911, 'stimAuditory/all_stimAuditory/123.wav', 697, 986, 1456, 944, 1888, 1731, 2245, 2059, 1587, 1122]	9	Absent	stimAuditory/all_stimAuditory/122.wav	NA	ABSENT	0.4011199474334717	220.18200397491455	222.18313694000244	222.8831440925198	223.2331459998485	226.29307079315183	4.109933853149414	[220.19431400299072, 220.31094884872437, 221.27639484405518, 221.4621868133545, 222.2129819393158, 222.32960391044617, 222.44646000862122, 222.56350779533386, 222.68014979362488, 222.79684901237488, 222.91372299194336, 223.0303909778595, 223.14701080322266, 223.26396584510803, 223.38083791732788, 223.49777579307556, 223.5975468158722, 223.7143828868866, 223.83121490478516, 223.94790482521057, 224.06480884552002, 224.29306983947754]	[220.18920190326654, 220.30586856992653, 221.28886856992654, 221.45556856992653, 222.20556856992653, 222.32223523658652, 222.43890190324652, 222.5555685699065, 222.6722352365665, 222.7889019032265, 222.9055685698865, 223.0222352365465, 223.1389019032065, 223.25556856986648, 223.37223523652648, 223.48890190318647, 223.60556856984647, 223.72223523650646, 223.83890190316646, 223.95556856982645, 224.07223523648645, 224.30556856981977]	2021_Feb_10_1256	59.89749331307382	1	0.375
29	38	FALSE	NV	a	['Z', 'H', 'J', 'K', 'V', 'M', 'G', 'R', 'S', 'X', 'N', 'U', 'P', 'Y', 'E', 'W']	[2911, 986, 1029, 1122, 2245, 1224, 944, 1587, 1731, 4000, 1335, 2059, 1456, 2670, 904, 2448]	10	Present	NA	NA	PRESENT	0.12561798095703125	226.28812789916992	228.29962706565857	229.11630160009167	229.4663037458389	232.40943694114685	4.109809875488281	[226.3004388809204, 226.41745400428772, 227.39276099205017, 227.56850790977478, 228.31929183006287, 228.4362599849701, 228.5529179573059, 228.66976881027222, 228.7864019870758, 228.90338587760925, 229.02010989189148, 229.13677382469177, 229.25379586219788, 229.3703429698944, 229.48732495307922, 229.60391998291016, 229.72084093093872, 229.8375928401947, 229.95443677902222, 230.07110285758972, 230.18806290626526, 230.40943694114685]	[226.30556856981977, 226.42223523647976, 227.40523523647977, 227.57193523647976, 228.32193523647976, 228.43860190313976, 228.55526856979975, 228.67193523645975, 228.78860190311974, 228.90526856977974, 229.02193523643973, 229.13860190309973, 229.25526856975972, 229.37193523641972, 229.4886019030797, 229.6052685697397, 229.7219352363997, 229.8386019030597, 229.9552685697197, 230.0719352363797, 230.18860190303968, 230.421935236373]	2021_Feb_10_1256	59.89749331307382	1	0.375
29	39	FALSE	NA	a	['N', 'A', 'C', 'J', 'S', 'Y', 'K', 'X', 'M', 'E', 'Z', 'U', 'H', 'G', 'B', 'R']	[1335, 697, 829, 1029, 1731, 2670, 1122, 4000, 1224, 904, 2911, 2059, 986, 944, 760, 1587]	8	Present	NA	NA	PRESENT	0.3701610565185547	232.41144609451297	234.41615509986875	234.99949534730757	235.3494972546362	238.52580499649048	4.109649896621704	[232.42375588417053, 232.54086780548096, 233.50912880897522, 233.69166898727417, 234.44248294830322, 234.55923199653625, 234.67607188224792, 234.79272985458374, 234.90957689285278, 235.0263979434967, 235.14327383041382, 235.25986790657043, 235.37678384780884, 235.49357199668884, 235.61022996902466, 235.7272138595581, 235.84405493736267, 235.9606728553772, 236.07767295837402, 236.19438695907593, 236.31105589866638, 236.52580380439758]	[232.421935236373, 232.538601903033, 233.521601903033, 233.688301903033, 234.438301903033, 234.554968569693, 234.67163523635298, 234.78830190301298, 234.90496856967297, 235.02163523633297, 235.13830190299296, 235.25496856965296, 235.37163523631295, 235.48830190297295, 235.60496856963294, 235.72163523629294, 235.83830190295294, 235.95496856961293, 236.07163523627293, 236.18830190293292, 236.30496856959292, 236.53830190292624]	2021_Feb_10_1256	59.89749331307382	1	0.375
29	40	FALSE	NV	a	['R', 'H', 'U', 'T', 'W', 'J', 'S', 'Z', 'X', 'V', 'E', 'P', 'B', 'N', 'G', 'K']	[1587, 986, 2059, 1888, 2448, 1029, 1731, 2911, 4000, 2245, 904, 1456, 760, 1335, 944, 1122]	9	Present	NA	NA	PRESENT	0.2550468444824219	238.5344479084015	240.5324130058289	241.23242111202055	241.5824230193492	244.6421709060669	4.109757900238037	[238.54675889015198, 238.6636619567871, 239.62549495697021, 239.7979199886322, 240.56552481651306, 240.66576480865479, 240.78245878219604, 240.89901995658875, 241.01593494415283, 241.1326389312744, 241.2495448589325, 241.36619877815247, 241.48316478729248, 241.59995794296265, 241.71684980392456, 241.83340883255005, 241.9504508972168, 242.06700778007507, 242.18403577804565, 242.3006467819214, 242.41767692565918, 242.64216995239258]	[238.53830190292624, 238.65496856958623, 239.63796856958623, 239.80466856958623, 240.55466856958623, 240.67133523624622, 240.78800190290622, 240.9046685695662, 241.0213352362262, 241.1380019028862, 241.2546685695462, 241.3713352362062, 241.4880019028662, 241.60466856952618, 241.72133523618618, 241.83800190284617, 241.95466856950617, 242.07133523616616, 242.18800190282616, 242.30466856948615, 242.42133523614615, 242.65466856947947]	2021_Feb_10_1256	59.89749331307382	1	0.375
29	41	FALSE	NA	a	['S', 'N', 'C', 'Z', 'M', 'W', 'H', 'Y', 'E', 'J', 'R', 'U', 'B', 'X', 'G', 'A']	[1731, 1335, 829, 2911, 1224, 2448, 986, 2670, 904, 1029, 1587, 2059, 760, 4000, 944, 697]	14	Present	NA	NA	PRESENT	0.2521059513092041	244.64092898368835	246.64891600608823	247.93225744557995	248.28225935290857	250.7585368156433	4.109620809555054	[244.65323781967163, 244.77010297775269, 245.74185991287231, 245.92115879058838, 246.6719708442688, 246.78886198997498, 246.90570187568665, 247.02239298820496, 247.13916277885437, 247.25583291053772, 247.37282395362854, 247.48945379257202, 247.60637784004211, 247.72308897972107, 247.8398129940033, 247.9565989971161, 248.07360100746155, 248.19025588035583, 248.30700993537903, 248.4238669872284, 248.5404930114746, 248.7585380077362]	[244.65466856947947, 244.77133523613946, 245.75433523613947, 245.92103523613946, 246.67103523613946, 246.78770190279945, 246.90436856945945, 247.02103523611945, 247.13770190277944, 247.25436856943944, 247.37103523609943, 247.48770190275943, 247.60436856941942, 247.72103523607942, 247.8377019027394, 247.9543685693994, 248.0710352360594, 248.1877019027194, 248.3043685693794, 248.4210352360394, 248.53770190269938, 248.7710352360327]	2021_Feb_10_1256	59.89749331307382	1	0.375
29	42	FALSE	AN	a	['W', 'P', 'T', 'K', 'S', 'G', 'surprise', 'R', 'J', 'V', 'M', 'B', 'E', 'C', 'N', 'U']	[2448, 1456, 1888, 1122, 1731, 944, 'stimAuditory/all_stimAuditory/112.wav', 1587, 1029, 2245, 1224, 760, 904, 829, 1335, 2059]	10	Absent	stimAuditory/all_stimAuditory/217.wav	NA	ABSENT	0.1936039924621582	250.7641799449921	252.76524591445923	253.5819206873109	253.93192259463956	256.8749029636383	4.109657049179077	[250.77649092674255, 250.8932499885559, 251.85822677612305, 252.04441285133362, 252.79524183273315, 252.91187381744385, 253.02884483337402, 253.14540696144104, 253.26226997375488, 253.37912678718567, 253.49571895599365, 253.61264491081238, 253.72951793670654, 253.84622192382812, 253.94607281684875, 254.06292986869812, 254.17981791496277, 254.29654097557068, 254.4134328365326, 254.5301468372345, 254.6469509601593, 254.87490391731262]	[250.7710352360327, 250.8877019026927, 251.8707019026927, 252.0374019026927, 252.7874019026927, 252.9040685693527, 253.02073523601268, 253.13740190267268, 253.25406856933267, 253.37073523599267, 253.48740190265266, 253.60406856931266, 253.72073523597265, 253.83740190263265, 253.95406856929264, 254.07073523595264, 254.18740190261263, 254.30406856927263, 254.42073523593263, 254.53740190259262, 254.65406856925262, 254.88740190258594]	2021_Feb_10_1256	59.89749331307382	1	0.375
29	43	FALSE	NN	a	['N', 'J', 'S', 'B', 'H', 'Y', 'R', 'U', 'M', 'G', 'W', 'A', 'T', 'K', 'E', 'P']	[1335, 1029, 1731, 760, 986, 2670, 1587, 2059, 1224, 944, 2448, 697, 1888, 1122, 904, 1456]	11	Absent	NA	NA	ABSENT	0.7096729278564453	256.87029099464417	258.88177704811096	259.8151182492041	260.16512039495126	262.99127078056335	4.109493732452393	[256.88260078430176, 256.9994947910309, 257.97459387779236, 258.1506869792938, 258.9015369415283, 259.018269777298, 259.1352229118347, 259.2519919872284, 259.3687319755554, 259.48557782173157, 259.6022608280182, 259.7189738750458, 259.8358459472656, 259.9525008201599, 260.06936478614807, 260.1861310005188, 260.30303382873535, 260.419784784317, 260.53666400909424, 260.65336084365845, 260.7702589035034, 260.99127078056335]	[256.8874019025859, 257.00406856924593, 257.98706856924593, 258.1537685692459, 258.9037685692459, 259.02043523590595, 259.137101902566, 259.253768569226, 259.370435235886, 259.48710190254604, 259.60376856920607, 259.7204352358661, 259.8371019025261, 259.95376856918614, 260.07043523584616, 260.1871019025062, 260.3037685691662, 260.42043523582623, 260.53710190248626, 260.6537685691463, 260.7704352358063, 261.00376856913965]	2021_Feb_10_1256	59.89749331307382	1	0.375
29	44	FALSE	NV	a	['H', 'E', 'K', 'B', 'J', 'Y', 'W', 'A', 'Z', 'V', 'C', 'M', 'X', 'R', 'T', 'N']	[986, 904, 1122, 760, 1029, 2670, 2448, 697, 2911, 2245, 829, 1224, 4000, 1587, 1888, 1335]	13	Present	NA	NA	PRESENT	0.09849786758422852	262.9936361312866	264.9980869293213	266.164761702153	266.51476360948163	269.10763788223267	4.109550952911377	[263.00594687461853, 263.1228039264679, 264.090961933136, 264.2737138271332, 265.0246329307556, 265.14135789871216, 265.25828194618225, 265.3751440048218, 265.4918279647827, 265.60853600502014, 265.7253818511963, 265.8422269821167, 265.95888090133667, 266.0755867958069, 266.1924707889557, 266.3093738555908, 266.4260609149933, 266.54303097724915, 266.6597988605499, 266.77652978897095, 266.8932328224182, 267.10763788223267]	[263.00376856913965, 263.1204352357997, 264.1034352357997, 264.27013523579967, 265.02013523579967, 265.1368019024597, 265.2534685691197, 265.37013523577974, 265.48680190243977, 265.6034685690998, 265.7201352357598, 265.83680190241984, 265.95346856907986, 266.0701352357399, 266.1868019023999, 266.30346856905993, 266.42013523571995, 266.53680190238, 266.65346856904, 266.7701352357, 266.88680190236005, 267.1201352356934]	2021_Feb_10_1256	59.89749331307382	1	0.375
29	45	FALSE	NA	a	['Y', 'C', 'T', 'J', 'K', 'P', 'M', 'X', 'R', 'A', 'W', 'N', 'V', 'Z', 'E', 'G']	[2670, 829, 1888, 1029, 1122, 1456, 1224, 4000, 1587, 697, 2448, 1335, 2245, 2911, 904, 944]	8	Present	NA	NA	PRESENT	0.22390294075012207	269.1167619228363	271.1142420768738	271.6975832779869	272.0475854237341	275.224004983902	4.109762907028198	[269.1290719509125, 269.2289249897003, 270.2073268890381, 270.3801338672638, 271.1309030056, 271.2479269504547, 271.3646938800812, 271.4815318584442, 271.5981948375702, 271.71503591537476, 271.83184790611267, 271.94846391677856, 272.06544494628906, 272.1821098327637, 272.29903292655945, 272.41564297676086, 272.53275179862976, 272.64930391311646, 272.76606583595276, 272.8829038143158, 272.9998209476471, 273.224004983902]	[269.1201352356934, 269.2368019023534, 270.2198019023534, 270.3865019023534, 271.1365019023534, 271.25316856901344, 271.36983523567346, 271.4865019023335, 271.6031685689935, 271.71983523565353, 271.83650190231356, 271.9531685689736, 272.0698352356336, 272.1865019022936, 272.30316856895365, 272.4198352356137, 272.5365019022737, 272.6531685689337, 272.76983523559375, 272.88650190225377, 273.0031685689138, 273.23650190224714]	2021_Feb_10_1256	59.89749331307382	1	0.375
29	46	FALSE	NA	a	['U', 'Y', 'W', 'V', 'N', 'C', 'B', 'A', 'M', 'E', 'X', 'J', 'S', 'P', 'K', 'G']	[2059, 2670, 2448, 2245, 1335, 829, 760, 697, 1224, 904, 4000, 1029, 1731, 1456, 1122, 944]	11	Present	NA	NA	PRESENT	0.08432197570800781	275.22316789627075	277.2304708957672	278.1638123352789	278.5138142426075	281.3403708934784	4.109899997711182	[275.23547887802124, 275.3521490097046, 276.3236949443817, 276.50355100631714, 277.25425386428833, 277.3709478378296, 277.4879868030548, 277.60466480255127, 277.7213068008423, 277.8381779193878, 277.95477390289307, 278.07165789604187, 278.18833899497986, 278.3051948547363, 278.42188692092896, 278.5389108657837, 278.655788898468, 278.7724099159241, 278.88917994499207, 279.0060429573059, 279.1227059364319, 279.3403699398041]	[275.23650190224714, 275.35316856890717, 276.33616856890717, 276.50286856890716, 277.25286856890716, 277.3695352355672, 277.4862019022272, 277.60286856888723, 277.71953523554726, 277.8362019022073, 277.9528685688673, 278.0695352355273, 278.18620190218735, 278.3028685688474, 278.4195352355074, 278.5362019021674, 278.65286856882744, 278.76953523548747, 278.8862019021475, 279.0028685688075, 279.11953523546754, 279.3528685688009]	2021_Feb_10_1256	59.89749331307382	1	0.375
29	47	FALSE	NV	a	['U', 'T', 'S', 'K', 'H', 'Z', 'M', 'G', 'W', 'P', 'J', 'X', 'V', 'B', 'Y', 'A']	[2059, 1888, 1731, 1122, 986, 2911, 1224, 944, 2448, 1456, 1029, 4000, 2245, 760, 2670, 697]	12	Present	NA	NA	PRESENT	0.1937739849090576	281.3460509777069	283.3469560146332	284.39696292871196	284.7469650744592	287.4567379951477	4.109781980514526	[281.3583619594574, 281.47531390190125, 282.44006085395813, 282.62684392929077, 283.3773818016052, 283.49424481391907, 283.6108248233795, 283.72755694389343, 283.8445348739624, 283.9612658023834, 284.07793283462524, 284.17799401283264, 284.2948658466339, 284.41156482696533, 284.52829694747925, 284.64512300491333, 284.7619438171387, 284.8786919116974, 284.99551796913147, 285.1124029159546, 285.2291419506073, 285.4567368030548]	[281.3528685688009, 281.4695352354609, 282.4525352354609, 282.6192352354609, 283.3692352354609, 283.48590190212093, 283.60256856878095, 283.719235235441, 283.835901902101, 283.952568568761, 284.06923523542105, 284.18590190208107, 284.3025685687411, 284.4192352354011, 284.53590190206114, 284.65256856872116, 284.7692352353812, 284.8859019020412, 285.00256856870124, 285.11923523536126, 285.2359019020213, 285.46923523535463]	2021_Feb_10_1256	59.89749331307382	1	0.375
29	48	FALSE	AA	a	['Y', 'C', 'R', 'P', 'N', 'G', 'B', 'surprise', 'W', 'K', 'X', 'S', 'M', 'J', 'U', 'E']	[2670, 829, 1587, 1456, 1335, 944, 760, 'stimAuditory/all_stimAuditory/221.wav', 2448, 1122, 4000, 1731, 1224, 1029, 2059, 904]	11	Present	stimAuditory/all_stimAuditory/104.wav	NA	PRESENT	0.07053995132446289	287.4526801109314	289.4635419845581	290.3968834240698	290.7468853313984	293.5731039047241	4.109561920166016	[287.464989900589, 287.581818819046, 288.5564298629761, 288.7330448627472, 289.4837667942047, 289.6005048751831, 289.7174439430237, 289.83412194252014, 289.95103693008423, 290.06772899627686, 290.1845169067383, 290.3012399673462, 290.4178857803345, 290.53480982780457, 290.651615858078, 290.7683198451996, 290.88533878326416, 291.0019359588623, 291.11896800994873, 291.2356050014496, 291.35234785079956, 291.57310485839844]	[287.46923523535463, 287.58590190201465, 288.56890190201466, 288.73560190201465, 289.48560190201465, 289.6022685686747, 289.7189352353347, 289.8356019019947, 289.95226856865474, 290.06893523531477, 290.1856019019748, 290.3022685686348, 290.41893523529484, 290.53560190195486, 290.6522685686149, 290.7689352352749, 290.88560190193493, 291.00226856859496, 291.118935235255, 291.235601901915, 291.352268568575, 291.5856019019084]	2021_Feb_10_1256	59.89749331307382	1	0.375
29	49	FALSE	NV	a	['P', 'R', 'M', 'Y', 'G', 'N', 'K', 'T', 'A', 'E', 'B', 'S', 'X', 'C', 'Z', 'J']	[1456, 1587, 1224, 2670, 944, 1335, 1122, 1888, 697, 904, 760, 1731, 4000, 829, 2911, 1029]	13	Present	NA	NA	PRESENT	0.16275906562805176	293.5761170387268	295.5800929069519	296.7467667261093	297.09676958711225	299.68947100639343	4.109378099441528	[293.5884277820587, 293.70494985580444, 294.6727948188782, 294.85612988471985, 295.60691499710083, 295.72367882728577, 295.84048891067505, 295.95740699768066, 296.0738868713379, 296.19099593162537, 296.3075067996979, 296.42429280281067, 296.541268825531, 296.6580159664154, 296.774915933609, 296.8914358615875, 297.0083568096161, 297.1251518726349, 297.2417769432068, 297.35855293273926, 297.4754159450531, 297.68946981430054]	[293.5856019019084, 293.7022685685684, 294.6852685685684, 294.8519685685684, 295.6019685685684, 295.7186352352284, 295.83530190188844, 295.95196856854847, 296.0686352352085, 296.1853019018685, 296.30196856852854, 296.41863523518856, 296.5353019018486, 296.6519685685086, 296.76863523516863, 296.88530190182865, 297.0019685684887, 297.1186352351487, 297.2353019018087, 297.35196856846875, 297.4686352351288, 297.7019685684621]	2021_Feb_10_1256	59.89749331307382	1	0.375
29	50	FALSE	NA	a	['Y', 'S', 'T', 'J', 'M', 'A', 'V', 'G', 'H', 'U', 'N', 'B', 'X', 'K', 'E', 'P']	[2670, 1731, 1888, 1029, 1224, 697, 2245, 944, 986, 2059, 1335, 760, 4000, 1122, 904, 1456]	13	Present	NA	NA	PRESENT	0.1761939525604248	299.6988821029663	301.6962161064148	302.8628896871536	303.21289159448224	305.80583786964417	4.10962176322937	[299.7111928462982, 299.81115794181824, 300.78915882110596, 300.96244597435, 301.71307587623596, 301.8299779891968, 301.9469289779663, 302.0635349750519, 302.18061780929565, 302.29711079597473, 302.41399693489075, 302.5306508541107, 302.64760088920593, 302.76433086395264, 302.8812029361725, 302.99787878990173, 303.11478781700134, 303.2314028739929, 303.3484117984772, 303.4652988910675, 303.58215379714966, 303.80583691596985]	[299.7019685684621, 299.81863523512214, 300.80163523512215, 300.96833523512214, 301.71833523512214, 301.83500190178216, 301.9516685684422, 302.0683352351022, 302.18500190176223, 302.30166856842226, 302.4183352350823, 302.5350019017423, 302.65166856840233, 302.76833523506235, 302.8850019017224, 303.0016685683824, 303.1183352350424, 303.23500190170245, 303.35166856836247, 303.4683352350225, 303.5850019016825, 303.81833523501587]	2021_Feb_10_1256	59.89749331307382	1	0.375
29	51	FALSE	NV	a	['Y', 'S', 'H', 'M', 'V', 'W', 'E', 'X', 'T', 'G', 'U', 'A', 'C', 'K', 'Z', 'P']	[2670, 1731, 986, 1224, 2245, 2448, 904, 4000, 1888, 944, 2059, 697, 829, 1122, 2911, 1456]	8	Present	NA	NA	PRESENT	0.02049589157104492	305.80543994903564	307.8126950263977	308.3960352738365	308.74603741958373	311.9222049713135	4.1095099449157715	[305.81775093078613, 305.93444991111755, 306.9055268764496, 307.0856509208679, 307.8363389968872, 307.95313692092896, 308.06996297836304, 308.1868109703064, 308.30353689193726, 308.4204099178314, 308.5371677875519, 308.6539030075073, 308.77054595947266, 308.8875398635864, 309.0041239261627, 309.1209969520569, 309.23798394203186, 309.35475492477417, 309.47144079208374, 309.58837485313416, 309.7050278186798, 309.9222037792206]	[305.81833523501587, 305.9350019016759, 306.9180019016759, 307.0847019016759, 307.8347019016759, 307.9513685683359, 308.06803523499593, 308.18470190165596, 308.301368568316, 308.418035234976, 308.534701901636, 308.65136856829605, 308.7680352349561, 308.8847019016161, 309.0013685682761, 309.11803523493614, 309.23470190159617, 309.3513685682562, 309.4680352349162, 309.58470190157624, 309.70136856823626, 309.9347019015696]	2021_Feb_10_1256	59.89749331307382	1	0.375
29	52	FALSE	VN	a	['M', 'E', 'Y', 'S', 'C', 'T', 'surprise', 'H', 'W', 'B', 'R', 'N', 'K', 'P', 'A', 'Z']	[1224, 904, 2670, 1731, 829, 1888, 'stimAuditory/all_stimAuditory/209.wav', 986, 2448, 760, 1587, 1335, 1122, 1456, 697, 2911]	10	Absent	NA	NA	ABSENT	0.281980037689209	311.9284300804138	313.9286150932312	314.74528867399	315.09529058131864	318.0385708808899	4.109955787658691	[311.9407398700714, 312.0576767921448, 313.02189588546753, 313.208575963974, 313.9599440097809, 314.0764729976654, 314.17619800567627, 314.2930338382721, 314.40993881225586, 314.52675700187683, 314.6434178352356, 314.76015996932983, 314.8769369125366, 314.9937307834625, 315.1105308532715, 315.22740292549133, 315.34419679641724, 315.46097779273987, 315.57769894599915, 315.69461488723755, 315.81132888793945, 316.0385699272156]	[311.9347019015696, 312.05136856822963, 313.03436856822964, 313.20106856822963, 313.95106856822963, 314.06773523488965, 314.1844019015497, 314.3010685682097, 314.4177352348697, 314.53440190152975, 314.65106856818977, 314.7677352348498, 314.8844019015098, 315.00106856816984, 315.11773523482987, 315.2344019014899, 315.3510685681499, 315.46773523480994, 315.58440190146996, 315.70106856813, 315.81773523479, 316.05106856812336]	2021_Feb_10_1256	59.89749331307382	1	0.375
29	53	FALSE	NV	a	['W', 'G', 'R', 'S', 'U', 'K', 'C', 'J', 'T', 'Y', 'B', 'X', 'V', 'P', 'A', 'Z']	[2448, 944, 1587, 1731, 2059, 1122, 829, 1029, 1888, 2670, 760, 4000, 2245, 1456, 697, 2911]	12	Present	NA	NA	PRESENT	0.03862786293029785	318.0348091125488	320.0453190803528	321.09532599443156	321.4453290938531	324.1549379825592	4.109618902206421	[318.0471189022064, 318.16406083106995, 319.1382598876953, 319.31525182724, 320.06589698791504, 320.18262696266174, 320.299596786499, 320.4162349700928, 320.53318190574646, 320.64988589286804, 320.7667758464813, 320.88353085517883, 321.0001938343048, 321.11696195602417, 321.2338378429413, 321.3505189418793, 321.467209815979, 321.5842909812927, 321.70086693763733, 321.8178668022156, 321.93478894233704, 322.1549367904663]	[318.05106856812336, 318.1677352347834, 319.1507352347834, 319.3174352347834, 320.0674352347834, 320.1841019014434, 320.3007685681034, 320.41743523476345, 320.53410190142347, 320.6507685680835, 320.7674352347435, 320.88410190140354, 321.00076856806356, 321.1174352347236, 321.2341019013836, 321.35076856804363, 321.46743523470366, 321.5841019013637, 321.7007685680237, 321.8174352346837, 321.93410190134375, 322.1674352346771]	2021_Feb_10_1256	59.89749331307382	1	0.375
29	54	FALSE	NN	a	['M', 'H', 'Y', 'W', 'R', 'N', 'G', 'V', 'E', 'U', 'Z', 'J', 'B', 'S', 'A', 'P']	[1224, 986, 2670, 2448, 1587, 1335, 944, 2245, 904, 2059, 2911, 1029, 760, 1731, 697, 1456]	12	Absent	NA	NA	ABSENT	0.0989210605621338	324.15825390815735	326.1615879535675	327.21159510606486	327.5615970133935	330.2713038921356	4.109715938568115	[324.17056488990784, 324.28713178634644, 325.2546269893646, 325.4381709098816, 326.18897795677185, 326.3059649467468, 326.42254400253296, 326.5395529270172, 326.65613079071045, 326.77314591407776, 326.88982582092285, 327.0065939426422, 327.12336778640747, 327.24005579948425, 327.35674381256104, 327.47381496429443, 327.59063482284546, 327.70733880996704, 327.8242588043213, 327.9408779144287, 328.0577929019928, 328.27130699157715]	[324.1674352346771, 324.2841019013371, 325.2671019013371, 325.4338019013371, 326.1838019013371, 326.30046856799714, 326.41713523465717, 326.5338019013172, 326.6504685679772, 326.76713523463724, 326.88380190129726, 327.0004685679573, 327.1171352346173, 327.23380190127733, 327.35046856793736, 327.4671352345974, 327.5838019012574, 327.7004685679174, 327.81713523457745, 327.9338019012375, 328.0504685678975, 328.28380190123085]	2021_Feb_10_1256	59.89749331307382	1	0.375
29	55	FALSE	NV	a	['A', 'V', 'C', 'P', 'B', 'J', 'Y', 'T', 'N', 'S', 'K', 'X', 'Z', 'M', 'E', 'G']	[697, 2245, 829, 1456, 760, 1029, 2670, 1888, 1335, 1731, 1122, 4000, 2911, 1224, 904, 944]	12	Present	NA	NA	PRESENT	0.21631288528442383	330.26424407958984	332.2778820991516	333.3278899669047	333.67789211265193	336.38767099380493	4.10978889465332	[330.27655386924744, 330.3933629989624, 331.3710038661957, 331.5447039604187, 332.29531383514404, 332.4121849536896, 332.5290689468384, 332.6458098888397, 332.76272678375244, 332.8793959617615, 332.9963779449463, 333.11298990249634, 333.22977685928345, 333.3465418815613, 333.4634277820587, 333.58036279678345, 333.6969997882843, 333.8136839866638, 333.93043398857117, 334.0473189353943, 334.1642189025879, 334.38766980171204]	[330.28380190123085, 330.40046856789087, 331.3834685678909, 331.55016856789086, 332.30016856789086, 332.4168352345509, 332.5335019012109, 332.65016856787094, 332.76683523453096, 332.883501901191, 333.000168567851, 333.11683523451103, 333.23350190117105, 333.3501685678311, 333.4668352344911, 333.5835019011511, 333.70016856781115, 333.81683523447117, 333.9335019011312, 334.0501685677912, 334.16683523445124, 334.4001685677846]	2021_Feb_10_1256	59.89749331307382	1	0.375
29	56	FALSE	NV	a	['B', 'A', 'S', 'M', 'P', 'H', 'W', 'V', 'R', 'N', 'Y', 'X', 'T', 'J', 'G', 'Z']	[760, 697, 1731, 1224, 1456, 986, 2448, 2245, 1587, 1335, 2670, 4000, 1888, 1029, 944, 2911]	12	Present	NA	NA	PRESENT	0.12468600273132324	336.38758611679077	338.39436292648315	339.44437103265483	339.7943729399835	342.50403785705566	4.10967493057251	[336.3998968601227, 336.5166389942169, 337.487361907959, 337.6677739620209, 338.4185609817505, 338.5353899002075, 338.652184009552, 338.7690358161926, 338.88579297065735, 339.00264978408813, 339.1194260120392, 339.2361259460449, 339.35309982299805, 339.46969294548035, 339.58654284477234, 339.70335578918457, 339.81998801231384, 339.9372568130493, 340.0537519454956, 340.170530796051, 340.2872178554535, 340.50403785705566]	[336.4001685677846, 336.5168352344446, 337.4998352344446, 337.6665352344446, 338.4165352344446, 338.53320190110463, 338.64986856776466, 338.7665352344247, 338.8832019010847, 338.9998685677447, 339.11653523440475, 339.2332019010648, 339.3498685677248, 339.4665352343848, 339.58320190104484, 339.69986856770487, 339.8165352343649, 339.9332019010249, 340.04986856768494, 340.16653523434496, 340.283201901005, 340.51653523433833]	2021_Feb_10_1256	59.89749331307382	1	0.375
29	57	FALSE	NA	a	['T', 'H', 'J', 'V', 'U', 'R', 'Y', 'P', 'E', 'Z', 'A', 'X', 'G', 'W', 'M', 'C']	[1888, 986, 1029, 2245, 2059, 1587, 2670, 1456, 904, 2911, 697, 4000, 944, 2448, 1224, 829]	12	Present	NA	NA	PRESENT	0.07417011260986328	342.5106770992279	344.5107309818268	345.56073908799846	345.9107409953271	348.620404958725	4.109673976898193	[342.5229868888855, 342.6396667957306, 343.6037290096283, 343.7911329269409, 344.541711807251, 344.64168977737427, 344.75842785835266, 344.8752589225769, 344.99203300476074, 345.1088778972626, 345.2257239818573, 345.3425188064575, 345.4592618942261, 345.57600378990173, 345.6929187774658, 345.80954790115356, 345.9264039993286, 346.0431489944458, 346.15993189811707, 346.27685379981995, 346.39369678497314, 346.62040400505066]	[342.51653523433833, 342.63320190099836, 343.61620190099836, 343.78290190099835, 344.53290190099835, 344.6495685676584, 344.7662352343184, 344.8829019009784, 344.99956856763845, 345.1162352342985, 345.2329019009585, 345.3495685676185, 345.46623523427854, 345.58290190093857, 345.6995685675986, 345.8162352342586, 345.93290190091864, 346.04956856757866, 346.1662352342387, 346.2829019008987, 346.39956856755873, 346.6329019008921]	2021_Feb_10_1256	59.89749331307382	1	0.375
29	58	FALSE	NV	a	['A', 'M', 'P', 'T', 'G', 'N', 'Y', 'E', 'J', 'S', 'U', 'K', 'X', 'Z', 'B', 'V']	[697, 1224, 1456, 1888, 944, 1335, 2670, 904, 1029, 1731, 2059, 1122, 4000, 2911, 760, 2245]	13	Present	NA	NA	PRESENT	0.1826939582824707	348.6171181201935	350.62713408470154	351.79380766544034	352.1438107648619	354.7367699146271	4.109635829925537	[348.6294288635254, 348.7460889816284, 349.7200949192047, 349.8973898887634, 350.6479618549347, 350.7650067806244, 350.8818008899689, 350.99859595298767, 351.1153988838196, 351.2321798801422, 351.34905195236206, 351.4655909538269, 351.58245396614075, 351.6992709636688, 351.81589794158936, 351.9327747821808, 352.04946184158325, 352.1665279865265, 352.28308296203613, 352.4000458717346, 352.516765832901, 352.7367699146271]	[348.6329019008921, 348.7495685675521, 349.7325685675521, 349.8992685675521, 350.6492685675521, 350.7659352342121, 350.88260190087215, 350.99926856753217, 351.1159352341922, 351.2326019008522, 351.34926856751224, 351.46593523417226, 351.5826019008323, 351.6992685674923, 351.81593523415233, 351.93260190081236, 352.0492685674724, 352.1659352341324, 352.28260190079243, 352.39926856745245, 352.5159352341125, 352.7492685674458]	2021_Feb_10_1256	59.89749331307382	1	0.375
29	59	FALSE	NV	a	['P', 'N', 'C', 'Z', 'V', 'E', 'M', 'R', 'T', 'X', 'G', 'A', 'K', 'S', 'J', 'H']	[1456, 1335, 829, 2911, 2245, 904, 1224, 1587, 1888, 4000, 944, 697, 1122, 1731, 1029, 986]	10	Present	NA	NA	PRESENT	0.07523703575134277	354.7403280735016	356.74338603019714	357.56006056463025	357.9100627103775	360.8531367778778	4.109750747680664	[354.7526388168335, 354.8692808151245, 355.83646297454834, 356.02054500579834, 356.7711749076843, 356.88816595077515, 357.00475692749023, 357.1216719150543, 357.2383918762207, 357.3552429676056, 357.47193694114685, 357.5888648033142, 357.7057809829712, 357.82247591018677, 357.9391579627991, 358.05603790283203, 358.1727468967438, 358.2895739078522, 358.4061529636383, 358.52300786972046, 358.63997197151184, 358.8531367778778]	[354.7492685674458, 354.86593523410585, 355.84893523410585, 356.01563523410584, 356.76563523410584, 356.88230190076587, 356.9989685674259, 357.1156352340859, 357.23230190074594, 357.34896856740596, 357.465635234066, 357.582301900726, 357.69896856738603, 357.81563523404606, 357.9323019007061, 358.0489685673661, 358.1656352340261, 358.28230190068615, 358.3989685673462, 358.5156352340062, 358.6323019006662, 358.86563523399957]	2021_Feb_10_1256	59.89749331307382	1	0.375
29	60	FALSE	NV	a	['A', 'H', 'G', 'B', 'U', 'N', 'E', 'P', 'J', 'K', 'X', 'R', 'C', 'Y', 'V', 'T']	[697, 986, 944, 760, 2059, 1335, 904, 1456, 1029, 1122, 4000, 1587, 829, 2670, 2245, 1888]	11	Present	NA	NA	PRESENT	0.22452306747436523	360.8465049266815	362.8598771095276	363.7932183106207	364.1432204563679	366.9695038795471	4.109626770019531	[360.85884499549866, 360.97560596466064, 361.9528298377991, 362.12691497802734, 362.8775749206543, 362.99446296691895, 363.11138892173767, 363.22802996635437, 363.34493589401245, 363.4615159034729, 363.5785210132599, 363.69530487060547, 363.81211590766907, 363.92886900901794, 364.0455629825592, 364.1623718738556, 364.2790768146515, 364.3960268497467, 364.5129189491272, 364.62966084480286, 364.74629378318787, 364.9695038795471]	[360.86563523399957, 360.9823019006596, 361.9653019006596, 362.1320019006596, 362.8820019006596, 362.9986685673196, 363.11533523397964, 363.23200190063966, 363.3486685672997, 363.4653352339597, 363.58200190061973, 363.69866856727975, 363.8153352339398, 363.9320019005998, 364.0486685672598, 364.16533523391985, 364.28200190057987, 364.3986685672399, 364.5153352338999, 364.63200190055994, 364.74866856721997, 364.9820019005533]	2021_Feb_10_1256	59.89749331307382	1	0.375
29	61	FALSE	NV	a	['H', 'V', 'J', 'K', 'R', 'N', 'M', 'W', 'S', 'E', 'B', 'X', 'P', 'Y', 'A', 'G']	[986, 2245, 1029, 1122, 1587, 1335, 1224, 2448, 1731, 904, 760, 4000, 1456, 2670, 697, 944]	12	Present	NA	NA	PRESENT	0.06108713150024414	366.96969389915466	368.9762680530548	370.0262759208079	370.37627806655513	373.08586978912354	4.109601736068726	[366.98200392723083, 367.09884095191956, 368.06919598579407, 368.2500858306885, 369.0006229877472, 369.1176528930664, 369.23441100120544, 369.3512690067291, 369.46792697906494, 369.58479499816895, 369.70150780677795, 369.8184518814087, 369.9351170063019, 370.0520899295807, 370.1687288284302, 370.28548884391785, 370.40221881866455, 370.5189719200134, 370.63583183288574, 370.75269889831543, 370.8694508075714, 371.08587098121643]	[366.9820019005533, 367.09866856721334, 368.08166856721334, 368.24836856721333, 368.99836856721333, 369.11503523387336, 369.2317019005334, 369.3483685671934, 369.4650352338534, 369.58170190051345, 369.6983685671735, 369.8150352338335, 369.9317019004935, 370.04836856715355, 370.16503523381357, 370.2817019004736, 370.3983685671336, 370.51503523379364, 370.63170190045366, 370.7483685671137, 370.8650352337737, 371.09836856710706]	2021_Feb_10_1256	59.89749331307382	1	0.375
29	62	FALSE	VV	a	['Z', 'R', 'H', 'C', 'M', 'A', 'P', 'surprise', 'G', 'J', 'X', 'N', 'S', 'Y', 'V', 'U']	[2911, 1587, 986, 829, 1224, 697, 1456, 'stimAuditory/all_stimAuditory/107.wav', 944, 1029, 4000, 1335, 1731, 2670, 2245, 2059]	11	Present	NA	NA	PRESENT	0.24242806434631348	373.0929388999939	375.0926361083984	376.0259773094916	376.37597945523873	379.2022378444672	4.109601736068726	[373.10524892807007, 373.2218179702759, 374.18555879592896, 374.3731517791748, 375.12422490119934, 375.22388100624084, 375.3407189846039, 375.45747995376587, 375.574266910553, 375.6910138130188, 375.80791091918945, 375.9246368408203, 376.04149985313416, 376.1583499908447, 376.2751009464264, 376.39179396629333, 376.5084979534149, 376.6255569458008, 376.74208998680115, 376.85915994644165, 376.97576093673706, 377.20223689079285]	[373.09836856710706, 373.2150352337671, 374.1980352337671, 374.3647352337671, 375.1147352337671, 375.2314019004271, 375.3480685670871, 375.46473523374715, 375.5814019004072, 375.6980685670672, 375.8147352337272, 375.93140190038724, 376.04806856704727, 376.1647352337073, 376.2814019003673, 376.39806856702734, 376.51473523368736, 376.6314019003474, 376.7480685670074, 376.86473523366743, 376.98140190032746, 377.2147352336608]	2021_Feb_10_1256	59.89749331307382	1	0.375
29	63	FALSE	NN	a	['K', 'T', 'W', 'S', 'C', 'R', 'M', 'Z', 'H', 'E', 'B', 'A', 'V', 'Y', 'G', 'P']	[1122, 1888, 2448, 1731, 829, 1587, 1224, 2911, 986, 904, 760, 697, 2245, 2670, 944, 1456]	12	Absent	NA	NA	ABSENT	0.13491010665893555	379.1993889808655	381.2088170051574	382.25882511132914	382.6088270186578	385.31860399246216	4.1097869873046875	[379.21169900894165, 379.328332901001, 380.3019289970398, 380.4796259403229, 381.2303659915924, 381.3472578525543, 381.4637658596039, 381.58088278770447, 381.6975619792938, 381.81434988975525, 381.9309878349304, 382.04790782928467, 382.16459798812866, 382.28162384033203, 382.3981750011444, 382.51513600349426, 382.6318287849426, 382.7484178543091, 382.86547589302063, 382.9820559024811, 383.098974943161, 383.31860399246216]	[379.2147352336608, 379.3314019003208, 380.31440190032083, 380.4811019003208, 381.2311019003208, 381.34776856698085, 381.46443523364087, 381.5811019003009, 381.6977685669609, 381.81443523362094, 381.93110190028096, 382.047768566941, 382.164435233601, 382.28110190026104, 382.39776856692106, 382.5144352335811, 382.6311019002411, 382.74776856690113, 382.86443523356115, 382.9811019002212, 383.0977685668812, 383.33110190021455]	2021_Feb_10_1256	59.89749331307382	1	0.375
29	64	FALSE	NN	a	['W', 'H', 'J', 'C', 'M', 'U', 'K', 'R', 'P', 'B', 'N', 'Z', 'A', 'E', 'V', 'S']	[2448, 986, 1029, 829, 1224, 2059, 1122, 1587, 1456, 760, 1335, 2911, 697, 904, 2245, 1731]	10	Absent	NA	NA	ABSENT	0.4195718765258789	385.3226959705353	387.32542395591736	388.14209872876904	388.4920996824234	391.4349708557129	4.109546899795532	[385.33500695228577, 385.4515109062195, 386.4182949066162, 386.6026659011841, 387.35329484939575, 387.47027492523193, 387.5871069431305, 387.70390486717224, 387.8207528591156, 387.9375247955322, 388.0542039871216, 388.1708610057831, 388.2879059314728, 388.4045329093933, 388.5214729309082, 388.63824582099915, 388.7547709941864, 388.8716549873352, 388.9885699748993, 389.1052157878876, 389.22207283973694, 389.4349708557129]	[385.33110190021455, 385.4477685668746, 386.4307685668746, 386.59746856687457, 387.34746856687457, 387.4641352335346, 387.5808019001946, 387.69746856685464, 387.81413523351466, 387.9308019001747, 388.0474685668347, 388.16413523349473, 388.28080190015476, 388.3974685668148, 388.5141352334748, 388.6308019001348, 388.74746856679485, 388.8641352334549, 388.9808019001149, 389.0974685667749, 389.21413523343494, 389.4474685667683]	2021_Feb_10_1256	59.89749331307382	1	0.375
29	65	FALSE	NA	a	['A', 'G', 'P', 'M', 'E', 'U', 'K', 'X', 'S', 'T', 'H', 'J', 'Z', 'N', 'W', 'B']	[697, 944, 1456, 1224, 904, 2059, 1122, 4000, 1731, 1888, 986, 1029, 2911, 1335, 2448, 760]	8	Present	NA	NA	PRESENT	0.1448049545288086	391.4286069869995	393.4415729045868	394.0249143441185	394.37491625144713	397.5513379573822	4.10976505279541	[391.44091796875, 391.5577828884125, 392.5346620082855, 392.70899391174316, 393.4596920013428, 393.5767569541931, 393.693482875824, 393.8102478981018, 393.9269437789917, 394.04389095306396, 394.16058588027954, 394.2774348258972, 394.39409279823303, 394.51141691207886, 394.62777400016785, 394.74476885795593, 394.8611898422241, 394.9781458377838, 395.0950617790222, 395.2115960121155, 395.3284149169922, 395.5513389110565]	[391.4474685667683, 391.5641352334283, 392.5471352334283, 392.7138352334283, 393.4638352334283, 393.58050190008834, 393.69716856674836, 393.8138352334084, 393.9305019000684, 394.04716856672843, 394.16383523338845, 394.2805019000485, 394.3971685667085, 394.5138352333685, 394.63050190002855, 394.7471685666886, 394.8638352333486, 394.9805019000086, 395.09716856666864, 395.21383523332867, 395.3305018999887, 395.56383523332204]	2021_Feb_10_1256	59.89749331307382	1	0.375
29	66	FALSE	NV	a	['W', 'T', 'S', 'N', 'E', 'G', 'J', 'H', 'M', 'P', 'U', 'C', 'R', 'X', 'Z', 'K']	[2448, 1888, 1731, 1335, 904, 944, 1029, 986, 1224, 1456, 2059, 829, 1587, 4000, 2911, 1122]	14	Present	NA	NA	PRESENT	0.1253950595855713	397.5520029067993	399.55787801742554	400.8412182648243	401.19122041057153	403.6677038669586	4.109825849533081	[397.5643129348755, 397.6810247898102, 398.65102791786194, 398.83220982551575, 399.5830488204956, 399.69975900650024, 399.81670093536377, 399.9337999820709, 400.05011081695557, 400.16710090637207, 400.2837028503418, 400.40051794052124, 400.5172119140625, 400.63420391082764, 400.7511508464813, 400.8676779270172, 400.98463892936707, 401.1012558937073, 401.21808981895447, 401.33481788635254, 401.45175290107727, 401.6677029132843]	[397.56383523332204, 397.68050189998206, 398.66350189998207, 398.83020189998206, 399.58020189998206, 399.6968685666421, 399.8135352333021, 399.9302018999621, 400.04686856662215, 400.1635352332822, 400.2802018999422, 400.3968685666022, 400.51353523326225, 400.63020189992227, 400.7468685665823, 400.8635352332423, 400.98020189990234, 401.09686856656236, 401.2135352332224, 401.3302018998824, 401.44686856654243, 401.6802018998758]	2021_Feb_10_1256	59.89749331307382	1	0.375
29	67	FALSE	NA	a	['G', 'M', 'T', 'N', 'B', 'P', 'H', 'Z', 'V', 'X', 'Y', 'J', 'U', 'E', 'S', 'W']	[944, 1224, 1888, 1335, 760, 1456, 986, 2911, 2245, 4000, 2670, 1029, 2059, 904, 1731, 2448]	10	Present	NA	NA	ABSENT	0.3466639518737793	403.6749129295349	405.6743550300598	406.4910286108186	406.84103075656583	409.78407096862793	4.109715938568115	[403.6872239112854, 403.8040599822998, 404.7673909664154, 404.9555938243866, 405.7060079574585, 405.8061318397522, 405.922908782959, 406.03973293304443, 406.1564519405365, 406.273313999176, 406.3901138305664, 406.5068337917328, 406.62367391586304, 406.7405798435211, 406.85720801353455, 406.97415685653687, 407.0907828807831, 407.20767283439636, 407.3243429660797, 407.4413318634033, 407.55797386169434, 407.78406977653503]	[403.6802018998758, 403.7968685665358, 404.7798685665358, 404.9465685665358, 405.6965685665358, 405.8132352331958, 405.92990189985585, 406.0465685665159, 406.1632352331759, 406.2799018998359, 406.39656856649594, 406.51323523315597, 406.629901899816, 406.746568566476, 406.86323523313604, 406.97990189979606, 407.0965685664561, 407.2132352331161, 407.32990189977613, 407.44656856643616, 407.5632352330962, 407.7965685664295]	2021_Feb_10_1256	59.89749331307382	1	0.375
29	68	FALSE	NV	a	['H', 'G', 'B', 'T', 'E', 'Y', 'U', 'S', 'R', 'K', 'W', 'P', 'X', 'A', 'Z', 'N']	[986, 944, 760, 1888, 904, 2670, 2059, 1731, 1587, 1122, 2448, 1456, 4000, 697, 2911, 1335]	13	Present	NA	NA	PRESENT	0.19930291175842285	409.7815480232239	411.7908709049225	412.9575456777542	413.3075475850828	415.90043783187866	4.109566926956177	[409.79385781288147, 409.9104378223419, 410.8837728500366, 411.06186985969543, 411.8124158382416, 411.92925691604614, 412.04603099823, 412.16295981407166, 412.27955293655396, 412.39650797843933, 412.51344895362854, 412.63017988204956, 412.74687099456787, 412.86376881599426, 412.98044085502625, 413.0974078178406, 413.214213848114, 413.33096289634705, 413.4475989341736, 413.56434988975525, 413.68119597435, 413.90043687820435]	[409.7965685664295, 409.91323523308955, 410.89623523308956, 411.06293523308955, 411.81293523308955, 411.92960189974957, 412.0462685664096, 412.1629352330696, 412.27960189972964, 412.39626856638967, 412.5129352330497, 412.6296018997097, 412.74626856636974, 412.86293523302976, 412.9796018996898, 413.0962685663498, 413.21293523300983, 413.32960189966985, 413.4462685663299, 413.5629352329899, 413.6796018996499, 413.9129352329833]	2021_Feb_10_1256	59.89749331307382	1	0.375
29	69	FALSE	NA	a	['G', 'R', 'S', 'N', 'W', 'B', 'T', 'Z', 'H', 'J', 'Y', 'X', 'A', 'U', 'K', 'M']	[944, 1587, 1731, 1335, 2448, 760, 1888, 2911, 986, 1029, 2670, 4000, 697, 2059, 1122, 1224]	12	Present	NA	NA	ABSENT	1.2278201580047607	415.90492391586304	417.907035112381	418.9570439338084	419.3070460795556	422.016804933548	4.109769821166992	[415.9172339439392, 416.03377199172974, 417.0001299381256, 417.1848750114441, 417.93576288223267, 418.05237078666687, 418.169264793396, 418.2860629558563, 418.4028489589691, 418.519779920578, 418.63636088371277, 418.75330901145935, 418.8701238632202, 418.98666191101074, 419.1035809516907, 419.2204167842865, 419.3373839855194, 419.4539909362793, 419.5706629753113, 419.6873199939728, 419.80432200431824, 420.016804933548]	[415.9129352329833, 416.0296018996433, 417.0126018996433, 417.1793018996433, 417.9293018996433, 418.0459685663033, 418.16263523296334, 418.27930189962336, 418.3959685662834, 418.5126352329434, 418.62930189960343, 418.74596856626346, 418.8626352329235, 418.9793018995835, 419.0959685662435, 419.21263523290355, 419.3293018995636, 419.4459685662236, 419.5626352328836, 419.67930189954365, 419.79596856620367, 420.029301899537]	2021_Feb_10_1256	59.89749331307382	1	0.375
29	70	FALSE	NN	a	['K', 'U', 'Y', 'Z', 'S', 'H', 'M', 'A', 'T', 'P', 'B', 'N', 'G', 'V', 'J', 'E']	[1122, 2059, 2670, 2911, 1731, 986, 1224, 697, 1888, 1456, 760, 1335, 944, 2245, 1029, 904]	12	Absent	NA	NA	ABSENT	0.1370980739593506	422.0108470916748	424.0233650207519	425.0733731269236	425.4233750342523	428.1331698894501	4.10980486869812	[422.0231568813324, 422.13996481895447, 423.1164917945862, 423.2913157939911, 424.04188990592957, 424.1589210033417, 424.275771856308, 424.39259099960327, 424.5094199180603, 424.6260027885437, 424.742919921875, 424.8597309589386, 424.97649598121643, 425.09330677986145, 425.2098488807678, 425.32693886756897, 425.4434118270874, 425.5607759952545, 425.6770918369293, 425.7937479019165, 425.9105179309845, 426.1331708431244]	[422.029301899537, 422.14596856619704, 423.12896856619705, 423.29566856619704, 424.04566856619704, 424.16233523285706, 424.2790018995171, 424.3956685661771, 424.51233523283713, 424.62900189949715, 424.7456685661572, 424.8623352328172, 424.9790018994772, 425.09566856613725, 425.2123352327973, 425.3290018994573, 425.4456685661173, 425.56233523277734, 425.67900189943737, 425.7956685660974, 425.9123352327574, 426.14566856609076]	2021_Feb_10_1256	59.89749331307382	1	0.375
29	71	FALSE	NA	a	['J', 'W', 'C', 'B', 'R', 'S', 'E', 'T', 'H', 'G', 'X', 'N', 'Y', 'V', 'A', 'Z']	[1029, 2448, 829, 760, 1587, 1731, 904, 1888, 986, 944, 4000, 1335, 2670, 2245, 697, 2911]	11	Present	NA	NA	PRESENT	0.2056429386138916	428.1340200901031	430.1399528980255	431.0732933838629	431.4232962448658	434.2495379447937	4.1095850467681885	[428.14633083343506, 428.2632248401642, 429.2328598499298, 429.4142940044403, 430.1650857925415, 430.28192591667175, 430.3986918926239, 430.5156137943268, 430.6322338581085, 430.7490029335022, 430.8659119606018, 430.982834815979, 431.0993938446045, 431.21616983413696, 431.3332028388977, 431.4497938156128, 431.5666079521179, 431.6833448410034, 431.80033779144287, 431.91715598106384, 432.03371596336365, 432.2495379447937]	[428.14566856609076, 428.2623352327508, 429.2453352327508, 429.4120352327508, 430.1620352327508, 430.2787018994108, 430.39536856607083, 430.51203523273085, 430.6287018993909, 430.7453685660509, 430.8620352327109, 430.97870189937095, 431.09536856603097, 431.212035232691, 431.328701899351, 431.44536856601104, 431.56203523267106, 431.6787018993311, 431.7953685659911, 431.91203523265114, 432.02870189931116, 432.2620352326445]	2021_Feb_10_1256	59.89749331307382	1	0.375
29	72	FALSE	NV	a	['C', 'M', 'G', 'U', 'Y', 'Z', 'H', 'X', 'N', 'A', 'K', 'T', 'V', 'P', 'W', 'E']	[829, 1224, 944, 2059, 2670, 2911, 986, 4000, 1335, 697, 1122, 1888, 2245, 1456, 2448, 904]	8	Present	NA	NA	PRESENT	0.04302096366882324	434.25717210769653	436.25611305236816	436.8394542534813	437.1894573529028	440.3659038543701	4.109790802001953	[434.26948285102844, 434.38617300987244, 435.3492238521576, 435.5209639072418, 436.2884769439697, 436.38825583457947, 436.505108833313, 436.6218547821045, 436.73868894577026, 436.85544300079346, 436.9722650051117, 437.08906292915344, 437.20580792427063, 437.3228409290314, 437.4395079612732, 437.5563819408417, 437.67301893234253, 437.79000997543335, 437.9066460132599, 438.0235209465027, 438.1400418281555, 438.3659029006958]	[434.2620352326445, 434.37870189930453, 435.36170189930453, 435.5284018993045, 436.2784018993045, 436.39506856596455, 436.5117352326246, 436.6284018992846, 436.7450685659446, 436.86173523260464, 436.97840189926467, 437.0950685659247, 437.2117352325847, 437.32840189924474, 437.44506856590476, 437.5617352325648, 437.6784018992248, 437.79506856588483, 437.91173523254486, 438.0284018992049, 438.1450685658649, 438.37840189919825]	2021_Feb_10_1256	59.89749331307382	1	0.375
29	73	FALSE	NA	a	['R', 'J', 'G', 'K', 'W', 'Y', 'U', 'X', 'B', 'P', 'C', 'N', 'A', 'S', 'H', 'M']	[1587, 1029, 944, 1122, 2448, 2670, 2059, 4000, 760, 1456, 829, 1335, 697, 1731, 986, 1224]	8	Present	NA	NA	PRESENT	0.09554100036621094	440.36348700523376	442.3723831176758	442.9557243187889	443.3057264645361	446.48227095603943	4.1098878383636475	[440.37579798698425, 440.4926028251648, 441.4655969142914, 441.6441259384155, 442.39473485946655, 442.5113627910614, 442.62845277786255, 442.7449538707733, 442.8620698451996, 442.9788558483124, 443.095449924469, 443.2122929096222, 443.3289659023285, 443.4460709095001, 443.56276178359985, 443.6793258190155, 443.7962839603424, 443.91290283203125, 444.0299689769745, 444.1463899612427, 444.26324486732483, 444.48227190971375]	[440.37840189919825, 440.4950685658583, 441.4780685658583, 441.64476856585827, 442.39476856585827, 442.5114352325183, 442.6281018991783, 442.74476856583834, 442.86143523249837, 442.9781018991584, 443.0947685658184, 443.21143523247844, 443.32810189913846, 443.4447685657985, 443.5614352324585, 443.67810189911853, 443.79476856577855, 443.9114352324386, 444.0281018990986, 444.1447685657586, 444.26143523241865, 444.494768565752]	2021_Feb_10_1256	59.89749331307382	1	0.375
29	74	FALSE	NN	a	['N', 'V', 'P', 'J', 'Y', 'K', 'B', 'S', 'T', 'W', 'G', 'H', 'E', 'M', 'U', 'R']	[1335, 2245, 1456, 1029, 2670, 1122, 760, 1731, 1888, 2448, 944, 986, 904, 1224, 2059, 1587]	11	Absent	NA	NA	ABSENT	0.07701611518859863	446.4869349002838	448.4889590740204	449.4223002751135	449.7723024208607	452.59863686561584	4.109677791595459	[446.4992458820343, 446.6158537864685, 447.58196091651917, 447.76702189445496, 448.5178258419037, 448.6347858905792, 448.75141191482544, 448.8681719303131, 448.9851088523865, 449.1019489765167, 449.2186369895935, 449.3354468345642, 449.45230293273926, 449.5690019130707, 449.6858489513397, 449.80255699157715, 449.9192798137665, 450.03628182411194, 450.1531329154968, 450.2697308063507, 450.3863708972931, 450.59863781929016]	[446.494768565752, 446.611435232412, 447.594435232412, 447.761135232412, 448.511135232412, 448.62780189907204, 448.74446856573206, 448.8611352323921, 448.9778018990521, 449.09446856571213, 449.21113523237216, 449.3278018990322, 449.4444685656922, 449.5611352323522, 449.67780189901225, 449.7944685656723, 449.9111352323323, 450.0278018989923, 450.14446856565235, 450.26113523231237, 450.3778018989724, 450.61113523230574]	2021_Feb_10_1256	59.89749331307382	1	0.375
29	75	FALSE	NA	a	['P', 'M', 'H', 'S', 'V', 'C', 'N', 'B', 'U', 'W', 'X', 'J', 'G', 'K', 'Z', 'E']	[1456, 1224, 986, 1731, 2245, 829, 1335, 760, 2059, 2448, 4000, 1029, 944, 1122, 2911, 904]	11	Present	NA	NA	PRESENT	0.08932089805603027	452.5930299758911	454.60524797439575	455.53858846023314	455.8885913212361	458.7150049209595	4.109756946563721	[452.6053400039673, 452.7222738265991, 453.6983268260956, 453.8736848831177, 454.6243019104004, 454.74088191986084, 454.85775780677795, 454.974524974823, 455.091392993927, 455.208370923996, 455.32495880126953, 455.4420528411865, 455.558944940567, 455.6752619743347, 455.7921619415283, 455.90904688835144, 456.0258078575134, 456.1425669193268, 456.25942397117615, 456.37620091438293, 456.49298000335693, 456.71500396728516]	[452.61113523230574, 452.72780189896577, 453.71080189896577, 453.87750189896576, 454.62750189896576, 454.7441685656258, 454.8608352322858, 454.97750189894583, 455.09416856560586, 455.2108352322659, 455.3275018989259, 455.4441685655859, 455.56083523224595, 455.677501898906, 455.794168565566, 455.910835232226, 456.02750189888604, 456.14416856554607, 456.2608352322061, 456.3775018988661, 456.49416856552614, 456.7275018988595]	2021_Feb_10_1256	59.89749331307382	1	0.375
29	76	FALSE	NA	a	['K', 'C', 'W', 'R', 'P', 'V', 'E', 'B', 'S', 'N', 'G', 'X', 'M', 'H', 'Y', 'U']	[1122, 829, 2448, 1587, 1456, 2245, 904, 760, 1731, 1335, 944, 4000, 1224, 986, 2670, 2059]	12	Present	NA	NA	PRESENT	0.1337890625	458.7162230014801	460.721617937088	461.7716260432597	462.12162795058833	464.8313708305359	4.109752893447876	[458.7285339832306, 458.8452708721161, 459.8146917819977, 459.9965789318085, 460.7473158836365, 460.8642017841339, 460.98086380958557, 461.0976347923279, 461.2145369052887, 461.33145093917847, 461.4481439590454, 461.5648808479309, 461.6819019317627, 461.7983648777008, 461.91523480415344, 462.03211092948914, 462.14899492263794, 462.2658050060272, 462.38241386413574, 462.4992868900299, 462.6159338951111, 462.8313698768616]	[458.7275018988595, 458.8441685655195, 459.8271685655195, 459.9938685655195, 460.7438685655195, 460.86053523217953, 460.97720189883955, 461.0938685654996, 461.2105352321596, 461.3272018988196, 461.44386856547965, 461.56053523213967, 461.6772018987997, 461.7938685654597, 461.91053523211974, 462.02720189877977, 462.1438685654398, 462.2605352320998, 462.37720189875984, 462.49386856541986, 462.6105352320799, 462.84386856541323]	2021_Feb_10_1256	59.89749331307382	1	0.375
29	77	FALSE	NN	a	['T', 'G', 'V', 'Z', 'J', 'R', 'Y', 'C', 'H', 'N', 'W', 'K', 'A', 'U', 'P', 'M']	[1888, 944, 2245, 2911, 1029, 1587, 2670, 829, 986, 1335, 2448, 1122, 697, 2059, 1456, 1224]	8	Absent	NA	NA	ABSENT	0.13128209114074707	464.8393568992615	466.8378341197967	467.42117532090987	467.7711772282385	470.9477379322052	4.109903812408447	[464.851686000824, 464.96859192848206, 465.93106484413147, 466.10325288772583, 466.87051582336426, 466.97039890289307, 467.08723998069763, 467.2042119503021, 467.32082986831665, 467.4377529621124, 467.5544979572296, 467.6714549064636, 467.78801679611206, 467.9050438404083, 468.02162194252014, 468.13857078552246, 468.2553198337555, 468.37195777893066, 468.48894596099854, 468.6055397987366, 468.7223918437958, 468.9477388858795]	[464.84386856541323, 464.96053523207325, 465.94353523207326, 466.11023523207325, 466.86023523207325, 466.9769018987333, 467.0935685653933, 467.2102352320533, 467.32690189871334, 467.44356856537337, 467.5602352320334, 467.6769018986934, 467.79356856535344, 467.91023523201346, 468.0269018986735, 468.1435685653335, 468.26023523199353, 468.37690189865356, 468.4935685653136, 468.6102352319736, 468.7269018986336, 468.960235231967]	2021_Feb_10_1256	59.89749331307382	1	0.375
29	78	FALSE	VA	a	['U', 'J', 'H', 'E', 'C', 'A', 'M', 'surprise', 'S', 'R', 'X', 'V', 'K', 'T', 'P', 'G']	[2059, 1029, 986, 904, 829, 697, 1224, 'stimAuditory/all_stimAuditory/210.wav', 1731, 1587, 4000, 2245, 1122, 1888, 1456, 944]	11	Present	NA	NA	PRESENT	0.1279618740081787	470.94566106796265	472.95454597473145	473.8878874142431	474.23788932157174	477.0641038417816	4.109557867050171	[470.95797085762024, 471.0748698711395, 472.0474259853363, 472.22618794441223, 472.9769468307495, 473.093612909317, 473.2104048728943, 473.3274519443512, 473.44400000572205, 473.56094098091125, 473.677747964859, 473.7943708896637, 473.9112389087677, 474.0280568599701, 474.14492678642273, 474.261677980423, 474.37850689888, 474.4953429698944, 474.6121029853821, 474.7287437915802, 474.84553599357605, 475.06410479545593]	[470.960235231967, 471.076901898627, 472.059901898627, 472.226601898627, 472.976601898627, 473.093268565287, 473.20993523194704, 473.32660189860707, 473.4432685652671, 473.5599352319271, 473.67660189858714, 473.79326856524716, 473.9099352319072, 474.0266018985672, 474.14326856522723, 474.25993523188725, 474.3766018985473, 474.4932685652073, 474.6099352318673, 474.72660189852735, 474.8432685651874, 475.0766018985207]	2021_Feb_10_1256	59.89749331307382	1	0.375
29	79	FALSE	NA	a	['C', 'P', 'E', 'B', 'G', 'R', 'W', 'U', 'N', 'J', 'S', 'X', 'V', 'Y', 'Z', 'H']	[829, 1456, 904, 760, 944, 1587, 2448, 2059, 1335, 1029, 1731, 4000, 2245, 2670, 2911, 986]	12	Present	NA	NA	PRESENT	0.205247163772583	477.06921792030334	479.0708050727844	480.1208129405375	480.47081508628474	483.1804709434509	4.109665870666504	[477.0815279483795, 477.1979329586029, 478.16379380226135, 478.3493709564209, 479.0999720096588, 479.2169449329376, 479.3337059020996, 479.4504408836365, 479.5670819282532, 479.6840388774872, 479.8007798194885, 479.9176619052887, 480.03428196907043, 480.1511039733887, 480.26787400245667, 480.38473200798035, 480.50151896476746, 480.61842584609985, 480.73500394821167, 480.83517694473267, 480.9518699645996, 481.1804699897766]	[477.0766018985207, 477.19326856518074, 478.17626856518075, 478.34296856518074, 479.09296856518074, 479.20963523184076, 479.3263018985008, 479.4429685651608, 479.55963523182083, 479.67630189848086, 479.7929685651409, 479.9096352318009, 480.02630189846093, 480.14296856512095, 480.259635231781, 480.376301898441, 480.492968565101, 480.60963523176105, 480.72630189842107, 480.8429685650811, 480.9596352317411, 481.19296856507447]	2021_Feb_10_1256	59.89749331307382	1	0.375
