participant	trial_num	practice	task	condition	RSVP	RAP	probePos	probe_presence	surprise_sound	surprise_img	probe_response	probe_resp_time	first_fixation_time	trial_start_time	surprise_start_time	probe_start_time	trial_end_time	trial_duration	actualEventTimes	plannedEventTimes	date	framerate	marker_vol	RAP_vol
30	1	FALSE	NA	v	['C', 'T', 'N', 'K', 'J', 'Z', 'U', 'H', 'X', 'G', 'R', 'E', 'M', 'S', 'W', 'V']	[829, 1888, 1335, 1122, 1029, 2911, 2059, 986, 4000, 944, 1587, 904, 1224, 1731, 2448, 2245]	9	Present	NA	NA	PRESENT	0.12456488609313963	1.9073486328125e-6	1.9997820854187012	2.698045015335083	3.0479941368103027	6.103870868682861	4.10408878326416	[0.010005950927734375, 0.10979390144348145, 1.0941638946533203, 1.2612509727478027, 2.0285818576812744, 2.1454060077667236, 2.2455220222473145, 2.37896990776062, 2.495790958404541, 2.595906972885132, 2.712702989578247, 2.8295209407806396, 2.9462890625, 3.0628790855407715, 3.1797258853912354, 3.2966020107269287, 3.4133448600769043, 3.530297040939331, 3.6469240188598633, 3.7636640071868896, 3.880661964416504, 4.103869915008545]	[1.9073486328125e-06, 0.11666857401529947, 1.0996685740152994, 1.2663685740152995, 2.0163685740152992, 2.133035240681966, 2.2497019073486326, 2.3663685740152993, 2.483035240681966, 2.5997019073486327, 2.7163685740152994, 2.833035240681966, 2.949701907348633, 3.0663685740152995, 3.183035240681966, 3.299701907348633, 3.4163685740152996, 3.5330352406819663, 3.649701907348633, 3.7663685740152997, 3.8830352406819664, 4.1163685740153]	2021_Feb_18_1136	60.005293359409094	1	1
30	2	FALSE	NV	v	['K', 'U', 'H', 'Z', 'B', 'N', 'E', 'R', 'X', 'C', 'Y', 'T', 'M', 'V', 'G', 'P']	[1122, 2059, 986, 2911, 760, 1335, 904, 1587, 4000, 829, 2670, 1888, 1224, 2245, 944, 1456]	9	Present	NA	NA	ABSENT	0.3208329677581787	6.106558084487915	8.112837076187134	8.813291072845459	9.163501977920532	12.220237016677856	4.107399940490723	[6.116564035415649, 6.233280897140503, 7.217436075210571, 7.384335994720459, 8.135079860687256, 8.251906871795654, 8.368818998336792, 8.485511064529419, 8.602366924285889, 8.719096899032593, 8.835994005203247, 8.952627897262573, 9.06951904296875, 9.186137914657593, 9.303019046783447, 9.419780015945435, 9.536715984344482, 9.653486013412476, 9.77014708518982, 9.887054920196533, 10.00388503074646, 10.220237970352173]	[6.1163685740153, 6.233035240681966, 7.216035240681966, 7.382735240681965, 8.132735240681965, 8.249401907348632, 8.3660685740153, 8.482735240681967, 8.599401907348634, 8.716068574015301, 8.832735240681968, 8.949401907348635, 9.066068574015302, 9.18273524068197, 9.299401907348637, 9.416068574015304, 9.532735240681971, 9.649401907348638, 9.766068574015305, 9.882735240681972, 9.99940190734864, 10.232735240681972]	2021_Feb_18_1136	60.005293359409094	1	1
30	3	FALSE	NV	v	['T', 'B', 'W', 'C', 'S', 'J', 'U', 'K', 'M', 'R', 'Y', 'G', 'X', 'A', 'N', 'Z']	[1888, 760, 2448, 829, 1731, 1029, 2059, 1122, 1224, 1587, 2670, 944, 4000, 697, 1335, 2911]	13	Present	NA	NA	PRESENT	0.23810911178588867	12.229604959487917	14.229238033294678	15.396338939666748	15.747008085250854	18.33660387992859	4.107365846633911	[12.2396080493927, 12.356302976608276, 13.340683937072754, 13.507572889328003, 14.258280992507935, 14.375020027160645, 14.492029905319214, 14.609055995941162, 14.725588083267212, 14.842347860336304, 14.958992958068848, 15.075816869735718, 15.192564010620117, 15.309546947479248, 15.426127910614014, 15.543142080307007, 15.659739971160889, 15.776478052139282, 15.89338493347168, 16.010228872299194, 16.110445022583008, 16.336602926254272]	[12.232735240681972, 12.34940190734864, 13.33240190734864, 13.49910190734864, 14.24910190734864, 14.365768574015307, 14.482435240681975, 14.599101907348642, 14.715768574015309, 14.832435240681976, 14.949101907348643, 15.06576857401531, 15.182435240681977, 15.299101907348645, 15.415768574015312, 15.532435240681979, 15.649101907348646, 15.765768574015313, 15.88243524068198, 15.999101907348647, 16.115768574015313, 16.349101907348647]	2021_Feb_18_1136	60.005293359409094	1	1
30	4	FALSE	VV	v	['S', 'J', 'T', 'E', 'N', 'P', 'R', 'surprise', 'Y', 'K', 'X', 'A', 'Z', 'G', 'U', 'B']	[1731, 1029, 1888, 904, 1335, 1456, 1587, 'stimAuditory/all_stimAuditory/203.wav', 2670, 1122, 4000, 697, 2911, 944, 2059, 760]	11	Present	NA	stimVisual/all_stimVisual/123.jpg	ABSENT	0.594810962677002	18.336074113845825	20.34556293487549	21.27940797805786	21.629384994506836	24.452970027923584	4.107407093048096	[18.34607696533203, 18.46280598640442, 19.447192907333374, 19.613749980926514, 20.36476492881775, 20.481510877609253, 20.59830594062805, 20.715116024017334, 20.83209800720215, 20.948770999908447, 21.065706968307495, 21.199217081069946, 21.299327850341797, 21.41590905189514, 21.53277897834778, 21.64937686920166, 21.766332864761353, 21.883053064346313, 21.9999258518219, 22.116687059402466, 22.233479976654053, 22.452970027923584]	[18.349101907348647, 18.465768574015314, 19.448768574015315, 19.615468574015313, 20.365468574015313, 20.48213524068198, 20.598801907348648, 20.715468574015315, 20.832135240681982, 20.94880190734865, 21.065468574015316, 21.182135240681983, 21.29880190734865, 21.415468574015318, 21.532135240681985, 21.648801907348652, 21.76546857401532, 21.882135240681986, 21.998801907348653, 22.11546857401532, 22.232135240681988, 22.465468574015322]	2021_Feb_18_1136	60.005293359409094	1	1
30	5	FALSE	NN	v	['K', 'B', 'A', 'W', 'J', 'S', 'C', 'T', 'Y', 'R', 'P', 'E', 'M', 'G', 'Z', 'U']	[1122, 760, 697, 2448, 1029, 1731, 829, 1888, 2670, 1587, 1456, 904, 1224, 944, 2911, 2059]	14	Absent	NA	NA	ABSENT	0.4393339157104492	24.45913791656494	26.461873054504395	27.74564099311829	28.09563708305359	30.569338083267212	4.107465028762817	[24.469141006469727, 24.585932970046997, 25.570244073867798, 25.737223863601685, 26.488297939300537, 26.60500192642212, 26.721693992614746, 26.83835792541504, 26.955256938934326, 27.07204008102417, 27.1886990070343, 27.305629014968872, 27.422314882278442, 27.539098978042603, 27.655749082565308, 27.77257990837097, 27.889519929885864, 28.00633692741394, 28.122956037521362, 28.23991107940674, 28.35669493675232, 28.569336891174316]	[24.465468574015322, 24.58213524068199, 25.56513524068199, 25.73183524068199, 26.48183524068199, 26.598501907348655, 26.715168574015323, 26.83183524068199, 26.948501907348657, 27.065168574015324, 27.18183524068199, 27.29850190734866, 27.415168574015325, 27.531835240681993, 27.64850190734866, 27.765168574015327, 27.881835240681994, 27.99850190734866, 28.11516857401533, 28.231835240681995, 28.348501907348663, 28.581835240681997]	2021_Feb_18_1136	60.005293359409094	1	1
30	6	FALSE	NA	v	['R', 'M', 'P', 'Z', 'N', 'G', 'Y', 'H', 'X', 'T', 'B', 'E', 'W', 'V', 'U', 'K']	[1587, 1224, 1456, 2911, 1335, 944, 2670, 986, 4000, 1888, 760, 904, 2448, 2245, 2059, 1122]	9	Present	NA	NA	PRESENT	0.1566598415374756	30.56558203697205	32.57820010185242	33.27878999710083	33.62876105308533	36.68570399284363	4.107503890991211	[30.575584888458252, 30.69251799583435, 31.67679190635681, 31.8435800075531, 32.61162495613098, 32.711097955703735, 32.82794189453125, 32.944900035858154, 33.061460971832275, 33.17854189872742, 33.29527807235718, 33.41184091567993, 33.528892040252686, 33.645490884780884, 33.76244497299194, 33.879108905792236, 33.9957640171051, 34.112634897232056, 34.229575872421265, 34.346384048461914, 34.46310591697693, 34.68570399284363]	[30.581835240681997, 30.698501907348664, 31.681501907348665, 31.848201907348663, 32.59820190734867, 32.714868574015334, 32.831535240682, 32.94820190734867, 33.064868574015335, 33.181535240682, 33.29820190734867, 33.41486857401534, 33.531535240682004, 33.64820190734867, 33.76486857401534, 33.881535240682005, 33.99820190734867, 34.11486857401534, 34.23153524068201, 34.348201907348674, 34.46486857401534, 34.698201907348675]	2021_Feb_18_1136	60.005293359409094	1	1
30	7	FALSE	NV	v	['J', 'B', 'Z', 'C', 'K', 'A', 'V', 'W', 'X', 'R', 'P', 'H', 'Y', 'T', 'E', 'M']	[1029, 760, 2911, 829, 1122, 697, 2245, 2448, 4000, 1587, 1456, 986, 2670, 1888, 904, 1224]	9	Present	NA	NA	ABSENT	0.34520912170410156	36.68890404701233	38.694775104522705	39.395318031311035	39.745157957077026	42.80207085609436	4.107295751571655	[36.69890785217285, 36.815589904785156, 37.79986906051636, 37.96671390533447, 38.71765685081482, 38.834343910217285, 38.9513258934021, 39.067946910858154, 39.1846489906311, 39.30148100852966, 39.41822600364685, 39.53522491455078, 39.65197396278381, 39.76883387565613, 39.885371923446655, 40.002508878707886, 40.11900591850281, 40.2359299659729, 40.35291504859924, 40.46945595741272, 40.586365938186646, 40.80207085609436]	[36.698201907348675, 36.81486857401534, 37.79786857401534, 37.96456857401534, 38.71456857401534, 38.831235240682005, 38.94790190734867, 39.06456857401534, 39.18123524068201, 39.297901907348674, 39.41456857401534, 39.53123524068201, 39.647901907348675, 39.76456857401534, 39.88123524068201, 39.99790190734868, 40.114568574015344, 40.23123524068201, 40.34790190734868, 40.464568574015345, 40.58123524068201, 40.81456857401535]	2021_Feb_18_1136	60.005293359409094	1	1
30	8	FALSE	NV	v	['R', 'G', 'U', 'Y', 'E', 'M', 'H', 'B', 'W', 'P', 'X', 'K', 'J', 'V', 'T', 'C']	[1587, 944, 2059, 2670, 904, 1224, 986, 760, 2448, 1456, 4000, 1122, 1029, 2245, 1888, 829]	11	Present	NA	NA	PRESENT	0.04658889770507812	42.81204104423523	44.81108808517456	45.74507808685303	46.09530711174011	48.918437004089355	4.107348918914795	[42.82204484939575, 42.93876886367798, 43.90633988380432, 44.07309007644653, 44.840911865234375, 44.95761203765869, 45.07451796531677, 45.19111394882202, 45.30824398994446, 45.42481994628906, 45.54141187667847, 45.6584529876709, 45.7750289440155, 45.89196801185608, 46.00855898857117, 46.12588405609131, 46.24220585823059, 46.359243869781494, 46.45905089378357, 46.575774908065796, 46.69279503822327, 46.918437004089355]	[42.81456857401535, 42.931235240682014, 43.91423524068201, 44.08093524068201, 44.83093524068201, 44.94760190734868, 45.064268574015344, 45.18093524068201, 45.29760190734868, 45.414268574015345, 45.53093524068201, 45.64760190734868, 45.76426857401535, 45.880935240682014, 45.99760190734868, 46.11426857401535, 46.230935240682015, 46.34760190734868, 46.46426857401535, 46.58093524068202, 46.697601907348684, 46.93093524068202]	2021_Feb_18_1136	60.005293359409094	1	1
30	9	FALSE	NV	v	['B', 'V', 'H', 'J', 'R', 'C', 'W', 'S', 'Y', 'X', 'N', 'K', 'M', 'E', 'P', 'T']	[760, 2245, 986, 1029, 1587, 829, 2448, 1731, 2670, 4000, 1335, 1122, 1224, 904, 1456, 1888]	10	Present	NA	NA	PRESENT	0.12317609786987305	48.91838192939758	50.92743110656738	51.74451303482056	52.09463691711426	55.03480291366577	4.107371807098389	[48.92838501930237, 49.045104026794434, 50.029579877853394, 50.19651198387146, 50.9472439289093, 51.06396293640137, 51.180964946746826, 51.29762005805969, 51.41458702087402, 51.531288862228394, 51.648077964782715, 51.76481604576111, 51.881715059280396, 51.99842596054077, 52.11524796485901, 52.23186993598938, 52.348779916763306, 52.46553707122803, 52.58241295814514, 52.69911789894104, 52.81590294837952, 53.03480291366577]	[48.93093524068202, 49.047601907348685, 50.03060190734868, 50.19730190734868, 50.94730190734868, 51.06396857401535, 51.180635240682015, 51.29730190734868, 51.41396857401535, 51.53063524068202, 51.647301907348684, 51.76396857401535, 51.88063524068202, 51.997301907348685, 52.11396857401535, 52.23063524068202, 52.34730190734869, 52.463968574015354, 52.58063524068202, 52.69730190734869, 52.813968574015355, 53.04730190734869]	2021_Feb_18_1136	60.005293359409094	1	1
30	10	FALSE	NA	v	['V', 'U', 'J', 'E', 'H', 'Y', 'R', 'C', 'T', 'W', 'G', 'K', 'X', 'M', 'B', 'S']	[2245, 2059, 1029, 904, 986, 2670, 1587, 829, 1888, 2448, 944, 1122, 4000, 1224, 760, 1731]	13	Present	NA	NA	PRESENT	0.192579984664917	55.04188299179077	57.043790102005005	58.210899114608765	58.560949087142944	61.1511709690094	4.1073808670043945	[55.05188703536987, 55.168498039245605, 56.15316200256348, 56.31973600387573, 57.070425033569336, 57.18728303909302, 57.30415391921997, 57.42087197303772, 57.53765392303467, 57.654452085494995, 57.7710599899292, 57.88814997673035, 58.00485801696777, 58.12165904045105, 58.23843002319336, 58.35508394241333, 58.47187089920044, 58.58879089355469, 58.70558285713196, 58.82236886024475, 58.93932008743286, 59.151171922683716]	[55.04730190734869, 55.16396857401536, 56.146968574015354, 56.31366857401535, 57.06366857401535, 57.18033524068202, 57.29700190734869, 57.413668574015354, 57.53033524068202, 57.64700190734869, 57.763668574015355, 57.88033524068202, 57.99700190734869, 58.11366857401536, 58.230335240682024, 58.34700190734869, 58.46366857401536, 58.580335240682025, 58.69700190734869, 58.81366857401536, 58.93033524068203, 59.16366857401536]	2021_Feb_18_1136	60.005293359409094	1	1
30	11	FALSE	NN	v	['K', 'N', 'H', 'P', 'J', 'S', 'A', 'C', 'R', 'Z', 'V', 'M', 'W', 'Y', 'T', 'B']	[1122, 1335, 986, 1456, 1029, 1731, 697, 829, 1587, 2911, 2245, 1224, 2448, 2670, 1888, 760]	10	Absent	NA	NA	ABSENT	0.5009350776672363	61.14810109138489	63.16026496887207	63.97731304168701	64.32724595069885	67.26753807067871	4.107273101806641	[61.15810489654541, 61.275033950805664, 62.25943303108215, 62.4260618686676, 63.193655014038086, 63.29369306564331, 63.410609006881714, 63.5273220539093, 63.64402985572815, 63.76098704338074, 63.87776207923889, 63.994590044021606, 64.11146688461304, 64.22799396514893, 64.34494400024414, 64.4615159034729, 64.5784809589386, 64.69521903991699, 64.8118748664856, 64.9287359714508, 65.0454740524292, 65.26753902435303]	[61.16366857401536, 61.28033524068203, 62.263335240682025, 62.430035240682024, 63.180035240682024, 63.29670190734869, 63.41336857401536, 63.530035240682025, 63.64670190734869, 63.76336857401536, 63.88003524068203, 63.996701907348694, 64.11336857401535, 64.23003524068201, 64.34670190734867, 64.46336857401533, 64.580035240682, 64.69670190734865, 64.81336857401531, 64.93003524068197, 65.04670190734863, 65.28003524068197]	2021_Feb_18_1136	60.005293359409094	1	1
30	12	FALSE	AV	v	['B', 'U', 'S', 'H', 'surprise', 'A', 'K', 'X', 'Z', 'V', 'C', 'E', 'G', 'N', 'W', 'T']	[760, 2059, 1731, 986, 'stimAuditory/all_stimAuditory/116.wav', 697, 1122, 4000, 2911, 2245, 829, 904, 944, 1335, 2448, 1888]	8	Present	stimAuditory/all_stimAuditory/203.wav	stimVisual/all_stimVisual/206.jpg	ABSENT	0.2575101852416992	67.271644115448	69.27661895751953	69.86030507087708	70.21029710769653	73.38390398025513	4.107285022735596	[67.28164792060852, 67.39808392524719, 68.38239097595215, 68.54938006401062, 69.30011487007141, 69.4168930053711, 69.53369903564453, 69.65042805671692, 69.78399586677551, 69.88410592079163, 70.00076389312744, 70.11768698692322, 70.23453402519226, 70.35118889808655, 70.46802401542664, 70.58476090431213, 70.70150804519653, 70.81846189498901, 70.93539500236511, 71.05181407928467, 71.16863703727722, 71.38390302658081]	[67.28003524068197, 67.39670190734863, 68.37970190734863, 68.54640190734864, 69.29640190734864, 69.4130685740153, 69.52973524068196, 69.64640190734862, 69.76306857401528, 69.87973524068194, 69.9964019073486, 70.11306857401526, 70.22973524068192, 70.34640190734858, 70.46306857401524, 70.5797352406819, 70.69640190734856, 70.81306857401522, 70.92973524068188, 71.04640190734854, 71.1630685740152, 71.39640190734853]	2021_Feb_18_1136	60.005293359409094	1	1
30	13	FALSE	NA	v	['P', 'H', 'K', 'T', 'M', 'R', 'N', 'Z', 'W', 'E', 'A', 'X', 'Y', 'C', 'U', 'B']	[1456, 986, 1122, 1888, 1224, 1587, 1335, 2911, 2448, 904, 697, 4000, 2670, 829, 2059, 760]	12	Present	NA	NA	ABSENT	0.7747869491577148	73.39454412460327	75.39293694496155	76.44316697120667	76.79359793663025	79.50026988983154	4.107332944869995	[73.40454697608948, 73.52135491371155, 74.48880791664124, 74.65572690963745, 75.42316603660583, 75.54011487960815, 75.65691804885864, 75.77362298965454, 75.89052391052246, 76.05732989311218, 76.12422108650208, 76.24090504646301, 76.34071493148804, 76.45754194259644, 76.57431292533875, 76.69119095802307, 76.80786800384521, 76.9246768951416, 77.04151797294617, 77.1587028503418, 77.27525091171265, 77.50026988983154]	[73.39640190734853, 73.5130685740152, 74.4960685740152, 74.6627685740152, 75.4127685740152, 75.52943524068186, 75.64610190734852, 75.76276857401518, 75.87943524068184, 75.9961019073485, 76.11276857401516, 76.22943524068182, 76.34610190734848, 76.46276857401514, 76.5794352406818, 76.69610190734846, 76.81276857401512, 76.92943524068178, 77.04610190734844, 77.1627685740151, 77.27943524068176, 77.5127685740151]	2021_Feb_18_1136	60.005293359409094	1	1
30	14	FALSE	NN	v	['W', 'C', 'G', 'S', 'Y', 'P', 'B', 'E', 'N', 'V', 'M', 'K', 'A', 'T', 'U', 'J']	[2448, 829, 944, 1731, 2670, 1456, 760, 904, 1335, 2245, 1224, 1122, 697, 1888, 2059, 1029]	8	Absent	NA	NA	ABSENT	0.21118378639221191	79.50095295906067	81.50922298431396	82.0935890674591	82.4432201385498	85.61663794517517	4.107414960861206	[79.51095700263977, 79.62802791595459, 80.61217308044434, 80.77914690971375, 81.52974390983582, 81.64651799201965, 81.7633330821991, 81.88010597229004, 81.99679207801819, 82.11369299888611, 82.2304859161377, 82.3472409248352, 82.46413588523865, 82.58076500892639, 82.69784808158875, 82.8144850730896, 82.93113088607788, 83.04784607887268, 83.16483092308044, 83.28144407272339, 83.39837002754211, 83.61663794517517]	[79.5127685740151, 79.62943524068176, 80.61243524068176, 80.77913524068177, 81.52913524068177, 81.64580190734843, 81.76246857401509, 81.87913524068175, 81.99580190734841, 82.11246857401507, 82.22913524068173, 82.34580190734839, 82.46246857401505, 82.57913524068171, 82.69580190734837, 82.81246857401503, 82.92913524068169, 83.04580190734835, 83.16246857401501, 83.27913524068167, 83.39580190734833, 83.62913524068166]	2021_Feb_18_1136	60.005293359409094	1	1
30	15	FALSE	NA	v	['G', 'M', 'Z', 'T', 'K', 'W', 'Y', 'S', 'E', 'X', 'V', 'H', 'P', 'U', 'N', 'J']	[944, 1224, 2911, 1888, 1122, 2448, 2670, 1731, 904, 4000, 2245, 986, 1456, 2059, 1335, 1029]	10	Present	NA	NA	PRESENT	0.08876395225524902	85.62421107292175	87.62581706047058	88.44274806976318	88.79286098480225	91.7330038547516	4.107186794281006	[85.63421487808228, 85.75073885917664, 86.7352020740509, 86.90231204032898, 87.65321898460388, 87.76977801322937, 87.88651204109192, 88.00315308570862, 88.1199688911438, 88.23673892021179, 88.35360193252563, 88.47029304504395, 88.58735203742981, 88.70424389839172, 88.8208658695221, 88.93776988983154, 89.05446696281433, 89.17131090164185, 89.28796291351318, 89.40471386909485, 89.50473308563232, 89.73300290107727]	[85.62913524068166, 85.74580190734832, 86.72880190734833, 86.89550190734833, 87.64550190734833, 87.76216857401499, 87.87883524068165, 87.99550190734831, 88.11216857401497, 88.22883524068163, 88.3455019073483, 88.46216857401495, 88.57883524068161, 88.69550190734827, 88.81216857401493, 88.9288352406816, 89.04550190734825, 89.16216857401491, 89.27883524068157, 89.39550190734823, 89.5121685740149, 89.74550190734823]	2021_Feb_18_1136	60.005293359409094	1	1
30	16	FALSE	NA	v	['V', 'A', 'T', 'M', 'K', 'N', 'P', 'Z', 'X', 'J', 'Y', 'S', 'W', 'B', 'G', 'E']	[2245, 697, 1888, 1224, 1122, 1335, 1456, 2911, 4000, 1029, 2670, 1731, 2448, 760, 944, 904]	9	Present	NA	NA	PRESENT	0.1250629425048828	91.7305850982666	93.74192214012146	94.4428050518036	94.79241991043092	97.8493709564209	4.1074488162994385	[91.74058985710144, 91.85746192932129, 92.8419599533081, 93.00865387916565, 93.75923085212708, 93.87606596946716, 93.992919921875, 94.10971903800964, 94.22666501998901, 94.34330606460571, 94.46016693115234, 94.5768780708313, 94.69384002685547, 94.81051802635193, 94.9274730682373, 95.04418206214905, 95.16104507446289, 95.2777190208435, 95.39434695243835, 95.51135087013245, 95.62806391716003, 95.84937000274658]	[91.74550190734823, 91.86216857401489, 92.84516857401489, 93.0118685740149, 93.7618685740149, 93.87853524068156, 93.99520190734822, 94.11186857401488, 94.22853524068154, 94.3452019073482, 94.46186857401486, 94.57853524068152, 94.69520190734818, 94.81186857401484, 94.9285352406815, 95.04520190734816, 95.16186857401482, 95.27853524068148, 95.39520190734814, 95.5118685740148, 95.62853524068146, 95.86186857401479]	2021_Feb_18_1136	60.005293359409094	1	1
30	17	FALSE	NV	v	['B', 'U', 'H', 'C', 'Y', 'V', 'R', 'N', 'E', 'J', 'X', 'K', 'P', 'A', 'T', 'S']	[760, 2059, 986, 829, 2670, 2245, 1587, 1335, 904, 1029, 4000, 1122, 1456, 697, 1888, 1731]	11	Present	NA	NA	PRESENT	0.17767000198364258	97.85414910316469	99.85837292671204	100.79201412200928	101.14220809936523	103.96573686599731	4.107363939285278	[97.86415195465088, 97.98042106628418, 98.96498990058899, 99.13181185722351, 99.88258004188538, 99.99931597709656, 100.11607193946838, 100.23302698135376, 100.34968686103821, 100.46658992767334, 100.58328485488892, 100.7002010345459, 100.81702399253845, 100.93361902236938, 101.05042505264282, 101.16739106178284, 101.28413605690002, 101.40090608596802, 101.51759505271912, 101.63432192802429, 101.7511510848999, 101.96573686599731]	[97.86186857401479, 97.97853524068145, 98.96153524068146, 99.12823524068146, 99.87823524068146, 99.99490190734812, 100.11156857401478, 100.22823524068144, 100.3449019073481, 100.46156857401476, 100.57823524068142, 100.69490190734808, 100.81156857401474, 100.9282352406814, 101.04490190734806, 101.16156857401472, 101.27823524068138, 101.39490190734804, 101.5115685740147, 101.62823524068136, 101.74490190734802, 101.97823524068136]	2021_Feb_18_1136	60.005293359409094	1	1
30	18	FALSE	NV	v	['P', 'N', 'B', 'A', 'M', 'U', 'C', 'K', 'X', 'H', 'E', 'S', 'J', 'R', 'Z', 'V']	[1456, 1335, 760, 697, 1224, 2059, 829, 1122, 4000, 986, 904, 1731, 1029, 1587, 2911, 2245]	9	Present	NA	NA	PRESENT	0.454927921295166	103.97683310508728	105.97493600845335	106.67520213127136	107.02520895004272	110.08210396766664	4.107167959213257	[103.98683595657349, 104.08682489395142, 105.07138586044312, 105.23823285102844, 106.00560402870178, 106.12278485298157, 106.23926401138306, 106.3562400341034, 106.45612406730652, 106.57288002967834, 106.68973803520203, 106.80647993087769, 106.92324590682983, 107.04006004333496, 107.15721106529236, 107.2737488746643, 107.3904139995575, 107.50724601745605, 107.62397289276123, 107.74077296257019, 107.8576889038086, 108.08210396766663]	[103.97823524068136, 104.09490190734802, 105.07790190734802, 105.24460190734803, 105.99460190734803, 106.11126857401469, 106.22793524068135, 106.34460190734801, 106.46126857401467, 106.57793524068133, 106.69460190734799, 106.81126857401465, 106.92793524068131, 107.04460190734797, 107.16126857401463, 107.27793524068129, 107.39460190734795, 107.51126857401461, 107.62793524068127, 107.74460190734793, 107.86126857401459, 108.09460190734792]	2021_Feb_18_1136	60.005293359409094	1	1
30	19	FALSE	NV	v	['S', 'V', 'H', 'A', 'J', 'E', 'G', 'W', 'Y', 'B', 'K', 'P', 'X', 'C', 'R', 'N']	[1731, 2245, 986, 697, 1029, 904, 944, 2448, 2670, 760, 1122, 1456, 4000, 829, 1587, 1335]	13	Present	NA	NA	PRESENT	0.1795449256896973	110.08351492881776	112.09108400344849	113.25817608833312	113.60822105407716	116.19847106933594	4.107387065887451	[110.09351801872253, 110.2100899219513, 111.19455695152283, 111.36149787902832, 112.1122260093689, 112.22895693778992, 112.34586906433105, 112.46255087852478, 112.57938003540039, 112.69627404212952, 112.81299686431885, 112.92988991737366, 113.04647493362427, 113.16341996192932, 113.28010988235474, 113.39701390266418, 113.51384496688843, 113.63050603866577, 113.74716401100159, 113.8642110824585, 113.98080492019653, 114.19847106933594]	[110.09460190734792, 110.21126857401458, 111.19426857401459, 111.36096857401459, 112.11096857401459, 112.22763524068125, 112.34430190734791, 112.46096857401457, 112.57763524068123, 112.69430190734789, 112.81096857401455, 112.92763524068121, 113.04430190734787, 113.16096857401453, 113.27763524068119, 113.39430190734785, 113.51096857401451, 113.62763524068117, 113.74430190734783, 113.86096857401449, 113.97763524068115, 114.21096857401449]	2021_Feb_18_1136	60.005293359409094	1	1
30	20	FALSE	NV	v	['E', 'M', 'Y', 'H', 'K', 'N', 'P', 'X', 'J', 'R', 'W', 'G', 'U', 'A', 'B', 'Z']	[904, 1224, 2670, 986, 1122, 1335, 1456, 4000, 1029, 1587, 2448, 944, 2059, 697, 760, 2911]	8	Present	NA	NA	ABSENT	0.4489588737487793	116.20657801628111	118.20741105079652	118.7912459373474	119.1414201259613	122.31483793258668	4.107426881790161	[116.21658086776733, 116.33331108093262, 117.31821894645691, 117.4847629070282, 118.23523497581482, 118.35226202011108, 118.46903800964355, 118.58566308021545, 118.70250988006592, 118.81942892074585, 118.93613696098328, 119.05298805236816, 119.16965293884277, 119.28649997711182, 119.40325593948364, 119.52020907402039, 119.63690090179443, 119.75381898880005, 119.87043499946594, 119.98736190795898, 120.08721494674683, 120.31483697891235]	[116.21096857401449, 116.32763524068115, 117.31063524068115, 117.47733524068116, 118.22733524068116, 118.34400190734782, 118.46066857401448, 118.57733524068114, 118.6940019073478, 118.81066857401446, 118.92733524068112, 119.04400190734778, 119.16066857401444, 119.2773352406811, 119.39400190734776, 119.51066857401442, 119.62733524068108, 119.74400190734774, 119.8606685740144, 119.97733524068106, 120.09400190734772, 120.32733524068105]	2021_Feb_18_1136	60.005293359409094	1	1
30	21	FALSE	NA	v	['N', 'G', 'H', 'J', 'W', 'Y', 'C', 'X', 'R', 'A', 'U', 'S', 'K', 'B', 'Z', 'T']	[1335, 944, 986, 1029, 2448, 2670, 829, 4000, 1587, 697, 2059, 1731, 1122, 760, 2911, 1888]	8	Present	NA	NA	PRESENT	0.1493968963623047	122.31301999092102	124.32388710975648	124.90756106376648	125.25766396522522	128.4312040805817	4.107316970825195	[122.32302498817444, 122.439945936203, 123.42413091659546, 123.59127593040466, 124.34166693687439, 124.45869708061218, 124.57551789283752, 124.69218587875366, 124.80911302566528, 124.92576789855957, 125.042564868927, 125.15950608253479, 125.27616095542908, 125.39313197135925, 125.5096640586853, 125.62651205062866, 125.74329996109009, 125.86034393310547, 125.97703790664673, 126.09377694129944, 126.21040987968445, 126.43120288848877]	[122.32733524068105, 122.44400190734771, 123.42700190734772, 123.59370190734772, 124.34370190734772, 124.46036857401438, 124.57703524068104, 124.6937019073477, 124.81036857401436, 124.92703524068102, 125.04370190734768, 125.16036857401434, 125.277035240681, 125.39370190734766, 125.51036857401432, 125.62703524068098, 125.74370190734764, 125.8603685740143, 125.97703524068096, 126.09370190734762, 126.21036857401428, 126.44370190734762]	2021_Feb_18_1136	60.005293359409094	1	1
30	22	FALSE	VA	v	['A', 'E', 'C', 'P', 'N', 'M', 'W', 'Y', 'surprise', 'R', 'J', 'X', 'H', 'V', 'B', 'S']	[697, 904, 829, 1456, 1335, 1224, 2448, 2670, 'stimAuditory/all_stimAuditory/102.wav', 1587, 1029, 4000, 986, 2245, 760, 1731]	12	Present	NA	stimVisual/all_stimVisual/223.jpg	ABSENT	1.0419878959655762	128.43659591674805	130.44019103050232	131.49063301086426	131.84080410003662	134.5475709438324	4.107379913330078	[128.44659996032715, 128.5629758834839, 129.54749393463135, 129.71433997154236, 130.4649519920349, 130.58194303512573, 130.69877004623413, 130.815584897995, 130.9322509765625, 131.04909586906433, 131.16571187973022, 131.28259086608887, 131.39931201934814, 131.51634407043457, 131.63280701637268, 131.7496919631958, 131.8665030002594, 131.98332905769348, 132.1000850200653, 132.21697998046875, 132.33370089530945, 132.54756999015808]	[128.44370190734762, 128.5603685740143, 129.5433685740143, 129.7100685740143, 130.4600685740143, 130.57673524068096, 130.69340190734763, 130.8100685740143, 130.92673524068098, 131.04340190734766, 131.16006857401433, 131.276735240681, 131.39340190734768, 131.51006857401435, 131.62673524068103, 131.7434019073477, 131.86006857401438, 131.97673524068105, 132.09340190734773, 132.2100685740144, 132.32673524068107, 132.5600685740144]	2021_Feb_18_1136	60.005293359409094	1	1
30	23	FALSE	NN	v	['T', 'B', 'Y', 'R', 'U', 'E', 'W', 'K', 'J', 'G', 'N', 'M', 'S', 'A', 'P', 'H']	[1888, 760, 2670, 1587, 2059, 904, 2448, 1122, 1029, 944, 1335, 1224, 1731, 697, 1456, 986]	14	Absent	NA	NA	ABSENT	0.7831590175628662	134.55946612358093	136.55666613578796	137.84032797813416	138.19040513038635	140.6639380455017	4.107271909713745	[134.56946897506714, 134.66938185691833, 135.65386295318604, 135.82066893577576, 136.58812594413757, 136.68816804885864, 136.80502891540527, 136.92182302474976, 137.0386290550232, 137.15540194511414, 137.27216291427612, 137.3889639377594, 137.50579690933228, 137.6225459575653, 137.73933792114258, 137.85610103607178, 137.9729518890381, 138.09011697769165, 138.2065908908844, 138.32342386245728, 138.4400279521942, 138.6639380455017]	[134.5600685740144, 134.67673524068107, 135.65973524068107, 135.82643524068106, 136.57643524068106, 136.69310190734774, 136.8097685740144, 136.9264352406811, 137.04310190734776, 137.15976857401444, 137.2764352406811, 137.39310190734778, 137.50976857401446, 137.62643524068113, 137.7431019073478, 137.85976857401448, 137.97643524068116, 138.09310190734783, 138.2097685740145, 138.32643524068118, 138.44310190734785, 138.67643524068117]	2021_Feb_18_1136	60.005293359409094	1	1
30	24	FALSE	NV	v	['H', 'S', 'T', 'U', 'V', 'C', 'W', 'G', 'K', 'M', 'J', 'X', 'Z', 'A', 'E', 'P']	[986, 1731, 1888, 2059, 2245, 829, 2448, 944, 1122, 1224, 1029, 4000, 2911, 697, 904, 1456]	12	Present	NA	NA	PRESENT	0.15595602989196777	140.6659700870514	142.67295598983765	143.72336196899414	144.07335495948792	146.78030395507812	4.1073479652404785	[140.6759729385376, 140.7925260066986, 141.7771120071411, 141.94386506080627, 142.69466495513916, 142.81157898902893, 142.92843389511108, 143.04512286186218, 143.16176390647888, 143.27863192558289, 143.39559888839722, 143.51233386993408, 143.62917494773865, 143.74563193321228, 143.86256408691406, 143.97952103614807, 144.09617400169373, 144.21309089660645, 144.32981204986572, 144.44674801826477, 144.5632679462433, 144.78030395507812]	[140.67643524068117, 140.79310190734785, 141.77610190734785, 141.94280190734784, 142.69280190734784, 142.80946857401452, 142.9261352406812, 143.04280190734787, 143.15946857401454, 143.2761352406812, 143.3928019073479, 143.50946857401456, 143.62613524068124, 143.7428019073479, 143.85946857401458, 143.97613524068126, 144.09280190734793, 144.2094685740146, 144.32613524068128, 144.44280190734796, 144.55946857401463, 144.79280190734795]	2021_Feb_18_1136	60.005293359409094	1	1
30	25	FALSE	NN	v	['C', 'H', 'J', 'K', 'Y', 'P', 'A', 'V', 'R', 'W', 'M', 'B', 'E', 'N', 'S', 'U']	[829, 986, 1029, 1122, 2670, 1456, 697, 2245, 1587, 2448, 1224, 760, 904, 1335, 1731, 2059]	12	Absent	NA	NA	ABSENT	0.1450188159942627	146.78913497924805	148.78932809829712	149.8396921157837	150.1897120475769	152.89667105674744	4.107342958450317	[146.79913806915283, 146.9159278869629, 147.90036487579346, 148.06696701049805, 148.81811690330505, 148.93474507331848, 149.0514109134674, 149.16829204559326, 149.28495693206787, 149.40189790725708, 149.5185739994049, 149.63550090789795, 149.75213193893433, 149.86902594566345, 149.98586988449097, 150.1032099723816, 150.21947288513184, 150.3363058567047, 150.45287585258484, 150.56968808174133, 150.66995406150818, 150.89666986465454]	[146.79280190734795, 146.90946857401462, 147.89246857401463, 148.05916857401462, 148.80916857401462, 148.9258352406813, 149.04250190734797, 149.15916857401464, 149.27583524068132, 149.392501907348, 149.50916857401467, 149.62583524068134, 149.74250190734801, 149.8591685740147, 149.97583524068136, 150.09250190734804, 150.2091685740147, 150.32583524068139, 150.44250190734806, 150.55916857401473, 150.6758352406814, 150.90916857401473]	2021_Feb_18_1136	60.005293359409094	1	1
30	26	FALSE	NN	v	['G', 'B', 'U', 'N', 'S', 'H', 'T', 'V', 'Y', 'E', 'W', 'Z', 'P', 'R', 'A', 'J']	[944, 760, 2059, 1335, 1731, 986, 1888, 2245, 2670, 904, 2448, 2911, 1456, 1587, 697, 1029]	10	Absent	NA	NA	ABSENT	0.3018040657043457	152.89567112922668	154.90561890602112	155.72287392616272	156.07266211509705	159.01303791999817	4.107419013977051	[152.9056739807129, 153.02225589752197, 154.00671291351318, 154.17370891571045, 154.92419505119324, 155.04098296165466, 155.15801000595093, 155.27478504180908, 155.39136004447937, 155.50831198692322, 155.6251289844513, 155.7419159412384, 155.85890889167786, 155.97546005249023, 156.09211993217468, 156.20911288261414, 156.32575798034668, 156.44274806976318, 156.55943393707275, 156.67621397972107, 156.79304385185242, 157.01303791999817]	[152.90916857401473, 153.0258352406814, 154.0088352406814, 154.1755352406814, 154.9255352406814, 155.04220190734807, 155.15886857401475, 155.27553524068142, 155.3922019073481, 155.50886857401477, 155.62553524068144, 155.74220190734812, 155.8588685740148, 155.97553524068147, 156.09220190734814, 156.20886857401482, 156.3255352406815, 156.44220190734816, 156.55886857401484, 156.6755352406815, 156.7922019073482, 157.0255352406815]	2021_Feb_18_1136	60.005293359409094	1	1
30	27	FALSE	NV	v	['Y', 'Z', 'W', 'U', 'P', 'N', 'E', 'X', 'G', 'C', 'A', 'K', 'S', 'R', 'H', 'J']	[2670, 2911, 2448, 2059, 1456, 1335, 904, 4000, 944, 829, 697, 1122, 1731, 1587, 986, 1029]	8	Present	NA	NA	PRESENT	0.05003499984741211	159.01894998550415	161.02206897735596	161.60592412948608	161.9562909603119	165.12940406799316	4.107335090637207	[159.02895402908325, 159.1453468799591, 160.12998700141907, 160.29664587974548, 161.04737305641174, 161.16436505317688, 161.2812430858612, 161.3979139328003, 161.5146460533142, 161.6313829421997, 161.74819207191467, 161.8651728630066, 161.98176097869873, 162.09880185127258, 162.21556186676025, 162.33226490020752, 162.449147939682, 162.56579089164734, 162.68274092674255, 162.79958701133728, 162.9162769317627, 163.12940287590027]	[159.0255352406815, 159.14220190734818, 160.12520190734818, 160.29190190734818, 161.04190190734818, 161.15856857401485, 161.27523524068152, 161.3919019073482, 161.50856857401487, 161.62523524068155, 161.74190190734822, 161.8585685740149, 161.97523524068157, 162.09190190734824, 162.20856857401492, 162.3252352406816, 162.44190190734827, 162.55856857401494, 162.67523524068162, 162.7919019073483, 162.90856857401496, 163.14190190734828]	2021_Feb_18_1136	60.005293359409094	1	1
30	28	FALSE	AA	v	['C', 'S', 'P', 'N', 'T', 'U', 'G', 'K', 'surprise', 'J', 'B', 'X', 'A', 'E', 'Z', 'V']	[829, 1731, 1456, 1335, 1888, 2059, 944, 1122, 'stimAuditory/all_stimAuditory/224.wav', 1029, 760, 4000, 697, 904, 2911, 2245]	12	Present	stimAuditory/all_stimAuditory/116.wav	stimVisual/all_stimVisual/118.jpg	PRESENT	0.10364603996276855	165.12509298324585	167.13837814331055	168.18888306617737	168.53894710540771	171.2457709312439	4.10739278793335	[165.13509702682495, 165.2518129348755, 166.23641991615295, 166.40319895744324, 167.17059206962585, 167.27064299583435, 167.38745093345642, 167.50419092178345, 167.6212170124054, 167.73781991004944, 167.85457801818848, 167.97153091430664, 168.10591006278992, 168.20506691932678, 168.321879863739, 168.43864703178406, 168.55546689033508, 168.67239904403687, 168.78906393051147, 168.90603685379028, 169.02266693115234, 169.2457718849182]	[165.14190190734828, 165.25856857401496, 166.24156857401496, 166.40826857401495, 167.15826857401495, 167.27493524068163, 167.3916019073483, 167.50826857401498, 167.62493524068165, 167.74160190734833, 167.858268574015, 167.97493524068167, 168.09160190734835, 168.20826857401502, 168.3249352406817, 168.44160190734837, 168.55826857401505, 168.67493524068172, 168.7916019073484, 168.90826857401507, 169.02493524068174, 169.25826857401506]	2021_Feb_18_1136	60.005293359409094	1	1
30	29	FALSE	NA	v	['C', 'J', 'T', 'Z', 'U', 'P', 'S', 'R', 'W', 'G', 'X', 'E', 'K', 'H', 'M', 'N']	[829, 1029, 1888, 2911, 2059, 1456, 1731, 1587, 2448, 944, 4000, 904, 1122, 986, 1224, 1335]	11	Present	NA	NA	PRESENT	0.17196917533874512	171.24842500686646	173.25490403175354	174.18874406814575	174.5385389328003	177.3621380329132	4.107234001159668	[171.25842905044556, 171.37512302398682, 172.35959005355835, 172.52633094787598, 173.27710604667664, 173.39395403862, 173.5110170841217, 173.6274778842926, 173.744304895401, 173.86123394966125, 173.9778618812561, 174.09485793113708, 174.21145296096802, 174.32842707633972, 174.44512104988098, 174.56198692321777, 174.67862796783447, 174.7955379486084, 174.9122428894043, 175.02891206741333, 175.14592099189758, 175.3621370792389]	[171.25826857401506, 171.37493524068174, 172.35793524068174, 172.52463524068173, 173.27463524068173, 173.3913019073484, 173.50796857401508, 173.62463524068176, 173.74130190734843, 173.8579685740151, 173.97463524068178, 174.09130190734845, 174.20796857401513, 174.3246352406818, 174.44130190734847, 174.55796857401515, 174.67463524068182, 174.7913019073485, 174.90796857401517, 175.02463524068185, 175.14130190734852, 175.37463524068184]	2021_Feb_18_1136	60.005293359409094	1	1
30	30	FALSE	NA	v	['H', 'T', 'K', 'A', 'J', 'M', 'P', 'Z', 'R', 'Y', 'X', 'N', 'W', 'U', 'S', 'V']	[986, 1888, 1122, 697, 1029, 1224, 1456, 2911, 1587, 2670, 4000, 1335, 2448, 2059, 1731, 2245]	11	Present	NA	NA	PRESENT	0.1614279747009277	177.3714280128479	179.3711290359497	180.30493593215945	180.65494894981384	183.4785039424896	4.107374906539917	[177.381432056427, 177.49826002120972, 178.48309803009033, 178.6493799686432, 179.40027594566345, 179.51705694198608, 179.63382291793823, 179.75074100494385, 179.86767506599426, 179.9843430519104, 180.10158491134644, 180.21783995628357, 180.33488392829895, 180.4513590335846, 180.5684199333191, 180.68513989448547, 180.80199885368347, 180.91862106323242, 181.03556108474731, 181.15210890769958, 181.2524528503418, 181.4785029888153]	[177.37463524068184, 177.49130190734851, 178.47430190734852, 178.6410019073485, 179.3910019073485, 179.50766857401518, 179.62433524068186, 179.74100190734853, 179.8576685740152, 179.97433524068188, 180.09100190734856, 180.20766857401523, 180.3243352406819, 180.44100190734858, 180.55766857401525, 180.67433524068193, 180.7910019073486, 180.90766857401528, 181.02433524068195, 181.14100190734862, 181.2576685740153, 181.49100190734862]	2021_Feb_18_1136	60.005293359409094	1	1
30	31	FALSE	NA	v	['P', 'C', 'M', 'H', 'Z', 'R', 'S', 'K', 'T', 'V', 'B', 'N', 'X', 'E', 'G', 'J']	[1456, 829, 1224, 986, 2911, 1587, 1731, 1122, 1888, 2245, 760, 1335, 4000, 904, 944, 1029]	13	Present	NA	NA	PRESENT	0.16584205627441406	183.4781119823456	185.48773097991943	186.6546609401703	187.00463604927063	189.59487104415896	4.107140064239502	[183.48811602592468, 183.60467791557312, 184.58919405937195, 184.75591492652893, 185.50687885284424, 185.6235010623932, 185.7405080795288, 185.8571879863739, 185.97394490242004, 186.09082007408142, 186.20760989189148, 186.32447004318237, 186.44105005264282, 186.55810403823853, 186.6748390197754, 186.79150390625, 186.90829586982727, 187.02516388893127, 187.1419050693512, 187.25887894630432, 187.3753809928894, 187.59487104415894]	[183.49100190734862, 183.6076685740153, 184.5906685740153, 184.7573685740153, 185.5073685740153, 185.62403524068196, 185.74070190734864, 185.8573685740153, 185.97403524068199, 186.09070190734866, 186.20736857401533, 186.324035240682, 186.44070190734868, 186.55736857401536, 186.67403524068203, 186.7907019073487, 186.90736857401538, 187.02403524068205, 187.14070190734873, 187.2573685740154, 187.37403524068208, 187.6073685740154]	2021_Feb_18_1136	60.005293359409094	1	1
30	32	FALSE	VN	v	['P', 'C', 'S', 'W', 'Z', 'B', 'surprise', 'K', 'G', 'E', 'J', 'V', 'H', 'A', 'U', 'M']	[1456, 829, 1731, 2448, 2911, 760, 'stimAuditory/all_stimAuditory/124.wav', 1122, 944, 904, 1029, 2245, 986, 697, 2059, 1224]	10	Absent	NA	stimVisual/all_stimVisual/216.jpg	ABSENT	0.09847903251647948	189.60167503356936	191.60395407676697	192.42110800743103	192.7708580493927	195.71123790740967	4.1072838306427	[189.61167907714844, 189.7279770374298, 190.71241998672485, 190.87931108474731, 191.63012099266052, 191.746808052063, 191.86349487304688, 191.98043394088745, 192.09710097312927, 192.21404600143433, 192.33073496818542, 192.44753003120422, 192.56443786621094, 192.6811819076538, 192.79784893989563, 192.91463589668274, 193.03139996528625, 193.14815306663513, 193.26511907577515, 193.38196206092834, 193.49883389472961, 193.71123790740967]	[189.6073685740154, 189.72403524068207, 190.70703524068207, 190.87373524068207, 191.62373524068207, 191.74040190734874, 191.85706857401541, 191.9737352406821, 192.09040190734876, 192.20706857401544, 192.3237352406821, 192.4404019073488, 192.55706857401546, 192.67373524068213, 192.7904019073488, 192.90706857401548, 193.02373524068216, 193.14040190734883, 193.2570685740155, 193.37373524068218, 193.49040190734885, 193.72373524068217]	2021_Feb_18_1136	60.005293359409094	1	1
30	33	FALSE	NN	v	['N', 'K', 'W', 'G', 'C', 'M', 'J', 'R', 'B', 'U', 'S', 'Z', 'P', 'E', 'Y', 'A']	[1335, 1122, 2448, 944, 829, 1224, 1029, 1587, 760, 2059, 1731, 2911, 1456, 904, 2670, 697]	10	Absent	NA	NA	ABSENT	0.1917510032653809	195.7077820301056	197.72030091285703	198.53739404678345	198.88742899894712	201.82760405540463	4.107303142547607	[195.7177848815918, 195.8343300819397, 196.8189160823822, 196.98576498031616, 197.75314593315125, 197.853266954422, 197.9698679447174, 198.08678603172302, 198.2034969329834, 198.32046604156494, 198.43726897239685, 198.55404686927795, 198.67082691192627, 198.78779697418213, 198.904314994812, 199.0212540626526, 199.1381778717041, 199.25482201576233, 199.3715419769287, 199.48842692375183, 199.6050488948822, 199.82760286331177]	[195.72373524068217, 195.84040190734885, 196.82340190734885, 196.99010190734884, 197.74010190734884, 197.85676857401552, 197.9734352406822, 198.09010190734887, 198.20676857401554, 198.32343524068222, 198.4401019073489, 198.55676857401556, 198.67343524068224, 198.7901019073489, 198.9067685740156, 199.02343524068226, 199.14010190734894, 199.2567685740156, 199.37343524068228, 199.49010190734896, 199.60676857401563, 199.84010190734895]	2021_Feb_18_1136	60.005293359409094	1	1
30	34	FALSE	NN	v	['N', 'B', 'H', 'Z', 'R', 'S', 'P', 'A', 'V', 'Y', 'M', 'T', 'K', 'J', 'E', 'G']	[1335, 760, 986, 2911, 1587, 1731, 1456, 697, 2245, 2670, 1224, 1888, 1122, 1029, 904, 944]	9	Absent	NA	NA	ABSENT	0.31624913215637207	201.8310239315033	203.83662295341492	204.53732204437256	204.88701510429385	207.9439709186554	4.1073479652404785	[201.84102702140808, 201.9576120376587, 202.9420940876007, 203.1087338924408, 203.85959601402283, 203.97660207748413, 204.09315085411072, 204.21004486083984, 204.32672500610352, 204.44346690177917, 204.5604100227356, 204.67721104621887, 204.7939338684082, 204.91061902046204, 205.02758288383484, 205.14421391487122, 205.26124095916748, 205.37806606292725, 205.4947910308838, 205.6114490032196, 205.72844195365906, 205.94396996498108]	[201.84010190734895, 201.95676857401563, 202.93976857401563, 203.10646857401562, 203.85646857401562, 203.9731352406823, 204.08980190734897, 204.20646857401564, 204.32313524068232, 204.439801907349, 204.55646857401567, 204.67313524068234, 204.78980190734902, 204.9064685740157, 205.02313524068236, 205.13980190734904, 205.2564685740157, 205.3731352406824, 205.48980190734906, 205.60646857401574, 205.7231352406824, 205.95646857401573]	2021_Feb_18_1136	60.005293359409094	1	1
30	35	FALSE	NA	v	['V', 'C', 'K', 'P', 'A', 'Z', 'J', 'Y', 'G', 'T', 'X', 'H', 'E', 'U', 'M', 'S']	[2245, 829, 1122, 1456, 697, 2911, 1029, 2670, 944, 1888, 4000, 986, 904, 2059, 1224, 1731]	11	Present	NA	NA	PRESENT	0.07386493682861328	207.9540820121765	209.95277905464172	210.8869941234589	211.23669910430908	214.0603380203247	4.107558965682983	[207.96408700942993, 208.080894947052, 209.0483078956604, 209.2154619693756, 209.98300194740295, 210.09984493255615, 210.21641397476196, 210.33318996429443, 210.4498438835144, 210.56675505638123, 210.68356800079346, 210.8003489971161, 210.9171850681305, 211.0338900089264, 211.15074491500854, 211.2674798965454, 211.38446688652039, 211.50103306770325, 211.61796689033508, 211.73469495773315, 211.83480787277222, 212.0603370666504]	[207.95646857401573, 208.0731352406824, 209.0561352406824, 209.2228352406824, 209.9728352406824, 210.08950190734907, 210.20616857401575, 210.32283524068242, 210.4395019073491, 210.55616857401577, 210.67283524068245, 210.78950190734912, 210.9061685740158, 211.02283524068247, 211.13950190734914, 211.25616857401582, 211.3728352406825, 211.48950190734917, 211.60616857401584, 211.7228352406825, 211.8395019073492, 212.0728352406825]	2021_Feb_18_1136	60.005293359409094	1	1
30	36	FALSE	NN	v	['E', 'R', 'P', 'Z', 'C', 'S', 'G', 'J', 'W', 'N', 'Y', 'V', 'B', 'T', 'H', 'M']	[904, 1587, 1456, 2911, 829, 1731, 944, 1029, 2448, 1335, 2670, 2245, 760, 1888, 986, 1224]	10	Absent	NA	NA	ABSENT	0.13413286209106445	214.06057596206665	216.06949496269223	216.88636994361875	217.2369229793549	220.17670392990112	4.107208967208862	[214.07057905197144, 214.18728804588318, 215.17166185379028, 215.3383948802948, 216.08918404579163, 216.20608496665955, 216.32296705245972, 216.43968987464905, 216.55644488334656, 216.67335200309753, 216.79012799263, 216.90690398216248, 217.0237579345703, 217.14042592048645, 217.25712704658508, 217.3741250038147, 217.4908058643341, 217.60751485824585, 217.72445487976074, 217.84128093719482, 217.95802092552185, 218.17670488357544]	[214.0728352406825, 214.18950190734918, 215.1725019073492, 215.33920190734918, 216.08920190734918, 216.20586857401585, 216.32253524068253, 216.4392019073492, 216.55586857401588, 216.67253524068255, 216.78920190734922, 216.9058685740159, 217.02253524068257, 217.13920190734925, 217.25586857401592, 217.3725352406826, 217.48920190734927, 217.60586857401594, 217.72253524068262, 217.8392019073493, 217.95586857401597, 218.1892019073493]	2021_Feb_18_1136	60.005293359409094	1	1
30	37	FALSE	NA	v	['Y', 'G', 'T', 'V', 'R', 'J', 'E', 'P', 'C', 'B', 'K', 'X', 'A', 'Z', 'W', 'N']	[2670, 944, 1888, 2245, 1587, 1029, 904, 1456, 829, 760, 1122, 4000, 697, 2911, 2448, 1335]	12	Present	NA	NA	PRESENT	0.17171788215637207	220.18397402763367	222.18558597564697	223.23634004592896	223.586688041687	226.29307103157043	4.107485055923462	[220.19397687911987, 220.31064796447754, 221.29489398002625, 221.46182107925415, 222.21247696876526, 222.32939505577087, 222.44622707366943, 222.56295800209045, 222.67961192131042, 222.79634189605713, 222.9132740497589, 223.0299198627472, 223.14671802520752, 223.26345992088318, 223.38035607337952, 223.4970588684082, 223.61391186714172, 223.73078799247742, 223.84767508506775, 223.96442699432373, 224.06430006027222, 224.29307103157043]	[220.1892019073493, 220.30586857401596, 221.28886857401596, 221.45556857401596, 222.20556857401596, 222.32223524068263, 222.4389019073493, 222.55556857401598, 222.67223524068265, 222.78890190734933, 222.905568574016, 223.02223524068268, 223.13890190734935, 223.25556857401602, 223.3722352406827, 223.48890190734937, 223.60556857401605, 223.72223524068272, 223.8389019073494, 223.95556857401607, 224.07223524068274, 224.30556857401606]	2021_Feb_18_1136	60.005293359409094	1	1
30	38	FALSE	AA	v	['A', 'Z', 'B', 'G', 'K', 'surprise', 'M', 'Y', 'X', 'R', 'S', 'P', 'J', 'V', 'W', 'N']	[697, 2911, 760, 944, 1122, 'stimAuditory/all_stimAuditory/211.wav', 1224, 2670, 4000, 1587, 1731, 1456, 1029, 2245, 2448, 1335]	9	Present	stimAuditory/all_stimAuditory/102.wav	stimVisual/all_stimVisual/210.jpg	ABSENT	0.1998128890991211	226.29010891914368	228.30229902267456	229.0030300617218	229.35254311561584	232.40943789482117	4.1071388721466064	[226.30011200904846, 226.41689085960388, 227.40133690834045, 227.56807494163513, 228.33570289611816, 228.4358310699463, 228.55246806144714, 228.6693799495697, 228.7859330177307, 228.91949105262756, 229.0196249485016, 229.13650107383728, 229.25339007377625, 229.3701159954071, 229.48677396774292, 229.60353994369507, 229.7203938961029, 229.8373248577118, 229.95403003692627, 230.07074403762817, 230.18796801567078, 230.40943694114685]	[226.30556857401606, 226.42223524068274, 227.40523524068274, 227.57193524068273, 228.32193524068273, 228.4386019073494, 228.55526857401608, 228.67193524068276, 228.78860190734943, 228.9052685740161, 229.02193524068278, 229.13860190734945, 229.25526857401613, 229.3719352406828, 229.48860190734948, 229.60526857401615, 229.72193524068282, 229.8386019073495, 229.95526857401617, 230.07193524068285, 230.18860190734952, 230.42193524068284]	2021_Feb_18_1136	60.005293359409094	1	1
30	39	FALSE	NV	v	['C', 'E', 'K', 'A', 'T', 'Y', 'R', 'V', 'G', 'S', 'N', 'X', 'B', 'J', 'H', 'M']	[829, 904, 1122, 697, 1888, 2670, 1587, 2245, 944, 1731, 1335, 4000, 760, 1029, 986, 1224]	12	Present	NA	NA	PRESENT	0.02858519554138183	232.41340112686157	234.41849994659424	235.46900510787964	235.81889605522156	238.52580499649048	4.10730504989624	[232.4234058856964, 232.5403869152069, 233.5246970653534, 233.69127488136292, 234.4421889781952, 234.5591459274292, 234.6756329536438, 234.79251289367676, 234.90910387039185, 235.02589893341064, 235.14287996292114, 235.2596619129181, 235.37643194198608, 235.4930670261383, 235.6100459098816, 235.72677087783813, 235.84368896484375, 235.96045899391174, 236.077162027359, 236.193913936615, 236.3107340335846, 236.52580499649048]	[232.42193524068284, 232.53860190734952, 233.52160190734952, 233.6883019073495, 234.4383019073495, 234.5549685740162, 234.67163524068286, 234.78830190734953, 234.9049685740162, 235.02163524068288, 235.13830190734956, 235.25496857401623, 235.3716352406829, 235.48830190734958, 235.60496857401625, 235.72163524068293, 235.8383019073496, 235.95496857401628, 236.07163524068295, 236.18830190734963, 236.3049685740163, 236.53830190734962]	2021_Feb_18_1136	60.005293359409094	1	1
30	40	FALSE	NV	v	['T', 'S', 'A', 'U', 'W', 'N', 'J', 'V', 'H', 'Z', 'X', 'M', 'K', 'E', 'R', 'G']	[1888, 1731, 697, 2059, 2448, 1335, 1029, 2245, 986, 2911, 4000, 1224, 1122, 904, 1587, 944]	11	Present	NA	NA	PRESENT	0.2577478885650635	238.53667092323303	240.5347180366516	241.4685790538788	241.81873893737793	244.64216995239255	4.107451915740967	[238.54667401313782, 238.66327786445618, 239.63084506988525, 239.7976200580597, 240.5656430721283, 240.6820559501648, 240.7988588809967, 240.91565108299255, 241.0325949192047, 241.14912390708923, 241.26615285873413, 241.38272905349731, 241.4997239112854, 241.59957790374756, 241.7331759929657, 241.83315896987915, 241.9499568939209, 242.06677508354187, 242.18356108665466, 242.3003420829773, 242.41727685928345, 242.64216995239258]	[238.53830190734962, 238.6549685740163, 239.6379685740163, 239.8046685740163, 240.5546685740163, 240.67133524068296, 240.78800190734964, 240.9046685740163, 241.021335240683, 241.13800190734966, 241.25466857401634, 241.371335240683, 241.48800190734968, 241.60466857401636, 241.72133524068303, 241.8380019073497, 241.95466857401638, 242.07133524068306, 242.18800190734973, 242.3046685740164, 242.42133524068308, 242.6546685740164]	2021_Feb_18_1136	60.005293359409094	1	1
30	41	FALSE	AV	v	['U', 'H', 'T', 'P', 'W', 'S', 'R', 'B', 'M', 'surprise', 'G', 'J', 'X', 'E', 'N', 'V']	[2059, 986, 1888, 1456, 2448, 1731, 1587, 760, 1224, 'stimAuditory/all_stimAuditory/220.wav', 944, 1029, 4000, 904, 1335, 2245]	13	Present	stimAuditory/all_stimAuditory/224.wav	stimVisual/all_stimVisual/209.jpg	PRESENT	0.3026580810546875	244.64306497573853	246.6512291431427	247.81823110580444	248.16885805130005	250.7585380077362	4.107308864593506	[244.65306901931763, 244.7698528766632, 245.75423908233643, 245.92092204093933, 246.67167901992798, 246.7887098789215, 246.90525698661804, 247.02230191230774, 247.13889598846436, 247.25583696365356, 247.37238192558289, 247.48942399024963, 247.60605597496033, 247.73981189727783, 247.83968806266785, 247.95634388923645, 248.07326102256775, 248.18993496894836, 248.30689001083374, 248.42352294921875, 248.54048204421997, 248.75853896141052]	[244.6546685740164, 244.77133524068307, 245.75433524068308, 245.92103524068307, 246.67103524068307, 246.78770190734974, 246.90436857401642, 247.0210352406831, 247.13770190734976, 247.25436857401644, 247.3710352406831, 247.4877019073498, 247.60436857401646, 247.72103524068314, 247.8377019073498, 247.95436857401648, 248.07103524068316, 248.18770190734983, 248.3043685740165, 248.42103524068318, 248.53770190734986, 248.77103524068318]	2021_Feb_18_1136	60.005293359409094	1	1
30	42	FALSE	NA	v	['A', 'V', 'M', 'E', 'J', 'S', 'H', 'X', 'C', 'T', 'U', 'N', 'G', 'Y', 'Z', 'K']	[697, 2245, 1224, 904, 1029, 1731, 986, 4000, 829, 1888, 2059, 1335, 944, 2670, 2911, 1122]	8	Present	NA	NA	PRESENT	0.14778590202331543	250.7665250301361	252.767578125	253.35129714012143	253.70171904563904	256.8749039173126	4.107325792312622	[250.7765290737152, 250.89297485351562, 251.87741088867188, 252.0441300868988, 252.79495096206665, 252.91187000274658, 253.0286250114441, 253.14546489715576, 253.26225090026855, 253.37876987457275, 253.49567008018494, 253.61248588562012, 253.72935891151428, 253.8459930419922, 253.9628119468689, 254.07968592643738, 254.19647598266602, 254.31335186958313, 254.430104970932, 254.5469560623169, 254.64680790901184, 254.87490391731262]	[250.77103524068318, 250.88770190734985, 251.87070190734985, 252.03740190734985, 252.78740190734985, 252.90406857401652, 253.0207352406832, 253.13740190734987, 253.25406857401654, 253.37073524068322, 253.4874019073499, 253.60406857401657, 253.72073524068324, 253.8374019073499, 253.9540685740166, 254.07073524068326, 254.18740190734994, 254.3040685740166, 254.42073524068329, 254.53740190734996, 254.65406857401663, 254.88740190734995]	2021_Feb_18_1136	60.005293359409094	1	1
30	43	FALSE	NA	v	['A', 'R', 'H', 'P', 'J', 'G', 'C', 'N', 'K', 'M', 'X', 'Z', 'E', 'B', 'T', 'W']	[697, 1587, 986, 1456, 1029, 944, 829, 1335, 1122, 1224, 4000, 2911, 904, 760, 1888, 2448]	11	Present	NA	NA	ABSENT	0.6402449607849121	256.8727741241455	258.8838999271393	259.81809091567993	260.1677029132843	262.99127101898193	4.107371091842651	[256.8827769756317, 256.99936604499817, 257.98386096954346, 258.1505010128021, 258.90118193626404, 259.0183050632477, 259.13492608070374, 259.25186705589294, 259.36877393722534, 259.4854769706726, 259.6020140647888, 259.71900606155396, 259.8356759548187, 259.95261693000793, 260.0692570209503, 260.1864778995514, 260.30284905433655, 260.41963291168213, 260.536495923996, 260.6531710624695, 260.770122051239, 260.9912700653076]	[256.88740190734995, 257.0040685740166, 257.98706857401663, 258.1537685740166, 258.9037685740166, 259.0204352406833, 259.13710190735, 259.25376857401665, 259.3704352406833, 259.48710190735, 259.60376857401667, 259.72043524068334, 259.83710190735, 259.9537685740167, 260.07043524068337, 260.18710190735004, 260.3037685740167, 260.4204352406834, 260.53710190735006, 260.65376857401674, 260.7704352406834, 261.00376857401676]	2021_Feb_18_1136	60.005293359409094	1	1
30	44	FALSE	AV	v	['T', 'B', 'V', 'S', 'C', 'M', 'G', 'surprise', 'R', 'W', 'X', 'P', 'A', 'U', 'H', 'J']	[1888, 760, 2245, 1731, 829, 1224, 944, 'stimAuditory/all_stimAuditory/204.wav', 1587, 2448, 4000, 1456, 697, 2059, 986, 1029]	11	Present	stimAuditory/all_stimAuditory/124.wav	stimVisual/all_stimVisual/219.jpg	PRESENT	0.19677495956420896	262.99587392807007	265.0002980232239	265.93406200408936	266.28440713882446	269.10763788223267	4.107339859008789	[263.00587797164917, 263.1225039958954, 264.107008934021, 264.27374291419983, 265.02471804618835, 265.1414520740509, 265.25824093818665, 265.3748850822449, 265.49179196357727, 265.6083879470825, 265.7253179550171, 265.85889887809753, 265.95905089378357, 266.07572197914124, 266.1925959587097, 266.3092200756073, 266.42620301246643, 266.54288697242737, 266.65970492362976, 266.7763249874115, 266.89327001571655, 267.10763692855835]	[263.00376857401676, 263.12043524068343, 264.10343524068344, 264.27013524068343, 265.02013524068343, 265.1368019073501, 265.2534685740168, 265.37013524068345, 265.4868019073501, 265.6034685740168, 265.7201352406835, 265.83680190735015, 265.9534685740168, 266.0701352406835, 266.1868019073502, 266.30346857401685, 266.4201352406835, 266.5368019073502, 266.65346857401687, 266.77013524068354, 266.8868019073502, 267.12013524068357]	2021_Feb_18_1136	60.005293359409094	1	1
30	45	FALSE	NA	v	['T', 'K', 'S', 'M', 'J', 'N', 'Z', 'U', 'Y', 'H', 'E', 'X', 'G', 'A', 'R', 'W']	[1888, 1122, 1731, 1224, 1029, 1335, 2911, 2059, 2670, 986, 904, 4000, 944, 697, 1587, 2448]	12	Present	NA	NA	PRESENT	0.0980660915374756	269.11904311180115	271.1167550086975	272.1671829223633	272.51700496673584	275.224004983902	4.107249975204468	[269.12904691696167, 269.22895908355713, 270.2135829925537, 270.3804168701172, 271.14770889282227, 271.26460003852844, 271.38149189949036, 271.4812870025635, 271.61500096321106, 271.714900970459, 271.83162903785706, 271.94842195510864, 272.06524085998535, 272.1820800304413, 272.29884600639343, 272.41562390327454, 272.5324020385742, 272.64924001693726, 272.7661089897156, 272.8828489780426, 272.99972891807556, 273.224004983902]	[269.12013524068357, 269.23680190735024, 270.21980190735025, 270.38650190735024, 271.13650190735024, 271.2531685740169, 271.3698352406836, 271.48650190735026, 271.60316857401693, 271.7198352406836, 271.8365019073503, 271.95316857401696, 272.06983524068363, 272.1865019073503, 272.303168574017, 272.41983524068365, 272.5365019073503, 272.653168574017, 272.7698352406837, 272.88650190735035, 273.003168574017, 273.2365019073504]	2021_Feb_18_1136	60.005293359409094	1	1
30	46	FALSE	NA	v	['K', 'H', 'R', 'B', 'C', 'T', 'U', 'G', 'Z', 'E', 'W', 'N', 'X', 'S', 'J', 'Y']	[1122, 986, 1587, 760, 829, 1888, 2059, 944, 2911, 904, 2448, 1335, 4000, 1731, 1029, 2670]	13	Present	NA	NA	PRESENT	0.1266310214996338	275.2253770828247	277.23292899131775	278.40027809143066	278.7500400543213	281.3403708934784	4.1074419021606445	[275.2353799343109, 275.35230803489685, 276.33673000335693, 276.5033829212189, 277.2542419433594, 277.37091302871704, 277.4878599643707, 277.6046369075775, 277.72149991989136, 277.83831787109375, 277.95499086380005, 278.0716800689697, 278.1885440349579, 278.30525398254395, 278.4222469329834, 278.538969039917, 278.65572786331177, 278.7724289894104, 278.88942098617554, 279.00598406791687, 279.12304306030273, 279.3403699398041]	[275.2365019073504, 275.35316857401705, 276.33616857401705, 276.50286857401704, 277.25286857401704, 277.3695352406837, 277.4862019073504, 277.60286857401707, 277.71953524068374, 277.8362019073504, 277.9528685740171, 278.06953524068376, 278.18620190735044, 278.3028685740171, 278.4195352406838, 278.53620190735046, 278.65286857401713, 278.7695352406838, 278.8862019073505, 279.00286857401716, 279.11953524068383, 279.3528685740172]	2021_Feb_18_1136	60.005293359409094	1	1
30	47	FALSE	NA	v	['T', 'B', 'K', 'H', 'E', 'M', 'R', 'X', 'J', 'P', 'G', 'N', 'Z', 'A', 'W', 'C']	[1888, 760, 1122, 986, 904, 1224, 1587, 4000, 1029, 1456, 944, 1335, 2911, 697, 2448, 829]	8	Present	NA	NA	PRESENT	0.4359760284423828	281.3489489555359	283.34942293167114	283.9331579208374	284.2834589481354	287.4567379951477	4.1073150634765625	[281.3589549064636, 281.4755358695984, 282.4596939086914, 282.6266498565674, 283.37737107276917, 283.4942739009857, 283.6110038757324, 283.7277910709381, 283.84478187561035, 283.96145701408386, 284.0782890319824, 284.1950168609619, 284.31185007095337, 284.4285728931427, 284.54542803764343, 284.6620659828186, 284.7787959575653, 284.8957750797272, 285.012610912323, 285.12921500205994, 285.22926688194275, 285.4567379951477]	[281.3528685740172, 281.46953524068385, 282.45253524068386, 282.61923524068385, 283.36923524068385, 283.4859019073505, 283.6025685740172, 283.7192352406839, 283.83590190735055, 283.9525685740172, 284.0692352406839, 284.18590190735057, 284.30256857401724, 284.4192352406839, 284.5359019073506, 284.65256857401727, 284.76923524068394, 284.8859019073506, 285.0025685740173, 285.11923524068396, 285.23590190735064, 285.469235240684]	2021_Feb_18_1136	60.005293359409094	1	1
30	48	FALSE	NA	v	['Y', 'K', 'B', 'N', 'M', 'J', 'U', 'W', 'P', 'Z', 'C', 'X', 'S', 'G', 'R', 'A']	[2670, 1122, 760, 1335, 1224, 1029, 2059, 2448, 1456, 2911, 829, 4000, 1731, 944, 1587, 697]	12	Present	NA	NA	PRESENT	0.21637201309204104	287.4549751281738	289.4656879901886	290.5161850452423	290.8661410808563	293.5731039047241	4.1074159145355225	[287.46497893333435, 287.58189606666565, 288.5663650035858, 288.73300099372864, 289.48376393318176, 289.6005940437317, 289.71745204925537, 289.83420491218567, 289.9510259628296, 290.06785893440247, 290.18476486206055, 290.30144906044006, 290.4181458950043, 290.5349259376526, 290.6518678665161, 290.7685160636902, 290.88542795181274, 291.0022819042206, 291.1193768978119, 291.23572301864624, 291.3526608943939, 291.5731029510498]	[287.469235240684, 287.58590190735066, 288.56890190735066, 288.73560190735066, 289.48560190735066, 289.60226857401733, 289.718935240684, 289.8356019073507, 289.95226857401735, 290.068935240684, 290.1856019073507, 290.3022685740174, 290.41893524068405, 290.5356019073507, 290.6522685740174, 290.7689352406841, 290.88560190735075, 291.0022685740174, 291.1189352406841, 291.23560190735077, 291.35226857401744, 291.5856019073508]	2021_Feb_18_1136	60.005293359409094	1	1
30	49	FALSE	NV	v	['N', 'U', 'M', 'P', 'S', 'J', 'B', 'A', 'Y', 'E', 'R', 'K', 'C', 'X', 'V', 'H']	[1335, 2059, 1224, 1456, 1731, 1029, 760, 697, 2670, 904, 1587, 1122, 829, 4000, 2245, 986]	14	Present	NA	NA	PRESENT	0.1730508804321289	293.5781490802765	295.582279920578	296.865886926651	297.2159049510956	299.68947291374207	4.1071929931640625	[293.5881540775299, 293.7052140235901, 294.68930101394653, 294.8562750816345, 295.60701990127563, 295.7238030433655, 295.8408100605011, 295.9575090408325, 296.07420206069946, 296.1910078525543, 296.30793499946594, 296.42452096939087, 296.5414638519287, 296.65810990333557, 296.77509903907776, 296.8917980194092, 297.0085389614105, 297.12550806999207, 297.2420279979706, 297.35887598991394, 297.47592091560364, 297.6894700527191]	[293.5856019073508, 293.70226857401747, 294.68526857401747, 294.85196857401746, 295.60196857401746, 295.71863524068414, 295.8353019073508, 295.9519685740175, 296.06863524068416, 296.18530190735083, 296.3019685740175, 296.4186352406842, 296.53530190735086, 296.65196857401753, 296.7686352406842, 296.8853019073509, 297.00196857401755, 297.1186352406842, 297.2353019073509, 297.3519685740176, 297.46863524068425, 297.7019685740176]	2021_Feb_18_1136	60.005293359409094	1	1
30	50	FALSE	NN	v	['E', 'K', 'J', 'S', 'H', 'N', 'C', 'U', 'T', 'A', 'W', 'V', 'P', 'R', 'Y', 'G']	[904, 1122, 1029, 1731, 986, 1335, 829, 2059, 1888, 697, 2448, 2245, 1456, 1587, 2670, 944]	9	Absent	NA	NA	ABSENT	0.28241991996765137	299.7014629840851	301.6983461380005	302.3989100456238	302.74889397621155	305.80583786964417	4.107491731643677	[299.7114670276642, 299.8114778995514, 300.79590606689453, 300.962632894516, 301.73046803474426, 301.83028388023376, 301.94707107543945, 302.0639159679413, 302.18066692352295, 302.29747891426086, 302.41420698165894, 302.531054019928, 302.64770698547363, 302.7645149230957, 302.88130807876587, 302.9981780052185, 303.1149489879608, 303.2317039966583, 303.3484869003296, 303.4653799533844, 303.58230686187744, 303.80583691596985]	[299.7019685740176, 299.8186352406843, 300.8016352406843, 300.96833524068427, 301.71833524068427, 301.83500190735094, 301.9516685740176, 302.0683352406843, 302.18500190735097, 302.30166857401764, 302.4183352406843, 302.535001907351, 302.65166857401766, 302.76833524068434, 302.885001907351, 303.0016685740177, 303.11833524068436, 303.23500190735103, 303.3516685740177, 303.4683352406844, 303.58500190735106, 303.8183352406844]	2021_Feb_18_1136	60.005293359409094	1	1
30	51	FALSE	AA	v	['A', 'H', 'B', 'Z', 'M', 'V', 'U', 'J', 'G', 'R', 'surprise', 'N', 'E', 'X', 'C', 'T']	[697, 986, 760, 2911, 1224, 2245, 2059, 1029, 944, 1587, 'stimAuditory/all_stimAuditory/118.wav', 1335, 904, 4000, 829, 1888]	14	Present	stimAuditory/all_stimAuditory/211.wav	stimVisual/all_stimVisual/201.jpg	PRESENT	0.2229619026184082	305.8078770637512	307.8149390220642	309.09870505332947	309.44857907295227	311.9222049713135	4.107265949249268	[305.8178799152374, 305.9349310398102, 306.91916584968567, 307.0860068798065, 307.83667397499084, 307.95367407798767, 308.07033705711365, 308.1871528625488, 308.30396795272827, 308.4205310344696, 308.5375099182129, 308.6541600227356, 308.77103185653687, 308.8877000808716, 309.02126288414, 309.1212649345398, 309.238196849823, 309.35497188568115, 309.47188091278076, 309.58848905563354, 309.70546293258667, 309.92220401763916]	[305.8183352406844, 305.9350019073511, 306.9180019073511, 307.0847019073511, 307.8347019073511, 307.95136857401775, 308.0680352406844, 308.1847019073511, 308.3013685740178, 308.41803524068445, 308.5347019073511, 308.6513685740178, 308.76803524068447, 308.88470190735114, 309.0013685740178, 309.1180352406845, 309.23470190735117, 309.35136857401784, 309.4680352406845, 309.5847019073512, 309.70136857401786, 309.9347019073512]	2021_Feb_18_1136	60.005293359409094	1	1
30	52	FALSE	NN	v	['U', 'N', 'G', 'C', 'E', 'V', 'J', 'K', 'Y', 'W', 'R', 'M', 'H', 'B', 'T', 'S']	[2059, 1335, 944, 829, 904, 2245, 1029, 1122, 2670, 2448, 1587, 1224, 986, 760, 1888, 1731]	8	Absent	NA	NA	ABSENT	0.292194128036499	311.9313690662384	313.9311909675598	314.5149440765381	314.8650860786438	318.0385708808899	4.107379913330078	[311.94137597084045, 312.0578980445862, 313.04205989837646, 313.2091019153595, 313.9599440097809, 314.07673692703247, 314.19356203079224, 314.3101818561554, 314.4269618988037, 314.5438120365143, 314.6607768535614, 314.7774450778961, 314.89430689811707, 315.0109899044037, 315.12763595581055, 315.2446460723877, 315.3613660335541, 315.47835302352905, 315.5949819087982, 315.71196699142456, 315.8119008541107, 316.0385699272156]	[311.9347019073512, 312.0513685740179, 313.0343685740179, 313.2010685740179, 313.9510685740179, 314.06773524068456, 314.18440190735123, 314.3010685740179, 314.4177352406846, 314.53440190735125, 314.6510685740179, 314.7677352406846, 314.8844019073513, 315.00106857401795, 315.1177352406846, 315.2344019073513, 315.351068574018, 315.46773524068465, 315.5844019073513, 315.701068574018, 315.81773524068467, 316.051068574018]	2021_Feb_18_1136	60.005293359409094	1	1
30	53	FALSE	NN	v	['T', 'U', 'N', 'Y', 'B', 'K', 'G', 'W', 'V', 'P', 'Z', 'A', 'E', 'J', 'C', 'R']	[1888, 2059, 1335, 2670, 760, 1122, 944, 2448, 2245, 1456, 2911, 697, 904, 1029, 829, 1587]	11	Absent	NA	NA	ABSENT	0.3208448886871338	318.0374140739441	320.0473749637604	320.9813630580902	321.3314690589905	324.1549379825592	4.107563018798828	[318.0474178791046, 318.1645460128784, 319.14873790740967, 319.31560587882996, 320.0662338733673, 320.1832630634308, 320.2998859882355, 320.4168469905853, 320.53356099128723, 320.6504008769989, 320.7671980857849, 320.883868932724, 321.00068187713623, 321.11767292022705, 321.23432993888855, 321.3510310649872, 321.46792697906494, 321.58468294143677, 321.701602935791, 321.81822395324707, 321.9349980354309, 322.1549379825592]	[318.051068574018, 318.1677352406847, 319.1507352406847, 319.3174352406847, 320.0674352406847, 320.18410190735136, 320.30076857401804, 320.4174352406847, 320.5341019073514, 320.65076857401806, 320.76743524068473, 320.8841019073514, 321.0007685740181, 321.11743524068476, 321.23410190735143, 321.3507685740181, 321.4674352406848, 321.58410190735145, 321.7007685740181, 321.8174352406848, 321.9341019073515, 322.1674352406848]	2021_Feb_18_1136	60.005293359409094	1	1
30	54	FALSE	NV	v	['W', 'R', 'U', 'N', 'A', 'E', 'M', 'Y', 'P', 'S', 'X', 'C', 'V', 'H', 'Z', 'T']	[2448, 1587, 2059, 1335, 697, 904, 1224, 2670, 1456, 1731, 4000, 829, 2245, 986, 2911, 1888]	11	Present	NA	NA	PRESENT	0.14940285682678223	324.1608431339264	326.1639621257782	327.0977909564972	327.4477050304413	330.2713038921356	4.107341766357422	[324.1708469390869, 324.28762698173523, 325.27200198173523, 325.43865489959717, 326.1895489692688, 326.3061909675598, 326.42310190200806, 326.5399808883667, 326.65689992904663, 326.77349185943604, 326.89044308662415, 327.007199048996, 327.12398195266724, 327.2407159805298, 327.3574049472809, 327.47419691085815, 327.59090185165405, 327.70774388313293, 327.8246409893036, 327.941349029541, 328.0583300590515, 328.2713050842285]	[324.1674352406848, 324.2841019073515, 325.2671019073515, 325.4338019073515, 326.1838019073515, 326.30046857401817, 326.41713524068484, 326.5338019073515, 326.6504685740182, 326.76713524068487, 326.88380190735154, 327.0004685740182, 327.1171352406849, 327.23380190735156, 327.35046857401824, 327.4671352406849, 327.5838019073516, 327.70046857401826, 327.81713524068493, 327.9338019073516, 328.0504685740183, 328.28380190735163]	2021_Feb_18_1136	60.005293359409094	1	1
30	55	FALSE	NN	v	['H', 'C', 'N', 'Z', 'R', 'V', 'B', 'G', 'J', 'K', 'U', 'T', 'Y', 'A', 'E', 'W']	[986, 829, 1335, 2911, 1587, 2245, 760, 944, 1029, 1122, 2059, 1888, 2670, 697, 904, 2448]	10	Absent	NA	NA	ABSENT	0.282595157623291	330.2671539783478	332.28042793273926	333.0977740287781	333.44731998443604	336.38767099380493	4.107243061065674	[330.27715706825256, 330.3939399719238, 331.37873792648315, 331.5452718734741, 332.3128499984741, 332.41275095939636, 332.52949690818787, 332.64628291130066, 332.7630670070648, 332.880136013031, 332.99669003486633, 333.11347699165344, 333.2304198741913, 333.3470199108124, 333.4637589454651, 333.5805239677429, 333.69752287864685, 333.81431698799133, 333.93105602264404, 334.0478229522705, 334.1647849082947, 334.3876700401306]	[330.28380190735163, 330.4004685740183, 331.3834685740183, 331.5501685740183, 332.3001685740183, 332.416835240685, 332.53350190735165, 332.6501685740183, 332.766835240685, 332.8835019073517, 333.00016857401835, 333.116835240685, 333.2335019073517, 333.35016857401837, 333.46683524068504, 333.5835019073517, 333.7001685740184, 333.81683524068507, 333.93350190735174, 334.0501685740184, 334.1668352406851, 334.40016857401844]	2021_Feb_18_1136	60.005293359409094	1	1
30	56	FALSE	NN	v	['K', 'Z', 'A', 'V', 'Y', 'U', 'N', 'W', 'B', 'C', 'J', 'S', 'R', 'H', 'P', 'M']	[1122, 2911, 697, 2245, 2670, 2059, 1335, 2448, 760, 829, 1029, 1731, 1587, 986, 1456, 1224]	11	Absent	NA	NA	ABSENT	0.5593020915985107	336.3902499675751	338.39666199684143	339.3304240703583	339.68051195144653	342.50403690338135	4.107374906539917	[336.4002549648285, 336.5172748565674, 337.501580953598, 337.66833305358887, 338.4191300868988, 338.5360519886017, 338.6527280807495, 338.7695209980011, 338.8864178657532, 339.00308299064636, 339.12006998062134, 339.2368679046631, 339.353590965271, 339.47043204307556, 339.58714485168457, 339.703852891922, 339.82077503204346, 339.9374270439148, 340.0541799068451, 340.1709609031677, 340.287878036499, 340.50403690338135]	[336.40016857401844, 336.5168352406851, 337.4998352406851, 337.6665352406851, 338.4165352406851, 338.5332019073518, 338.64986857401846, 338.76653524068513, 338.8832019073518, 338.9998685740185, 339.11653524068515, 339.2332019073518, 339.3498685740185, 339.4665352406852, 339.58320190735185, 339.6998685740185, 339.8165352406852, 339.9332019073519, 340.04986857401855, 340.1665352406852, 340.2832019073519, 340.51653524068524]	2021_Feb_18_1136	60.005293359409094	1	1
30	57	FALSE	NN	v	['V', 'Y', 'R', 'B', 'T', 'U', 'S', 'C', 'J', 'W', 'P', 'N', 'A', 'E', 'G', 'M']	[2245, 2670, 1587, 760, 1888, 2059, 1731, 829, 1029, 2448, 1456, 1335, 697, 904, 944, 1224]	11	Absent	NA	NA	ABSENT	0.1645069122314453	342.5134789943695	344.51313996315	345.4468779563904	345.79717111587524	348.620404958725	4.107264995574951	[342.5234820842743, 342.6402659416199, 343.6247670650482, 343.79149103164673, 344.5423069000244, 344.65909790992737, 344.77602791786194, 344.89283990859985, 345.00958585739136, 345.12629890441895, 345.24319291114807, 345.3599500656128, 345.47674798965454, 345.59366488456726, 345.7103228569031, 345.82721185684204, 345.94395685195923, 346.06051301956177, 346.17758798599243, 346.2942838668823, 346.3943600654602, 346.620404958725]	[342.51653524068524, 342.6332019073519, 343.6162019073519, 343.7829019073519, 344.5329019073519, 344.6495685740186, 344.76623524068526, 344.88290190735194, 344.9995685740186, 345.1162352406853, 345.23290190735196, 345.34956857401863, 345.4662352406853, 345.582901907352, 345.69956857401866, 345.81623524068533, 345.932901907352, 346.0495685740187, 346.16623524068535, 346.282901907352, 346.3995685740187, 346.63290190735205]	2021_Feb_18_1136	60.005293359409094	1	1
30	58	FALSE	NV	v	['U', 'K', 'S', 'G', 'Y', 'V', 'W', 'X', 'A', 'R', 'M', 'B', 'Z', 'N', 'J', 'E']	[2059, 1122, 1731, 944, 2670, 2245, 2448, 4000, 697, 1587, 1224, 760, 2911, 1335, 1029, 904]	8	Present	NA	NA	PRESENT	0.1930248737335205	348.61994194984436	350.62931299209595	351.21319913864136	351.5633120536804	354.7367720603943	4.10745906829834	[348.62994599342346, 348.7468819618225, 349.7311489582062, 349.8981080055237, 350.64877700805664, 350.76575994491577, 350.88244700431824, 350.99934792518616, 351.1162519454956, 351.232764005661, 351.34974193573, 351.466392993927, 351.5833098888397, 351.6999249458313, 351.81684494018555, 351.9335730075836, 352.0503568649292, 352.16699385643005, 352.28399991989136, 352.4006450176239, 352.5175769329071, 352.7367708683014]	[348.63290190735205, 348.7495685740187, 349.7325685740187, 349.8992685740187, 350.6492685740187, 350.7659352406854, 350.88260190735207, 350.99926857401874, 351.1159352406854, 351.2326019073521, 351.34926857401877, 351.46593524068544, 351.5826019073521, 351.6992685740188, 351.81593524068546, 351.93260190735214, 352.0492685740188, 352.1659352406855, 352.28260190735216, 352.39926857401883, 352.5159352406855, 352.74926857401886]	2021_Feb_18_1136	60.005293359409094	1	1
30	59	FALSE	VV	v	['B', 'V', 'T', 'Z', 'M', 'U', 'J', 'P', 'E', 'W', 'surprise', 'H', 'C', 'X', 'G', 'Y']	[760, 2245, 1888, 2911, 1224, 2059, 1029, 1456, 904, 2448, 'stimAuditory/all_stimAuditory/221.wav', 986, 829, 4000, 944, 2670]	14	Present	NA	stimVisual/all_stimVisual/104.jpg	PRESENT	0.26970982551574707	354.7431890964508	356.7455780506134	358.02971506118774	358.3796389102936	360.8531379699707	4.1075599193573	[354.753191947937, 354.8699939250946, 355.854367017746, 356.0213088989258, 356.7720549106598, 356.8886640071869, 357.0058250427246, 357.12226486206055, 357.2393319606781, 357.3558840751648, 357.47273087501526, 357.5896489620209, 357.7064070701599, 357.8231520652771, 357.9399299621582, 358.05672097206116, 358.1733908653259, 358.29032492637634, 358.40720105171204, 358.52391505241394, 358.64053201675415, 358.85313606262207]	[354.74926857401886, 354.86593524068553, 355.84893524068553, 356.0156352406855, 356.7656352406855, 356.8823019073522, 356.9989685740189, 357.11563524068555, 357.2323019073522, 357.3489685740189, 357.4656352406856, 357.58230190735225, 357.6989685740189, 357.8156352406856, 357.93230190735227, 358.04896857401894, 358.1656352406856, 358.2823019073523, 358.39896857401897, 358.51563524068564, 358.6323019073523, 358.86563524068566]	2021_Feb_18_1136	60.005293359409094	1	1
30	60	FALSE	NA	v	['G', 'H', 'K', 'V', 'P', 'Z', 'M', 'E', 'X', 'W', 'S', 'C', 'Y', 'J', 'R', 'A']	[944, 986, 1122, 2245, 1456, 2911, 1224, 904, 4000, 2448, 1731, 829, 2670, 1029, 1587, 697]	9	Present	NA	NA	PRESENT	0.19475603103637695	360.8495929241181	362.8622031211853	363.5625	363.9139440059662	366.9695038795471	4.107300758361816	[360.8595960140228, 360.9764778614044, 361.96129608154297, 362.12761902809143, 362.89513397216797, 362.99547386169434, 363.11199498176575, 363.22874903678894, 363.345685005188, 363.4624960422516, 363.5792980194092, 363.6960470676422, 363.81291604042053, 363.929486989975, 364.0464470386505, 364.1631529331207, 364.27996301651, 364.396812915802, 364.51361298561096, 364.63028287887573, 364.7472598552704, 364.9695029258728]	[360.86563524068566, 360.98230190735234, 361.96530190735234, 362.13200190735233, 362.88200190735233, 362.998668574019, 363.1153352406857, 363.23200190735236, 363.34866857401903, 363.4653352406857, 363.5820019073524, 363.69866857401905, 363.8153352406857, 363.9320019073524, 364.0486685740191, 364.16533524068575, 364.2820019073524, 364.3986685740191, 364.5153352406858, 364.63200190735245, 364.7486685740191, 364.98200190735247]	2021_Feb_18_1136	60.005293359409094	1	1
30	61	FALSE	NN	v	['M', 'B', 'G', 'E', 'A', 'T', 'Y', 'H', 'U', 'P', 'C', 'W', 'V', 'S', 'R', 'J']	[1224, 760, 944, 904, 697, 1888, 2670, 986, 2059, 1456, 829, 2448, 2245, 1731, 1587, 1029]	12	Absent	NA	NA	ABSENT	0.29521703720092773	366.9728081226349	368.9786801338196	370.029000043869	370.3789119720459	373.0858709812164	4.107190847396851	[366.9828119277954, 367.0996959209442, 368.08407402038574, 368.25104093551636, 369.0016219615936, 369.11853790283203, 369.2353980541229, 369.35199308395386, 369.4687979221344, 369.58563208580017, 369.7023630142212, 369.8191468715668, 369.9359669685364, 370.0528230667114, 370.169842004776, 370.28633308410645, 370.4032220840454, 370.51977801322937, 370.63677191734314, 370.7535538673401, 370.8702929019928, 371.0858700275421]	[366.98200190735247, 367.09866857401914, 368.08166857401915, 368.24836857401914, 368.99836857401914, 369.1150352406858, 369.2317019073525, 369.34836857401916, 369.46503524068584, 369.5817019073525, 369.6983685740192, 369.81503524068586, 369.93170190735253, 370.0483685740192, 370.1650352406859, 370.28170190735256, 370.39836857401923, 370.5150352406859, 370.6317019073526, 370.74836857401925, 370.8650352406859, 371.0983685740193]	2021_Feb_18_1136	60.005293359409094	1	1
30	62	FALSE	NN	v	['G', 'J', 'W', 'B', 'A', 'Z', 'N', 'C', 'S', 'T', 'U', 'K', 'P', 'Y', 'H', 'R']	[944, 1029, 2448, 760, 697, 2911, 1335, 829, 1731, 1888, 2059, 1122, 1456, 2670, 986, 1587]	13	Absent	NA	NA	ABSENT	0.2606987953186035	373.0960221290589	375.0950081348419	376.2619769573212	376.6123571395874	379.20223808288574	4.107229948043823	[373.10602593421936, 373.22270607948303, 374.1903738975525, 374.3573088645935, 375.1246280670166, 375.24154806137085, 375.35849595069885, 375.475172996521, 375.5919768810272, 375.70875787734985, 375.8256299495697, 375.9424910545349, 376.05921602249146, 376.17598485946655, 376.29273104667664, 376.40966987609863, 376.5094130039215, 376.643217086792, 376.7430229187012, 376.85981702804565, 376.9768440723419, 377.20223808288574]	[373.0983685740193, 373.21503524068595, 374.19803524068595, 374.36473524068595, 375.11473524068595, 375.2314019073526, 375.3480685740193, 375.46473524068597, 375.58140190735264, 375.6980685740193, 375.814735240686, 375.93140190735267, 376.04806857401934, 376.164735240686, 376.2814019073527, 376.39806857401936, 376.51473524068604, 376.6314019073527, 376.7480685740194, 376.86473524068606, 376.98140190735273, 377.2147352406861]	2021_Feb_18_1136	60.005293359409094	1	1
30	63	FALSE	NV	v	['B', 'P', 'W', 'R', 'U', 'Y', 'C', 'T', 'J', 'X', 'Z', 'S', 'N', 'G', 'E', 'K']	[760, 1456, 2448, 1587, 2059, 2670, 829, 1888, 1029, 4000, 2911, 1731, 1335, 944, 904, 1122]	10	Present	NA	NA	PRESENT	0.23346590995788577	379.2024691104889	381.2111539840698	382.02838611602783	382.37831807136536	385.31860399246216	4.107450008392334	[379.2124719619751, 379.32922101020813, 380.3136429786682, 380.48058795928955, 381.23151993751526, 381.34819293022156, 381.46505784988403, 381.58164501190186, 381.6986310482025, 381.8152029514313, 381.93211007118225, 382.04877185821533, 382.1657769680023, 382.282438993454, 382.3993470668793, 382.5161678791046, 382.6329209804535, 382.749587059021, 382.8664529323578, 382.98320508003235, 383.1000928878784, 383.31860303878784]	[379.2147352406861, 379.33140190735276, 380.31440190735276, 380.48110190735275, 381.23110190735275, 381.3477685740194, 381.4644352406861, 381.5811019073528, 381.69776857401945, 381.8144352406861, 381.9311019073528, 382.04776857401947, 382.16443524068615, 382.2811019073528, 382.3977685740195, 382.51443524068617, 382.63110190735284, 382.7477685740195, 382.8644352406862, 382.98110190735287, 383.09776857401954, 383.3311019073529]	2021_Feb_18_1136	60.005293359409094	1	1
30	64	FALSE	NV	v	['W', 'G', 'K', 'R', 'U', 'S', 'T', 'J', 'P', 'N', 'X', 'E', 'H', 'M', 'V', 'C']	[2448, 944, 1122, 1587, 2059, 1731, 1888, 1029, 1456, 1335, 4000, 904, 986, 1224, 2245, 829]	11	Present	NA	NA	PRESENT	0.23068904876708984	385.3256120681762	387.32753896713257	388.26192712783813	388.61146998405457	391.4349708557129	4.107431888580322	[385.3356158733368, 385.45235300064087, 386.4368200302124, 386.6039140224457, 387.35445404052734, 387.4712929725647, 387.5881268978119, 387.70478796958923, 387.82149505615234, 387.93846106529236, 388.0553050041199, 388.17199206352234, 388.2887508869171, 388.40571188926697, 388.52227687835693, 388.63922595977783, 388.75613594055176, 388.8727910518646, 388.9894390106201, 389.1065800189972, 389.20636200904846, 389.4349699020386]	[385.3311019073529, 385.44776857401956, 386.43076857401957, 386.59746857401956, 387.34746857401956, 387.46413524068623, 387.5808019073529, 387.6974685740196, 387.81413524068626, 387.93080190735293, 388.0474685740196, 388.1641352406863, 388.28080190735295, 388.3974685740196, 388.5141352406863, 388.630801907353, 388.74746857401965, 388.8641352406863, 388.980801907353, 389.0974685740197, 389.21413524068635, 389.4474685740197]	2021_Feb_18_1136	60.005293359409094	1	1
30	65	FALSE	NA	v	['H', 'W', 'Z', 'U', 'P', 'B', 'S', 'V', 'N', 'K', 'X', 'R', 'Y', 'T', 'G', 'A']	[986, 2448, 2911, 2059, 1456, 760, 1731, 2245, 1335, 1122, 4000, 1587, 2670, 1888, 944, 697]	11	Present	NA	NA	PRESENT	0.1871299743652344	391.4323940277099	393.4437870979309	394.3778579235077	394.7279200553894	397.5513379573822	4.107550859451294	[391.44239807128906, 391.5589940547943, 392.54346895217896, 392.710177898407, 393.4775369167328, 393.5777750015259, 393.69457602500916, 393.81121802330017, 393.92808389663696, 394.0448820590973, 394.1617238521576, 394.27844285964966, 394.39531898498535, 394.511990070343, 394.62892985343933, 394.7455520629883, 394.8625910282135, 394.9792239665985, 395.09588098526, 395.2127649784088, 395.32955408096313, 395.5513379573822]	[391.4474685740197, 391.56413524068637, 392.5471352406864, 392.71383524068636, 393.46383524068636, 393.58050190735304, 393.6971685740197, 393.8138352406864, 393.93050190735306, 394.04716857401974, 394.1638352406864, 394.2805019073531, 394.39716857401976, 394.51383524068643, 394.6305019073531, 394.7471685740198, 394.86383524068646, 394.98050190735313, 395.0971685740198, 395.2138352406865, 395.33050190735315, 395.5638352406865]	2021_Feb_18_1136	60.005293359409094	1	1
30	66	FALSE	NV	v	['H', 'S', 'V', 'K', 'Z', 'J', 'T', 'X', 'M', 'N', 'R', 'A', 'B', 'G', 'Y', 'C']	[986, 1731, 2245, 1122, 2911, 1029, 1888, 4000, 1224, 1335, 1587, 697, 760, 944, 2670, 829]	8	Present	NA	NA	PRESENT	0.31171607971191406	397.5553300380707	399.5602021217346	400.1441581249237	400.4941420555115	403.6677038669586	4.107501745223999	[397.5653450489044, 397.6821539402008, 398.6664719581604, 398.8333668708801, 399.58407187461853, 399.700984954834, 399.81778597831726, 399.93440198898315, 400.0514450073242, 400.16806387901306, 400.2850489616394, 400.40160298347473, 400.51859402656555, 400.63528299331665, 400.75203704833984, 400.868980884552, 400.98551893234253, 401.10271692276, 401.2191948890686, 401.3359959125519, 401.45277285575867, 401.6677029132843]	[397.5638352406865, 397.6805019073532, 398.6635019073532, 398.83020190735317, 399.58020190735317, 399.69686857401985, 399.8135352406865, 399.9302019073532, 400.04686857401987, 400.16353524068654, 400.2802019073532, 400.3968685740199, 400.51353524068656, 400.63020190735324, 400.7468685740199, 400.8635352406866, 400.98020190735326, 401.09686857401994, 401.2135352406866, 401.3302019073533, 401.44686857401996, 401.6802019073533]	2021_Feb_18_1136	60.005293359409094	1	1
30	67	FALSE	NV	v	['Y', 'E', 'V', 'G', 'W', 'U', 'M', 'J', 'N', 'Z', 'X', 'S', 'P', 'T', 'A', 'R']	[2670, 904, 2245, 944, 2448, 2059, 1224, 1029, 1335, 2911, 4000, 1731, 1456, 1888, 697, 1587]	11	Present	NA	NA	PRESENT	0.3969118595123291	403.67841506004333	405.6768860816955	406.61048412323	406.96045207977295	409.78407096862793	4.107184886932373	[403.68841791152954, 403.8053619861603, 404.77295303344727, 404.9397909641266, 405.70719504356384, 405.82410192489624, 405.9408550262451, 406.0575680732727, 406.17438793182373, 406.29131507873535, 406.4080979824066, 406.5249800682068, 406.6248378753662, 406.7585999965668, 406.85838890075684, 406.9752788543701, 407.0919840335846, 407.208881855011, 407.3254990577698, 407.4423739910126, 407.55912804603577, 407.78407192230225]	[403.6802019073533, 403.79686857402, 404.77986857402, 404.94656857402, 405.69656857402, 405.81323524068665, 405.9299019073533, 406.04656857402, 406.1632352406867, 406.27990190735335, 406.39656857402, 406.5132352406867, 406.62990190735337, 406.74656857402005, 406.8632352406867, 406.9799019073534, 407.09656857402007, 407.21323524068674, 407.3299019073534, 407.4465685740201, 407.56323524068677, 407.7965685740201]	2021_Feb_18_1136	60.005293359409094	1	1
30	68	FALSE	NV	v	['A', 'W', 'Z', 'J', 'K', 'V', 'M', 'G', 'N', 'X', 'E', 'R', 'Y', 'B', 'T', 'H']	[697, 2448, 2911, 1029, 1122, 2245, 1224, 944, 1335, 4000, 904, 1587, 2670, 760, 1888, 986]	10	Present	NA	NA	PRESENT	0.4336781501770019	409.7848880290985	411.7932081222534	412.6105959415436	412.9601590633392	415.9004380702973	4.107229948043823	[409.7948908805847, 409.91179490089417, 410.8960950374603, 411.06311798095703, 411.8140299320221, 411.93052101135254, 412.04743099212646, 412.1640679836273, 412.28097701072693, 412.39776587486267, 412.51467204093933, 412.63123202323914, 412.7482399940491, 412.86494302749634, 412.98180985450745, 413.09852504730225, 413.21519804000854, 413.3322250843048, 413.4489278793335, 413.56565499305725, 413.6822829246521, 413.9004440307617]	[409.7965685740201, 409.9132352406868, 410.8962352406868, 411.0629352406868, 411.8129352406868, 411.92960190735346, 412.04626857402013, 412.1629352406868, 412.2796019073535, 412.39626857402016, 412.51293524068683, 412.6296019073535, 412.7462685740202, 412.86293524068685, 412.9796019073535, 413.0962685740202, 413.2129352406869, 413.32960190735355, 413.4462685740202, 413.5629352406869, 413.6796019073536, 413.9129352406869]	2021_Feb_18_1136	60.005293359409094	1	1
30	69	FALSE	NV	v	['N', 'V', 'A', 'C', 'Y', 'E', 'G', 'X', 'U', 'R', 'H', 'T', 'W', 'J', 'B', 'K']	[1335, 2245, 697, 829, 2670, 904, 944, 4000, 2059, 1587, 986, 1888, 2448, 1029, 760, 1122]	8	Present	NA	NA	PRESENT	0.4871659278869629	415.9082500934601	417.90952706336975	418.49329900741577	418.84321904182434	422.01680397987366	4.107276916503906	[415.9182529449463, 416.03505301475525, 417.0194180011749, 417.18631291389465, 417.93691897392273, 418.0537910461426, 418.1706609725952, 418.28737688064575, 418.4042329788208, 418.5209929943085, 418.6375529766083, 418.7545850276947, 418.87118887901306, 418.9881548881531, 419.10477685928345, 419.22180795669556, 419.3383560180664, 419.45538902282715, 419.57218885421753, 419.68884801864624, 419.78882694244385, 420.01680302619934]	[415.9129352406869, 416.0296019073536, 417.0126019073536, 417.1793019073536, 417.9293019073536, 418.04596857402026, 418.16263524068694, 418.2793019073536, 418.3959685740203, 418.51263524068696, 418.62930190735364, 418.7459685740203, 418.862635240687, 418.97930190735366, 419.09596857402033, 419.212635240687, 419.3293019073537, 419.44596857402036, 419.56263524068703, 419.6793019073537, 419.7959685740204, 420.0293019073537]	2021_Feb_18_1136	60.005293359409094	1	1
30	70	FALSE	VV	v	['H', 'J', 'S', 'T', 'surprise', 'A', 'P', 'X', 'M', 'W', 'E', 'Z', 'U', 'V', 'R', 'Y']	[986, 1029, 1731, 1888, 'stimAuditory/all_stimAuditory/114.wav', 697, 1456, 4000, 1224, 2448, 904, 2911, 2059, 2245, 1587, 2670]	8	Present	NA	stimVisual/all_stimVisual/211.jpg	PRESENT	0.39532899856567383	422.0147180557251	424.02577114105225	424.60981702804565	424.95970606803894	428.1331698894501	4.107398748397827	[422.0247209072113, 422.1414968967438, 423.12570691108704, 423.2927179336548, 424.0431730747223, 424.1600489616394, 424.27716398239136, 424.39370799064636, 424.52713108062744, 424.6273019313812, 424.7442579269409, 424.8609628677368, 424.97789907455444, 425.09460401535034, 425.21138405799866, 425.32814288139343, 425.44501185417175, 425.5616979598999, 425.67863392829895, 425.7953848838806, 425.9121608734131, 426.13317108154297]	[422.0293019073537, 422.1459685740204, 423.1289685740204, 423.2956685740204, 424.0456685740204, 424.16233524068707, 424.27900190735375, 424.3956685740204, 424.5123352406871, 424.62900190735377, 424.74566857402044, 424.8623352406871, 424.9790019073538, 425.09566857402046, 425.21233524068714, 425.3290019073538, 425.4456685740205, 425.56233524068716, 425.67900190735384, 425.7956685740205, 425.9123352406872, 426.14566857402053]	2021_Feb_18_1136	60.005293359409094	1	1
30	71	FALSE	NA	v	['A', 'S', 'Z', 'G', 'U', 'W', 'R', 'J', 'X', 'V', 'M', 'E', 'T', 'P', 'K', 'B']	[697, 1731, 2911, 944, 2059, 2448, 1587, 1029, 4000, 2245, 1224, 904, 1888, 1456, 1122, 760]	9	Present	NA	NA	PRESENT	0.6639950275421143	428.13790106773376	430.1420590877533	430.8426160812378	431.1928060054779	434.249538898468	4.107479810714722	[428.1479048728943, 428.2644338607788, 429.2490940093994, 429.41572999954224, 430.16651606559753, 430.28340888023376, 430.40025997161865, 430.516970872879, 430.63375186920166, 430.7506380081177, 430.86722207069397, 430.98421692848206, 431.1012840270996, 431.2178530693054, 431.33448004722595, 431.4513969421387, 431.5680010318756, 431.68480491638184, 431.80185890197754, 431.91857290267944, 432.0351119041443, 432.249538898468]	[428.14566857402053, 428.2623352406872, 429.2453352406872, 429.4120352406872, 430.1620352406872, 430.2787019073539, 430.39536857402055, 430.5120352406872, 430.6287019073539, 430.7453685740206, 430.86203524068725, 430.9787019073539, 431.0953685740206, 431.21203524068727, 431.32870190735395, 431.4453685740206, 431.5620352406873, 431.67870190735397, 431.79536857402064, 431.9120352406873, 432.028701907354, 432.26203524068734]	2021_Feb_18_1136	60.005293359409094	1	1
30	72	FALSE	NA	v	['V', 'G', 'A', 'N', 'P', 'T', 'U', 'X', 'H', 'J', 'C', 'E', 'R', 'Z', 'W', 'K']	[2245, 944, 697, 1335, 1456, 1888, 2059, 4000, 986, 1029, 829, 904, 1587, 2911, 2448, 1122]	8	Present	NA	NA	PRESENT	0.7652120590209961	434.2609350681305	436.2584519386291	436.84231996536255	437.1923599243164	440.3659038543701	4.107451915740967	[434.270938873291, 434.3709349632263, 435.3553988933563, 435.52228808403015, 436.28975200653076, 436.4066410064697, 436.5065190792084, 436.6233720779419, 436.74008798599243, 436.85685896873474, 436.9736340045929, 437.10824489593506, 437.2073760032654, 437.32408690452576, 437.44088101387024, 437.55769300460815, 437.674458026886, 437.79129004478455, 437.9083230495453, 438.0248510837555, 438.14191794395447, 438.3659019470215]	[434.26203524068734, 434.378701907354, 435.361701907354, 435.528401907354, 436.278401907354, 436.3950685740207, 436.51173524068736, 436.62840190735403, 436.7450685740207, 436.8617352406874, 436.97840190735405, 437.09506857402073, 437.2117352406874, 437.3284019073541, 437.44506857402075, 437.5617352406874, 437.6784019073541, 437.7950685740208, 437.91173524068745, 438.0284019073541, 438.1450685740208, 438.37840190735415]	2021_Feb_18_1136	60.005293359409094	1	1
30	73	FALSE	NN	v	['M', 'W', 'C', 'H', 'Y', 'N', 'T', 'Z', 'P', 'G', 'S', 'K', 'R', 'E', 'B', 'J']	[1224, 2448, 829, 986, 2670, 1335, 1888, 2911, 1456, 944, 1731, 1122, 1587, 904, 760, 1029]	14	Absent	NA	NA	ABSENT	0.2578890323638916	440.36746311187744	442.3747880458832	443.6587579250336	444.0087831020355	446.4822700023651	4.107481956481934	[440.37746691703796, 440.49407291412354, 441.4789550304413, 441.64539408683777, 442.396213054657, 442.5128970146179, 442.6298818588257, 442.746778011322, 442.8632779121399, 442.98008584976196, 443.09716987609863, 443.2137260437012, 443.3307809829712, 443.44745087623596, 443.5642650127411, 443.6809940338135, 443.7977020740509, 443.91462206840515, 444.03140687942505, 444.14829897880554, 444.2648708820343, 444.48227095603943]	[440.37840190735415, 440.4950685740208, 441.4780685740208, 441.6447685740208, 442.3947685740208, 442.5114352406875, 442.62810190735416, 442.74476857402084, 442.8614352406875, 442.9781019073542, 443.09476857402086, 443.21143524068754, 443.3281019073542, 443.4447685740209, 443.56143524068756, 443.67810190735423, 443.7947685740209, 443.9114352406876, 444.02810190735426, 444.14476857402093, 444.2614352406876, 444.49476857402095]	2021_Feb_18_1136	60.005293359409094	1	1
30	74	FALSE	NA	v	['Y', 'M', 'U', 'N', 'T', 'P', 'C', 'R', 'A', 'E', 'B', 'G', 'W', 'X', 'V', 'H']	[2670, 1224, 2059, 1335, 1888, 1456, 829, 1587, 697, 904, 760, 944, 2448, 4000, 2245, 986]	14	Present	NA	NA	PRESENT	0.2792379856109619	446.49059009552	448.4913871288299	449.7753291130066	450.1250901222229	452.59863805770874	4.107250928878784	[446.50059390068054, 446.61728501319885, 447.6018190383911, 447.76880502700806, 448.51935386657715, 448.63634991645813, 448.7529339790344, 448.86982893943787, 448.98675990104675, 449.10338306427, 449.22020292282104, 449.3371698856354, 449.45366406440735, 449.57067489624023, 449.6874170303345, 449.80415296554565, 449.9209449291229, 450.03778100013733, 450.1545760631561, 450.27141189575195, 450.37137389183044, 450.59863805770874]	[446.49476857402095, 446.6114352406876, 447.59443524068763, 447.7611352406876, 448.5111352406876, 448.6278019073543, 448.74446857402097, 448.86113524068764, 448.9778019073543, 449.094468574021, 449.21113524068767, 449.32780190735434, 449.444468574021, 449.5611352406877, 449.67780190735436, 449.79446857402104, 449.9111352406877, 450.0278019073544, 450.14446857402106, 450.26113524068774, 450.3778019073544, 450.61113524068776]	2021_Feb_18_1136	60.005293359409094	1	1
30	75	FALSE	NV	v	['Z', 'K', 'N', 'R', 'B', 'P', 'U', 'W', 'J', 'E', 'X', 'T', 'Y', 'V', 'A', 'S']	[2911, 1122, 1335, 1587, 760, 1456, 2059, 2448, 1029, 904, 4000, 1888, 2670, 2245, 697, 1731]	11	Present	NA	NA	PRESENT	1.003767967224121	452.59732007980347	454.6075630187988	455.5413899421692	455.89146900177	458.7150039672851	4.107440948486328	[452.60732197761536, 452.72376894950867, 453.70838594436646, 453.87522292137146, 454.62572598457336, 454.74280285835266, 454.85959100723267, 454.976243019104, 455.09323287010193, 455.20981001853943, 455.3267149925232, 455.44331789016724, 455.56033396720886, 455.67703008651733, 455.7939178943634, 455.91060996055603, 456.02738404273987, 456.1442639827728, 456.2609369754791, 456.3779230117798, 456.4945318698883, 456.71500396728516]	[452.61113524068776, 452.72780190735443, 453.71080190735444, 453.87750190735443, 454.62750190735443, 454.7441685740211, 454.8608352406878, 454.97750190735445, 455.0941685740211, 455.2108352406878, 455.3275019073545, 455.44416857402115, 455.5608352406878, 455.6775019073545, 455.79416857402117, 455.91083524068785, 456.0275019073545, 456.1441685740212, 456.26083524068787, 456.37750190735454, 456.4941685740212, 456.72750190735456]	2021_Feb_18_1136	60.005293359409094	1	1
30	76	FALSE	NN	v	['S', 'G', 'J', 'W', 'Z', 'A', 'M', 'E', 'T', 'V', 'N', 'K', 'Y', 'R', 'P', 'C']	[1731, 944, 1029, 2448, 2911, 697, 1224, 904, 1888, 2245, 1335, 1122, 2670, 1587, 1456, 829]	13	Absent	NA	NA	ABSENT	0.39226698875427246	458.7202699184418	460.7238841056824	461.89110112190247	462.24115800857544	464.83137106895447	4.107486963272095	[458.7302749156952, 458.8470640182495, 459.83162689208984, 459.9984030723572, 460.74898505210876, 460.8657760620117, 460.9825270175934, 461.09946298599243, 461.2160840034485, 461.3330490589142, 461.4499349594116, 461.56666803359985, 461.68327498435974, 461.8003649711609, 461.9169878959656, 462.03386902809143, 462.150906085968, 462.26752185821533, 462.3841600418091, 462.5008840560913, 462.6178369522095, 462.8313698768616]	[458.72750190735456, 458.84416857402124, 459.82716857402124, 459.99386857402123, 460.74386857402123, 460.8605352406879, 460.9772019073546, 461.09386857402126, 461.21053524068793, 461.3272019073546, 461.4438685740213, 461.56053524068795, 461.67720190735463, 461.7938685740213, 461.910535240688, 462.02720190735465, 462.1438685740213, 462.260535240688, 462.3772019073547, 462.49386857402135, 462.610535240688, 462.84386857402137]	2021_Feb_18_1136	60.005293359409094	1	1
30	77	FALSE	NV	v	['M', 'Y', 'H', 'K', 'A', 'W', 'V', 'R', 'E', 'G', 'Z', 'J', 'X', 'U', 'P', 'T']	[1224, 2670, 986, 1122, 697, 2448, 2245, 1587, 904, 944, 2911, 1029, 4000, 2059, 1456, 1888]	13	Present	NA	NA	PRESENT	0.34963202476501465	464.82652401924133	466.8402969837189	468.0076560974121	468.3574810028076	470.9477379322052	4.107440948486328	[464.83652806282043, 464.95334005355835, 465.9378390312195, 466.1048810482025, 466.8721990585327, 466.97218585014343, 467.0890009403229, 467.2057909965515, 467.32256388664246, 467.43944787979126, 467.5561330318451, 467.67297291755676, 467.78979086875916, 467.906555891037, 468.0233829021454, 468.14024806022644, 468.2569839954376, 468.37388491630554, 468.4906630516052, 468.6074719429016, 468.72413086891174, 468.9477379322052]	[464.84386857402137, 464.96053524068805, 465.94353524068805, 466.11023524068804, 466.86023524068804, 466.9769019073547, 467.0935685740214, 467.21023524068806, 467.32690190735474, 467.4435685740214, 467.5602352406881, 467.67690190735476, 467.79356857402144, 467.9102352406881, 468.0269019073548, 468.14356857402146, 468.26023524068813, 468.3769019073548, 468.4935685740215, 468.61023524068816, 468.72690190735483, 468.9602352406882]	2021_Feb_18_1136	60.005293359409094	1	1
30	78	FALSE	AN	v	['S', 'R', 'G', 'J', 'surprise', 'H', 'T', 'N', 'Z', 'C', 'U', 'P', 'A', 'K', 'M', 'B']	[1731, 1587, 944, 1029, 'stimAuditory/all_stimAuditory/107.wav', 986, 1888, 1335, 2911, 829, 2059, 1456, 697, 1122, 1224, 760]	8	Absent	stimAuditory/all_stimAuditory/220.wav	stimVisual/all_stimVisual/204.jpg	ABSENT	0.5219330787658691	470.9500560760498	472.9567840099335	473.5405521392822	473.8905510902405	477.0641028881073	4.107318878173828	[470.960058927536, 471.0765450000763, 472.0612540245056, 472.2283239364624, 472.9787769317627, 473.0955128669739, 473.2124490737915, 473.32905888557434, 473.46270990371704, 473.56258893013, 473.6795949935913, 473.79616689682007, 473.91311287879944, 474.02973985671997, 474.14655089378357, 474.26349091529846, 474.3801329135895, 474.49708700180054, 474.6136898994446, 474.73073387145996, 474.84735894203186, 475.0641040802002]	[470.9602352406882, 471.07690190735485, 472.05990190735486, 472.22660190735485, 472.97660190735485, 473.0932685740215, 473.2099352406882, 473.32660190735487, 473.44326857402154, 473.5599352406882, 473.6766019073549, 473.79326857402157, 473.90993524068824, 474.0266019073549, 474.1432685740216, 474.25993524068826, 474.37660190735494, 474.4932685740216, 474.6099352406883, 474.72660190735496, 474.84326857402164, 475.076601907355]	2021_Feb_18_1136	60.005293359409094	1	1
30	79	FALSE	NA	v	['Y', 'C', 'A', 'J', 'K', 'V', 'W', 'B', 'U', 'T', 'R', 'X', 'H', 'Z', 'M', 'E']	[2670, 829, 697, 1029, 1122, 2245, 2448, 760, 2059, 1888, 1587, 4000, 986, 2911, 1224, 904]	12	Present	NA	NA	PRESENT	0.2633540630340576	477.07311511039734	479.0730059146881	480.1235749721527	480.4736080169678	483.1804709434509	4.107465028762817	[477.0831210613251, 477.19979095458984, 478.18429708480835, 478.35118985176086, 479.10194396972656, 479.21882700920105, 479.3354139328003, 479.4523448944092, 479.5689558982849, 479.68589091300964, 479.8025588989258, 479.919527053833, 480.03621006011963, 480.15315198898315, 480.26974987983704, 480.38673305511475, 480.5033040046692, 480.62003898620605, 480.73701190948486, 480.85373401641846, 480.95389795303345, 481.1804709434509]	[477.076601907355, 477.19326857402166, 478.17626857402166, 478.34296857402165, 479.09296857402165, 479.2096352406883, 479.326301907355, 479.4429685740217, 479.55963524068835, 479.676301907355, 479.7929685740217, 479.9096352406884, 480.02630190735505, 480.1429685740217, 480.2596352406884, 480.37630190735507, 480.49296857402175, 480.6096352406884, 480.7263019073551, 480.84296857402177, 480.95963524068844, 481.1929685740218]	2021_Feb_18_1136	60.005293359409094	1	1
