participant	trial_num	practice	task	condition	RSVP	RAP	probePos	probe_presence	surprise_sound	surprise_img	probe_response	probe_resp_time	first_fixation_time	trial_start_time	surprise_start_time	probe_start_time	trial_end_time	trial_duration	actualEventTimes	plannedEventTimes	date	framerate	marker_vol	RAP_vol
14	1	FALSE	NN	v	['U', 'N', 'Y', 'A', 'J', 'C', 'T', 'M', 'R', 'G', 'W', 'K', 'H', 'P', 'E', 'V']	[2059, 1335, 2670, 697, 1029, 829, 1888, 1224, 1587, 944, 2448, 1122, 986, 1456, 904, 2245]	14	Absent	NA	NA	ABSENT	0.534621000289917	1.9073486328125e-6	1.994086980819702	3.275425910949707	3.625443935394287	6.1038689613342285	4.109781980514526	[0.015664100646972656, 0.115692138671875, 1.100147008895874, 1.266848087310791, 2.034693956375122, 2.1344239711761475, 2.251214027404785, 2.368255138397217, 2.4848649501800537, 2.601842164993286, 2.7186009883880615, 2.8353590965270996, 2.9521350860595703, 3.068791151046753, 3.185737133026123, 3.3023300170898438, 3.419187068939209, 3.535926103591919, 3.6529691219329834, 3.7696280479431152, 3.886399984359741, 4.1038689613342285]	[9.5367431640625e-07, 0.11666762034098306, 1.099667620340983, 1.266367620340983, 2.016367620340983, 2.1330342870076495, 2.249700953674316, 2.366367620340983, 2.4830342870076496, 2.5997009536743163, 2.716367620340983, 2.8330342870076497, 2.9497009536743164, 3.066367620340983, 3.18303428700765, 3.2997009536743165, 3.416367620340983, 3.53303428700765, 3.6497009536743166, 3.7663676203409833, 3.88303428700765, 4.116367620340983]	2021_Jan_29_0944	59.94706060588736	1	1
14	2	FALSE	NA	v	['N', 'P', 'M', 'K', 'Z', 'V', 'J', 'T', 'Y', 'X', 'U', 'A', 'H', 'B', 'G', 'R']	[1335, 1456, 1224, 1122, 2911, 2245, 1029, 1888, 2670, 4000, 2059, 697, 986, 760, 944, 1587]	10	Present	NA	NA	PRESENT	0.5561630725860596	6.106312990188599	8.107385873794556	8.924156904220581	9.274188995361328	12.22023606300354	4.112850189208984	[6.121973991394043, 6.238708972930908, 7.223057985305786, 7.390116930007935, 8.140766143798828, 8.257687091827393, 8.374498128890991, 8.49103307723999, 8.608090162277222, 8.724668979644775, 8.84161114692688, 8.958786964416504, 9.075013160705566, 9.191962003707886, 9.308602094650269, 9.425336122512817, 9.542174100875854, 9.658934116363525, 9.77590799331665, 9.892496109008789, 9.992591142654419, 10.22023606300354]	[6.116367620340983, 6.23303428700765, 7.216034287007649, 7.382734287007649, 8.132734287007649, 8.249400953674316, 8.366067620340983, 8.48273428700765, 8.599400953674317, 8.716067620340985, 8.832734287007652, 8.949400953674319, 9.066067620340986, 9.182734287007653, 9.29940095367432, 9.416067620340987, 9.532734287007655, 9.649400953674322, 9.766067620340989, 9.882734287007656, 9.999400953674323, 10.232734287007656]	2021_Jan_29_0944	59.94706060588736	1	1
14	3	FALSE	NV	v	['E', 'K', 'G', 'S', 'P', 'W', 'B', 'R', 'H', 'U', 'J', 'C', 'X', 'T', 'A', 'N']	[904, 1122, 944, 1731, 1456, 2448, 760, 1587, 986, 2059, 1029, 829, 4000, 1888, 697, 1335]	13	Present	NA	NA	ABSENT	0.9044718742370604	12.213127851486206	14.223506927490234	15.39064598083496	15.740506887435911	18.336601972579956	4.113095045089722	[12.228790044784546, 12.345198154449463, 13.329602003097534, 13.496479988098145, 14.247080087661743, 14.36404299736023, 14.480630159378052, 14.597689151763916, 14.714282035827637, 14.831180095672607, 14.947783946990967, 15.064547061920166, 15.181421041488647, 15.298156976699829, 15.414999961853027, 15.53174114227295, 15.648606061935425, 15.765542030334473, 15.882164001464844, 15.99883508682251, 16.115872144699097, 16.336601972579956]	[12.232734287007656, 12.349400953674323, 13.332400953674323, 13.499100953674324, 14.249100953674324, 14.365767620340991, 14.482434287007658, 14.599100953674325, 14.715767620340992, 14.83243428700766, 14.949100953674327, 15.065767620340994, 15.182434287007661, 15.299100953674328, 15.415767620340995, 15.532434287007662, 15.64910095367433, 15.765767620340997, 15.882434287007664, 15.999100953674331, 16.115767620340996, 16.34910095367433]	2021_Jan_29_0944	59.94706060588736	1	1
14	4	FALSE	NV	v	['R', 'W', 'J', 'Z', 'B', 'P', 'U', 'C', 'A', 'X', 'S', 'G', 'N', 'K', 'V', 'M']	[1587, 2448, 1029, 2911, 760, 1456, 2059, 829, 697, 4000, 1731, 944, 1335, 1122, 2245, 1224]	10	Present	NA	NA	PRESENT	0.49325108528137207	18.335723876953125	20.3398540019989	21.157322883605957	21.50722599029541	24.452969074249268	4.113115072250366	[18.35138511657715, 18.468321084976196, 19.452445030212402, 19.61940598487854, 20.370187997817993, 20.486804962158203, 20.60389804840088, 20.720550060272217, 20.837406158447266, 20.954889059066772, 21.07096815109253, 21.187705993652344, 21.304540157318115, 21.421374082565308, 21.5381121635437, 21.6550190448761, 21.77184295654297, 21.88884997367859, 22.0053870677948, 22.121917009353638, 22.238791942596436, 22.452970027923584]	[18.34910095367433, 18.465767620340998, 19.448767620341, 19.615467620340997, 20.365467620340997, 20.482134287007664, 20.59880095367433, 20.715467620341, 20.832134287007666, 20.948800953674333, 21.065467620341, 21.182134287007667, 21.298800953674334, 21.415467620341, 21.53213428700767, 21.648800953674336, 21.765467620341003, 21.88213428700767, 21.998800953674337, 22.115467620341004, 22.23213428700767, 22.465467620341006]	2021_Jan_29_0944	59.94706060588736	1	1
14	5	FALSE	NV	v	['A', 'W', 'T', 'M', 'R', 'C', 'S', 'Z', 'V', 'U', 'H', 'E', 'N', 'X', 'Y', 'J']	[697, 2448, 1888, 1224, 1587, 829, 1731, 2911, 2245, 2059, 986, 904, 1335, 4000, 2670, 1029]	14	Present	NA	NA	PRESENT	0.3862459659576416	24.458958864212036	26.456117868423465	27.740031957626343	28.090049982070923	30.569337129592896	4.113219261169434	[24.474621057510376, 24.574453115463257, 25.558906078338623, 25.72561812400818, 26.49321413040161, 26.593224048614502, 26.709972143173218, 26.826810121536255, 26.943652153015137, 27.060338973999023, 27.17716908454895, 27.293921947479248, 27.410742044448853, 27.527626991271973, 27.644355058670044, 27.761139154434204, 27.87793803215027, 27.994660139083862, 28.111529111862183, 28.228538036346436, 28.345235109329224, 28.569337129592896]	[24.465467620341006, 24.582134287007673, 25.565134287007673, 25.731834287007672, 26.481834287007672, 26.59850095367434, 26.715167620341006, 26.831834287007673, 26.94850095367434, 27.065167620341008, 27.181834287007675, 27.298500953674342, 27.41516762034101, 27.531834287007676, 27.648500953674343, 27.76516762034101, 27.881834287007678, 27.998500953674345, 28.115167620341012, 28.23183428700768, 28.348500953674346, 28.58183428700768]	2021_Jan_29_0944	59.94706060588736	1	1
14	6	FALSE	NN	v	['K', 'Z', 'J', 'U', 'R', 'W', 'S', 'C', 'N', 'Y', 'G', 'H', 'P', 'B', 'E', 'A']	[1122, 2911, 1029, 2059, 1587, 2448, 1731, 829, 1335, 2670, 944, 986, 1456, 760, 904, 697]	8	Absent	NA	NA	ABSENT	0.407012939453125	30.565243005752563	32.57278895378113	33.15633296966553	33.506402015686035	36.68570303916931	4.112914085388184	[30.580904006958008, 30.697715044021606, 31.682188987731934, 31.848844051361084, 32.59985399246216, 32.716469049453735, 32.83321213722229, 32.95011496543884, 33.06692600250244, 33.1836199760437, 33.30040907859802, 33.41707897186279, 33.53406596183777, 33.65068602561951, 33.76757001876831, 33.884254932403564, 34.001145124435425, 34.117741107940674, 34.23465609550476, 34.35128712654114, 34.46828293800354, 34.685702085494995]	[30.58183428700768, 30.698500953674348, 31.681500953674348, 31.848200953674347, 32.59820095367435, 32.71486762034102, 32.831534287007685, 32.94820095367435, 33.06486762034102, 33.181534287007686, 33.29820095367435, 33.41486762034102, 33.53153428700769, 33.648200953674355, 33.76486762034102, 33.88153428700769, 33.998200953674356, 34.11486762034102, 34.23153428700769, 34.34820095367436, 34.464867620341025, 34.69820095367436]	2021_Jan_29_0944	59.94706060588736	1	1
14	7	FALSE	NA	v	['S', 'H', 'U', 'K', 'Z', 'P', 'M', 'Y', 'E', 'B', 'C', 'X', 'R', 'V', 'N', 'A']	[1731, 986, 2059, 1122, 2911, 1456, 1224, 2670, 904, 760, 829, 4000, 1587, 2245, 1335, 697]	12	Present	NA	NA	PRESENT	0.11637115478515624	36.68833804130554	38.68923306465149	39.739304065704346	40.089372873306274	42.80206894874573	4.112835884094238	[36.70401215553284, 36.82079195976257, 37.804933071136475, 37.97207307815552, 38.722702980041504, 38.83934307098389, 38.95618200302124, 39.07319211959839, 39.18997502326965, 39.306578159332275, 39.42334604263306, 39.54002499580383, 39.65705704689026, 39.77377104759216, 39.89041709899902, 40.00747895240784, 40.12425112724304, 40.24079513549805, 40.35782313346863, 40.47446012496948, 40.57443809509277, 40.80206894874573]	[36.69820095367436, 36.814867620341026, 37.79786762034102, 37.96456762034102, 38.71456762034102, 38.83123428700769, 38.947900953674356, 39.06456762034102, 39.18123428700769, 39.29790095367436, 39.414567620341025, 39.53123428700769, 39.64790095367436, 39.764567620341026, 39.88123428700769, 39.99790095367436, 40.11456762034103, 40.231234287007695, 40.34790095367436, 40.46456762034103, 40.581234287007696, 40.81456762034103]	2021_Jan_29_0944	59.94706060588736	1	1
14	8	FALSE	NA	v	['H', 'G', 'E', 'Y', 'P', 'V', 'B', 'X', 'C', 'Z', 'A', 'U', 'S', 'T', 'J', 'N']	[986, 944, 904, 2670, 1456, 2245, 760, 4000, 829, 2911, 697, 2059, 1731, 1888, 1029, 1335]	8	Present	NA	NA	PRESENT	0.2088449001312256	42.79501390457153	44.80539798736572	45.38902997970581	45.73904204368591	48.918437004089355	4.113039016723633	[42.81067514419556, 42.92699313163757, 43.911458015441895, 44.078349113464355, 44.82881999015808, 44.945647954940796, 45.06255793571472, 45.179495096206665, 45.2962429523468, 45.412846088409424, 45.5297429561615, 45.64669609069824, 45.7633421421051, 45.879929065704346, 45.996917963027954, 46.1137809753418, 46.230528116226196, 46.347389936447144, 46.46406412124634, 46.58069109916687, 46.697773933410645, 46.91843605041504]	[42.81456762034103, 42.9312342870077, 43.914234287007694, 44.08093428700769, 44.83093428700769, 44.94760095367436, 45.06426762034103, 45.180934287007695, 45.29760095367436, 45.41426762034103, 45.530934287007696, 45.64760095367436, 45.76426762034103, 45.8809342870077, 45.997600953674365, 46.11426762034103, 46.2309342870077, 46.347600953674366, 46.46426762034103, 46.5809342870077, 46.69760095367437, 46.9309342870077]	2021_Jan_29_0944	59.94706060588736	1	1
14	9	FALSE	NA	v	['P', 'J', 'K', 'A', 'C', 'N', 'H', 'X', 'T', 'V', 'S', 'Z', 'R', 'M', 'U', 'Y']	[1456, 1029, 1122, 697, 829, 1335, 986, 4000, 1888, 2245, 1731, 2911, 1587, 1224, 2059, 2670]	8	Present	NA	NA	PRESENT	0.5255119800567627	48.91767597198486	50.921833992004395	51.50571703910827	51.85566186904907	55.03480315208435	4.112969160079956	[48.93333697319031, 49.05014395713806, 50.03428316116333, 50.201334953308105, 50.952033042907715, 51.06876611709595, 51.18570399284363, 51.302303075790405, 51.419140100479126, 51.53582406044006, 51.65291404724121, 51.769554138183594, 51.88675498962402, 52.00330400466919, 52.11999797821045, 52.236608028411865, 52.35347008705139, 52.470256090164185, 52.587011098861694, 52.70380210876465, 52.8205771446228, 53.03480315208435]	[48.9309342870077, 49.04760095367437, 50.030600953674366, 50.197300953674365, 50.947300953674365, 51.06396762034103, 51.1806342870077, 51.297300953674366, 51.41396762034103, 51.5306342870077, 51.64730095367437, 51.763967620341035, 51.8806342870077, 51.99730095367437, 52.113967620341036, 52.2306342870077, 52.34730095367437, 52.46396762034104, 52.580634287007705, 52.69730095367437, 52.81396762034104, 53.04730095367437]	2021_Jan_29_0944	59.94706060588736	1	1
14	10	FALSE	NV	v	['M', 'G', 'V', 'E', 'A', 'Z', 'Y', 'R', 'H', 'T', 'W', 'S', 'N', 'X', 'B', 'C']	[1224, 944, 2245, 904, 697, 2911, 2670, 1587, 986, 1888, 2448, 1731, 1335, 4000, 760, 829]	14	Present	NA	NA	PRESENT	0.4185981750488281	55.040817975997925	57.03796887397766	58.32175588607788	58.67170786857605	61.15117001533508	4.113201141357422	[55.05649209022522, 55.156294107437134, 56.140676975250244, 56.307799100875854, 57.07518196105957, 57.192103147506714, 57.29186296463013, 57.40864706039429, 57.52538704872131, 57.64227294921875, 57.75907301902771, 57.87576913833618, 57.99260711669922, 58.10936713218689, 58.226211071014404, 58.34315800666809, 58.459803104400635, 58.57679200172424, 58.69330406188965, 58.81012201309204, 58.927014112472534, 59.15116906166077]	[55.04730095367437, 55.16396762034104, 56.14696762034104, 56.313667620341036, 57.063667620341036, 57.1803342870077, 57.29700095367437, 57.41366762034104, 57.530334287007705, 57.64700095367437, 57.76366762034104, 57.880334287007706, 57.99700095367437, 58.11366762034104, 58.23033428700771, 58.347000953674375, 58.46366762034104, 58.58033428700771, 58.697000953674376, 58.81366762034104, 58.93033428700771, 59.163667620341045]	2021_Jan_29_0944	59.94706060588736	1	1
14	11	FALSE	NA	v	['E', 'B', 'T', 'G', 'A', 'Z', 'Y', 'X', 'P', 'S', 'J', 'V', 'U', 'M', 'K', 'W']	[904, 760, 1888, 944, 697, 2911, 2670, 4000, 1456, 1731, 1029, 2245, 2059, 1224, 1122, 2448]	8	Present	NA	NA	PRESENT	0.3992800712585449	61.14715504646301	63.154486894607544	63.73810505867005	64.08826684951782	67.2675371170044	4.113050222396851	[61.16281700134277, 61.279443979263306, 62.264235973358154, 62.430607080459595, 63.18145394325256, 63.29818606376648, 63.41502809524536, 63.53175115585327, 63.648797035217285, 63.76530599594116, 63.882408142089844, 63.99896693229675, 64.1156530380249, 64.2324640750885, 64.34934902191162, 64.4660120010376, 64.58302402496338, 64.69979810714722, 64.81658816337585, 64.93328094482422, 65.04999613761902, 65.26753616333008]	[61.163667620341045, 61.28033428700771, 62.26333428700771, 62.43003428700771, 63.18003428700771, 63.296700953674375, 63.41336762034104, 63.53003428700771, 63.646700953674376, 63.76336762034104, 63.88003428700771, 63.99670095367438, 64.11336762034104, 64.2300342870077, 64.34670095367436, 64.46336762034102, 64.58003428700768, 64.69670095367434, 64.813367620341, 64.93003428700766, 65.04670095367432, 65.28003428700765]	2021_Jan_29_0944	59.94706060588736	1	1
14	12	FALSE	NN	v	['K', 'B', 'N', 'S', 'T', 'U', 'P', 'V', 'M', 'E', 'W', 'Y', 'R', 'J', 'Z', 'A']	[1122, 760, 1335, 1731, 1888, 2059, 1456, 2245, 1224, 904, 2448, 2670, 1587, 1029, 2911, 697]	10	Absent	NA	NA	ABSENT	0.5243909358978271	67.27010798454285	69.27093386650085	70.08788204193115	70.43815302848816	73.38390302658081	4.112969160079956	[67.28576898574829, 67.40258002281189, 68.38695311546326, 68.55386900901794, 69.30454111099243, 69.42120409011841, 69.53829193115234, 69.65494108200073, 69.77169394493103, 69.88849210739136, 70.00529313087463, 70.12192893028259, 70.23889303207397, 70.35567808151245, 70.4725730419159, 70.58926296234131, 70.70588302612305, 70.8227641582489, 70.93975114822388, 71.05643916130066, 71.15651798248291, 71.38390302658081]	[67.28003428700765, 67.39670095367431, 68.37970095367432, 68.54640095367432, 69.29640095367432, 69.41306762034098, 69.52973428700764, 69.6464009536743, 69.76306762034096, 69.87973428700762, 69.99640095367428, 70.11306762034094, 70.2297342870076, 70.34640095367426, 70.46306762034092, 70.57973428700758, 70.69640095367424, 70.8130676203409, 70.92973428700756, 71.04640095367422, 71.16306762034088, 71.39640095367422]	2021_Jan_29_0944	59.94706060588736	1	1
14	13	FALSE	VA	v	['S', 'V', 'B', 'H', 'E', 'surprise', 'Y', 'C', 'X', 'M', 'G', 'R', 'J', 'U', 'A', 'Z']	[1731, 2245, 760, 986, 904, 'stimAuditory/all_stimAuditory/120.wav', 2670, 829, 4000, 1224, 944, 1587, 1029, 2059, 697, 2911]	9	Present	NA	stimVisual/all_stimVisual/221.jpg	ABSENT	0.5929889678955078	73.37655401229858	75.38724184036255	76.08762001991272	76.43766784667969	79.50027012825012	4.113028287887573	[73.39221501350403, 73.50895595550537, 74.49313998222351, 74.65992903709412, 75.41077208518982, 75.52777194976807, 75.64450812339783, 75.76111912727356, 75.87805199623108, 76.01160502433777, 76.11164712905884, 76.22840905189514, 76.39520716667175, 76.46197199821472, 76.57893204689026, 76.69549703598022, 76.81241297721863, 76.92924904823303, 77.0460000038147, 77.16264915466309, 77.27956199645996, 77.50026893615723]	[73.39640095367422, 73.51306762034088, 74.49606762034088, 74.66276762034089, 75.41276762034089, 75.52943428700755, 75.6461009536742, 75.76276762034087, 75.87943428700753, 75.99610095367419, 76.11276762034085, 76.2294342870075, 76.34610095367417, 76.46276762034083, 76.57943428700749, 76.69610095367415, 76.81276762034081, 76.92943428700747, 77.04610095367413, 77.16276762034079, 77.27943428700745, 77.51276762034078]	2021_Jan_29_0944	59.94706060588736	1	1
14	14	FALSE	NV	v	['E', 'T', 'P', 'W', 'Y', 'J', 'N', 'H', 'R', 'A', 'X', 'V', 'Z', 'G', 'S', 'U']	[904, 1888, 1456, 2448, 2670, 1029, 1335, 986, 1587, 697, 4000, 2245, 2911, 944, 1731, 2059]	11	Present	NA	NA	PRESENT	0.08581304550170898	79.49944686889648	81.50368189811707	82.43753600120544	82.78714799880981	85.61663699150085	4.112955093383789	[79.51510810852051, 79.63206005096436, 80.61620593070984, 80.78322410583496, 81.53385496139526, 81.65055012702942, 81.76766514778137, 81.88458800315857, 82.00117802619934, 82.1177339553833, 82.2344160079956, 82.35141396522522, 82.46829605102539, 82.58489298820496, 82.70164203643799, 82.81851816177368, 82.93534994125366, 83.05214595794678, 83.16885495185852, 83.28573203086853, 83.40248894691467, 83.61663699150085]	[79.51276762034078, 79.62943428700744, 80.61243428700745, 80.77913428700745, 81.52913428700745, 81.64580095367411, 81.76246762034077, 81.87913428700743, 81.99580095367409, 82.11246762034075, 82.22913428700741, 82.34580095367407, 82.46246762034073, 82.57913428700739, 82.69580095367405, 82.81246762034071, 82.92913428700737, 83.04580095367403, 83.16246762034069, 83.27913428700735, 83.39580095367401, 83.62913428700735]	2021_Jan_29_0944	59.94706060588736	1	1
14	15	FALSE	NN	v	['P', 'N', 'G', 'Z', 'W', 'S', 'U', 'H', 'V', 'C', 'A', 'T', 'K', 'J', 'R', 'B']	[1456, 1335, 944, 2911, 2448, 1731, 2059, 986, 2245, 829, 697, 1888, 1122, 1029, 1587, 760]	14	Absent	NA	NA	ABSENT	0.4188899993896485	85.6226818561554	87.62011384963989	88.90360403060913	89.25355291366577	91.73300194740295	4.1128880977630615	[85.63834309577942, 85.73809814453125, 86.72272801399231, 86.88942813873291, 87.65685510635376, 87.75691604614258, 87.8736879825592, 87.99047994613647, 88.10734796524048, 88.2241280078888, 88.34093809127808, 88.45773816108704, 88.57440495491028, 88.69119715690613, 88.80801200866699, 88.92478895187378, 89.0416431427002, 89.15831398963928, 89.27516794204712, 89.39202094078064, 89.50887894630432, 89.73300194740295]	[85.62913428700735, 85.745800953674, 86.72880095367401, 86.89550095367402, 87.64550095367402, 87.76216762034068, 87.87883428700734, 87.995500953674, 88.11216762034066, 88.22883428700732, 88.34550095367398, 88.46216762034064, 88.5788342870073, 88.69550095367396, 88.81216762034062, 88.92883428700728, 89.04550095367394, 89.1621676203406, 89.27883428700726, 89.39550095367392, 89.51216762034058, 89.74550095367391]	2021_Jan_29_0944	59.94706060588736	1	1
14	16	FALSE	NV	v	['M', 'J', 'B', 'P', 'Z', 'W', 'G', 'A', 'T', 'H', 'V', 'U', 'X', 'N', 'Y', 'E']	[1224, 1029, 760, 1456, 2911, 2448, 944, 697, 1888, 986, 2245, 2059, 4000, 1335, 2670, 904]	13	Present	NA	NA	PRESENT	0.295579195022583	91.72883200645448	93.73625493049622	94.9032700061798	95.25327587127686	97.84937000274658	4.113115072250366	[91.74449396133423, 91.86137104034424, 92.84590005874634, 93.01250696182251, 93.76327300071716, 93.88021898269653, 93.99682807922363, 94.11351895332336, 94.23056411743164, 94.34719395637512, 94.4641170501709, 94.58069014549255, 94.69766998291016, 94.81433200836182, 94.93127512931824, 95.04793810844421, 95.16479206085205, 95.28161597251892, 95.39846515655518, 95.51510906219482, 95.6320390701294, 95.84937000274658]	[91.74550095367391, 91.86216762034057, 92.84516762034058, 93.01186762034058, 93.76186762034058, 93.87853428700724, 93.9952009536739, 94.11186762034056, 94.22853428700722, 94.34520095367388, 94.46186762034054, 94.5785342870072, 94.69520095367386, 94.81186762034052, 94.92853428700718, 95.04520095367384, 95.1618676203405, 95.27853428700716, 95.39520095367382, 95.51186762034048, 95.62853428700714, 95.86186762034048]	2021_Jan_29_0944	59.94706060588736	1	1
14	17	FALSE	NN	v	['K', 'B', 'J', 'P', 'E', 'R', 'S', 'A', 'C', 'H', 'V', 'W', 'N', 'U', 'T', 'G']	[1122, 760, 1029, 1456, 904, 1587, 1731, 697, 829, 986, 2245, 2448, 1335, 2059, 1888, 944]	14	Absent	NA	NA	ABSENT	0.5644559860229492	97.851970911026	99.85275983810423	101.13641095161438	101.4865379333496	103.9657371044159	4.1129772663116455	[97.86763215065002, 97.98448300361633, 98.96898913383484, 99.1357491016388, 99.88632416725159, 100.00326609611511, 100.11999797821045, 100.23664402961731, 100.3535590171814, 100.47029399871826, 100.58717703819275, 100.7039680480957, 100.82049798965454, 100.93759107589722, 101.05436205863953, 101.17113709449768, 101.28774499893188, 101.40456509590149, 101.52142310142517, 101.63821315765381, 101.73817801475525, 101.9657371044159]	[97.86186762034048, 97.97853428700714, 98.96153428700714, 99.12823428700715, 99.87823428700715, 99.9949009536738, 100.11156762034047, 100.22823428700713, 100.34490095367379, 100.46156762034045, 100.5782342870071, 100.69490095367377, 100.81156762034043, 100.92823428700709, 101.04490095367375, 101.1615676203404, 101.27823428700707, 101.39490095367373, 101.51156762034039, 101.62823428700705, 101.7449009536737, 101.97823428700704]	2021_Jan_29_0944	59.94706060588736	1	1
14	18	FALSE	VV	v	['S', 'H', 'Z', 'P', 'B', 'surprise', 'W', 'K', 'X', 'M', 'V', 'Y', 'A', 'G', 'T', 'E']	[1731, 986, 2911, 1456, 760, 'stimAuditory/all_stimAuditory/219.wav', 2448, 1122, 4000, 1224, 2245, 2670, 697, 944, 1888, 904]	9	Present	NA	stimVisual/all_stimVisual/100.jpg	ABSENT	0.31335997581481934	103.9581458568573	105.9692358970642	106.66946196556091	107.01959085464478	110.08210301399232	4.112867116928101	[103.97380709648132, 104.09058904647827, 105.07512593269348, 105.24189901351929, 105.9925651550293, 106.10966205596924, 106.22634196281433, 106.34294199943542, 106.45993208885193, 106.59328699111938, 106.6933970451355, 106.8103129863739, 106.92715001106262, 107.04374408721924, 107.16072702407837, 107.2773220539093, 107.39429306983948, 107.51090908050537, 107.62770700454712, 107.74459600448608, 107.86134195327759, 108.08210396766663]	[103.97823428700704, 104.0949009536737, 105.0779009536737, 105.24460095367371, 105.99460095367371, 106.11126762034037, 106.22793428700703, 106.34460095367369, 106.46126762034035, 106.57793428700701, 106.69460095367367, 106.81126762034033, 106.92793428700699, 107.04460095367365, 107.16126762034031, 107.27793428700697, 107.39460095367363, 107.51126762034029, 107.62793428700695, 107.74460095367361, 107.86126762034027, 108.0946009536736]	2021_Jan_29_0944	59.94706060588736	1	1
14	19	FALSE	NA	v	['R', 'V', 'P', 'U', 'C', 'S', 'Z', 'M', 'A', 'X', 'E', 'K', 'B', 'J', 'N', 'H']	[1587, 2245, 1456, 2059, 829, 1731, 2911, 1224, 697, 4000, 904, 1122, 760, 1029, 1335, 986]	10	Present	NA	NA	PRESENT	0.27803897857666016	110.08132886886597	112.08542704582214	112.90240788459778	113.2523238658905	116.19847011566162	4.1130430698394775	[110.09698915481567, 110.21379899978638, 111.19808793067932, 111.36506509780884, 112.1161060333252, 112.23251104354858, 112.34947896003723, 112.46617007255554, 112.58311915397644, 112.69978904724121, 112.81641507148743, 112.93331408500671, 113.0501401424408, 113.16693115234375, 113.28355002403259, 113.40046906471252, 113.51713013648987, 113.63422799110413, 113.75100111961365, 113.86774015426636, 113.98447012901306, 114.19847011566162]	[110.0946009536736, 110.21126762034027, 111.19426762034027, 111.36096762034028, 112.11096762034028, 112.22763428700694, 112.3443009536736, 112.46096762034026, 112.57763428700692, 112.69430095367358, 112.81096762034024, 112.9276342870069, 113.04430095367356, 113.16096762034022, 113.27763428700688, 113.39430095367354, 113.5109676203402, 113.62763428700686, 113.74430095367352, 113.86096762034018, 113.97763428700684, 114.21096762034017]	2021_Jan_29_0944	59.94706060588736	1	1
14	20	FALSE	NA	v	['P', 'W', 'Y', 'T', 'N', 'Z', 'A', 'B', 'C', 'X', 'S', 'G', 'K', 'M', 'J', 'R']	[1456, 2448, 2670, 1888, 1335, 2911, 697, 760, 829, 4000, 1731, 944, 1122, 1224, 1029, 1587]	10	Present	NA	NA	PRESENT	0.17126107215881348	116.20463395118712	118.20196890830994	119.0188820362091	119.36881399154665	122.31483697891235	4.112868070602417	[116.22029614448547, 116.32006907463074, 117.30450415611267, 117.47134113311768, 118.23894214630127, 118.33898305892944, 118.45569109916687, 118.57240509986877, 118.68925595283508, 118.80599904060364, 118.9228630065918, 119.0396580696106, 119.1563651561737, 119.2732789516449, 119.39001297950745, 119.50677609443665, 119.62380909919739, 119.74037098884583, 119.85731816291809, 119.97395014762878, 120.09097099304199, 120.31483602523804]	[116.21096762034017, 116.32763428700683, 117.31063428700683, 117.47733428700684, 118.22733428700684, 118.3440009536735, 118.46066762034016, 118.57733428700682, 118.69400095367348, 118.81066762034014, 118.9273342870068, 119.04400095367346, 119.16066762034012, 119.27733428700678, 119.39400095367344, 119.5106676203401, 119.62733428700676, 119.74400095367342, 119.86066762034008, 119.97733428700674, 120.0940009536734, 120.32733428700674]	2021_Jan_29_0944	59.94706060588736	1	1
14	21	FALSE	NA	v	['V', 'K', 'G', 'B', 'R', 'Y', 'C', 'H', 'W', 'Z', 'E', 'N', 'S', 'X', 'J', 'P']	[2245, 1122, 944, 760, 1587, 2670, 829, 986, 2448, 2911, 904, 1335, 1731, 4000, 1029, 1456]	14	Present	NA	NA	PRESENT	0.27146291732788086	122.31133794784546	124.31832385063171	125.60181903839111	125.95191884040833	128.43120312690735	4.112879276275635	[122.3270001411438, 122.4434130191803, 123.42781805992126, 123.59457015991211, 124.34536099433899, 124.46203899383545, 124.57895708084106, 124.69579815864563, 124.81259512901306, 124.92920398712158, 125.0462110042572, 125.16282796859741, 125.27982997894287, 125.3966281414032, 125.51337194442749, 125.63013505935669, 125.74679493904114, 125.86363506317139, 125.98025608062744, 126.09720706939697, 126.21404814720154, 126.43120193481445]	[122.32733428700674, 122.4440009536734, 123.4270009536734, 123.5937009536734, 124.3437009536734, 124.46036762034007, 124.57703428700673, 124.69370095367339, 124.81036762034005, 124.9270342870067, 125.04370095367337, 125.16036762034003, 125.27703428700669, 125.39370095367335, 125.51036762034, 125.62703428700667, 125.74370095367333, 125.86036762033999, 125.97703428700665, 126.0937009536733, 126.21036762033997, 126.4437009536733]	2021_Jan_29_0944	59.94706060588736	1	1
14	22	FALSE	NA	v	['W', 'V', 'P', 'E', 'H', 'B', 'Y', 'R', 'X', 'G', 'J', 'S', 'Z', 'C', 'N', 'T']	[2448, 2245, 1456, 904, 986, 760, 2670, 1587, 4000, 944, 1029, 1731, 2911, 829, 1335, 1888]	9	Present	NA	NA	PRESENT	0.4529581069946289	128.43413496017456	130.43480491638184	131.13488507270813	131.48494601249695	134.54756999015808	4.112765073776245	[128.4497971534729, 128.56650400161743, 129.55079793930054, 129.71781206130981, 130.46842312812805, 130.58525705337524, 130.7020001411438, 130.81886100769043, 130.9355571269989, 131.0525951385498, 131.1691930294037, 131.28614711761475, 131.40267705917358, 131.51943612098694, 131.6362750530243, 131.753112077713, 131.87004613876343, 131.9870581626892, 132.10361695289612, 132.22052001953125, 132.32047700881958, 132.5475709438324]	[128.4437009536733, 128.56036762033997, 129.54336762033998, 129.71006762033997, 130.46006762033997, 130.57673428700664, 130.69340095367332, 130.81006762034, 130.92673428700667, 131.04340095367334, 131.16006762034002, 131.2767342870067, 131.39340095367336, 131.51006762034004, 131.6267342870067, 131.7434009536734, 131.86006762034006, 131.97673428700674, 132.0934009536734, 132.21006762034008, 132.32673428700676, 132.56006762034008]	2021_Jan_29_0944	59.94706060588736	1	1
14	23	FALSE	AA	v	['W', 'E', 'B', 'Y', 'M', 'C', 'H', 'surprise', 'V', 'G', 'X', 'U', 'P', 'N', 'A', 'Z']	[2448, 904, 760, 2670, 1224, 829, 986, 'stimAuditory/all_stimAuditory/205.wav', 2245, 944, 4000, 2059, 1456, 1335, 697, 2911]	11	Present	stimAuditory/all_stimAuditory/120.wav	stimVisual/all_stimVisual/203.jpg	ABSENT	0.1776289939880371	134.54038095474243	136.55087804794312	137.48481106758118	137.83454704284668	140.6639370918274	4.113059043884277	[134.55604314804077, 134.67290806770325, 135.65717101097107, 135.82405495643616, 136.57476902008057, 136.69182014465332, 136.80859804153442, 136.92524409294128, 137.04208898544312, 137.15883111953735, 137.2758150100708, 137.40923500061035, 137.50939106941223, 137.62612009048462, 137.74269199371338, 137.85956001281738, 137.97638416290283, 138.09328603744507, 138.2098569869995, 138.32668614387512, 138.44352006912231, 138.66393613815308]	[134.56006762034008, 134.67673428700675, 135.65973428700676, 135.82643428700675, 136.57643428700675, 136.69310095367342, 136.8097676203401, 136.92643428700677, 137.04310095367345, 137.15976762034012, 137.2764342870068, 137.39310095367347, 137.50976762034014, 137.62643428700682, 137.7431009536735, 137.85976762034016, 137.97643428700684, 138.0931009536735, 138.2097676203402, 138.32643428700686, 138.44310095367354, 138.67643428700686]	2021_Jan_29_0944	59.94706060588736	1	1
14	24	FALSE	NA	v	['E', 'K', 'Y', 'V', 'N', 'Z', 'U', 'A', 'X', 'T', 'M', 'W', 'S', 'R', 'B', 'C']	[904, 1122, 2670, 2245, 1335, 2911, 2059, 697, 4000, 1888, 1224, 2448, 1731, 1587, 760, 829]	9	Present	NA	NA	PRESENT	0.4303388595581054	140.66369891166687	142.6673228740692	143.36785006523132	143.71775007247925	146.7803020477295	4.112979173660278	[140.6793601512909, 140.79614996910095, 141.78041315078735, 141.9477081298828, 142.69803309440613, 142.81488609313965, 142.93153595924377, 143.04852104187012, 143.16501712799072, 143.28200602531433, 143.39869904518127, 143.51562213897705, 143.63226509094238, 143.74933099746704, 143.8660581111908, 143.98278212547302, 144.099454164505, 144.21626806259155, 144.332937002182, 144.45021104812622, 144.566663980484, 144.7803030014038]	[140.67643428700686, 140.79310095367353, 141.77610095367353, 141.94280095367353, 142.69280095367353, 142.8094676203402, 142.92613428700687, 143.04280095367355, 143.15946762034022, 143.2761342870069, 143.39280095367357, 143.50946762034025, 143.62613428700692, 143.7428009536736, 143.85946762034027, 143.97613428700694, 144.09280095367362, 144.2094676203403, 144.32613428700697, 144.44280095367364, 144.5594676203403, 144.79280095367363]	2021_Jan_29_0944	59.94706060588736	1	1
14	25	FALSE	NV	v	['U', 'T', 'A', 'H', 'N', 'V', 'S', 'J', 'X', 'W', 'C', 'G', 'B', 'Y', 'M', 'K']	[2059, 1888, 697, 986, 1335, 2245, 1731, 1029, 4000, 2448, 829, 944, 760, 2670, 1224, 1122]	9	Present	NA	NA	PRESENT	0.4914062023162842	146.76990389823914	148.78361201286316	149.4840829372406	149.83386087417605	152.8966691493988	4.1130571365356445	[146.78556513786316, 146.9023699760437, 147.8867859840393, 148.0536551475525, 148.82117295265198, 148.9211950302124, 149.03793907165527, 149.1547989845276, 149.2714819908142, 149.38826894760132, 149.50505805015564, 149.62191605567932, 149.73865509033203, 149.85549998283386, 149.97228908538818, 150.08917903900146, 150.20582103729248, 150.32270503044128, 150.43956398963928, 150.55627298355103, 150.67319107055664, 150.8966691493988]	[146.79280095367363, 146.9094676203403, 147.8924676203403, 148.0591676203403, 148.8091676203403, 148.92583428700698, 149.04250095367365, 149.15916762034033, 149.275834287007, 149.39250095367368, 149.50916762034035, 149.62583428700702, 149.7425009536737, 149.85916762034037, 149.97583428700705, 150.09250095367372, 150.2091676203404, 150.32583428700707, 150.44250095367374, 150.55916762034042, 150.6758342870071, 150.9091676203404]	2021_Jan_29_0944	59.94706060588736	1	1
14	26	FALSE	NA	v	['Z', 'T', 'H', 'S', 'E', 'P', 'V', 'N', 'U', 'X', 'Y', 'J', 'K', 'R', 'G', 'M']	[2911, 1888, 986, 1731, 904, 1456, 2245, 1335, 2059, 4000, 2670, 1029, 1122, 1587, 944, 1224]	10	Present	NA	NA	PRESENT	0.3202700614929199	152.8934679031372	154.90006184577942	155.71687388420105	156.06820392608645	159.01303601264954	4.112974166870117	[152.90912914276123, 153.02572894096375, 154.0098979473114, 154.17693996429443, 154.92755007743835, 155.0443000793457, 155.16131401062012, 155.27808594703674, 155.39487409591675, 155.51160502433777, 155.62845396995544, 155.74510097503662, 155.8619339466095, 155.9785931110382, 156.09533715248108, 156.2122609615326, 156.3289611339569, 156.44576215744019, 156.56253695487976, 156.67958402633667, 156.79612803459167, 157.0130500793457]	[152.9091676203404, 153.0258342870071, 154.0088342870071, 154.17553428700708, 154.92553428700708, 155.04220095367376, 155.15886762034043, 155.2755342870071, 155.39220095367378, 155.50886762034045, 155.62553428700713, 155.7422009536738, 155.85886762034048, 155.97553428700715, 156.09220095367382, 156.2088676203405, 156.32553428700717, 156.44220095367385, 156.55886762034052, 156.6755342870072, 156.79220095367387, 157.0255342870072]	2021_Jan_29_0944	59.94706060588736	1	1
14	27	FALSE	AV	v	['N', 'W', 'H', 'Z', 'Y', 'G', 'C', 'V', 'surprise', 'P', 'J', 'X', 'A', 'K', 'R', 'B']	[1335, 2448, 986, 2911, 2670, 944, 829, 2245, 'stimAuditory/all_stimAuditory/222.wav', 1456, 1029, 4000, 697, 1122, 1587, 760]	12	Present	stimAuditory/all_stimAuditory/219.wav	stimVisual/all_stimVisual/0.jpg	ABSENT	0.1653909683227539	159.01614594459534	161.0163779258728	162.06674003601074	162.41662096977234	165.12940311431885	4.113025188446045	[159.0318100452423, 159.14882397651672, 160.1330771446228, 160.29979300498962, 161.0506730079651, 161.16760802268982, 161.2843520641327, 161.4010090827942, 161.5179100036621, 161.6345670223236, 161.7512969970703, 161.86826300621033, 161.9849009513855, 162.10194611549377, 162.2184820175171, 162.33542895317078, 162.4521999359131, 162.56904006004333, 162.68580412864685, 162.80274605751038, 162.90290093421936, 163.12940311431885]	[159.0255342870072, 159.14220095367386, 160.12520095367387, 160.29190095367386, 161.04190095367386, 161.15856762034053, 161.2752342870072, 161.39190095367388, 161.50856762034056, 161.62523428700723, 161.7419009536739, 161.85856762034058, 161.97523428700725, 162.09190095367393, 162.2085676203406, 162.32523428700728, 162.44190095367395, 162.55856762034063, 162.6752342870073, 162.79190095367397, 162.90856762034065, 163.14190095367397]	2021_Jan_29_0944	59.94706060588736	1	1
14	28	FALSE	NN	v	['E', 'P', 'V', 'R', 'M', 'C', 'T', 'H', 'K', 'G', 'W', 'N', 'U', 'Z', 'B', 'J']	[904, 1456, 2245, 1587, 1224, 829, 1888, 986, 1122, 944, 2448, 1335, 2059, 2911, 760, 1029]	12	Absent	NA	NA	ABSENT	0.4498770236968994	165.1227729320526	167.1328890323639	168.18299889564514	168.53317189216614	171.24576997756958	4.1128809452056885	[165.1384460926056, 165.25510215759277, 166.23941802978516, 166.40637493133545, 167.15708303451538, 167.2738790512085, 167.39084911346436, 167.5074450969696, 167.62438297271729, 167.7410171031952, 167.85777306556702, 167.97480607032776, 168.0914649963379, 168.20838809013367, 168.3249011039734, 168.44186401367188, 168.55872702598572, 168.67546200752258, 168.79211497306824, 168.90914607048035, 169.02573704719543, 169.24576997756958]	[165.14190095367397, 165.25856762034064, 166.24156762034065, 166.40826762034064, 167.15826762034064, 167.2749342870073, 167.391600953674, 167.50826762034066, 167.62493428700733, 167.741600953674, 167.85826762034068, 167.97493428700736, 168.09160095367403, 168.2082676203407, 168.32493428700738, 168.44160095367405, 168.55826762034073, 168.6749342870074, 168.79160095367408, 168.90826762034075, 169.02493428700743, 169.25826762034075]	2021_Jan_29_0944	59.94706060588736	1	1
14	29	FALSE	NA	v	['J', 'Y', 'W', 'A', 'M', 'C', 'S', 'H', 'P', 'T', 'X', 'B', 'V', 'E', 'U', 'R']	[1029, 2670, 2448, 697, 1224, 829, 1731, 986, 1456, 1888, 4000, 760, 2245, 904, 2059, 1587]	11	Present	NA	NA	PRESENT	0.2863428592681885	171.24590587615967	173.24895405769348	174.18321204185486	174.5328848361969	177.36213612556458	4.113182067871094	[171.2615671157837, 171.37829303741455, 172.3624770641327, 172.52969694137573, 173.28055095672607, 173.39711213111877, 173.51396298408508, 173.63073897361755, 173.74752402305603, 173.86439895629883, 173.98105716705322, 174.09793710708618, 174.21450304985046, 174.331316947937, 174.44832801818848, 174.56510305404663, 174.68184995651245, 174.7986810207367, 174.91526293754578, 175.03218603134155, 175.14880800247192, 175.36213612556458]	[171.25826762034075, 171.37493428700742, 172.35793428700742, 172.52463428700742, 173.27463428700742, 173.3913009536741, 173.50796762034076, 173.62463428700744, 173.7413009536741, 173.8579676203408, 173.97463428700746, 174.09130095367414, 174.2079676203408, 174.32463428700748, 174.44130095367416, 174.55796762034083, 174.6746342870075, 174.79130095367418, 174.90796762034086, 175.02463428700753, 175.1413009536742, 175.37463428700752]	2021_Jan_29_0944	59.94706060588736	1	1
14	30	FALSE	NA	v	['H', 'A', 'J', 'G', 'K', 'C', 'M', 'N', 'Z', 'X', 'U', 'B', 'V', 'S', 'R', 'E']	[986, 697, 1029, 944, 1122, 829, 1224, 1335, 2911, 4000, 2059, 760, 2245, 1731, 1587, 904]	10	Present	NA	NA	PRESENT	0.2918519973754883	177.35202598571777	179.36548686027527	180.18266606330872	180.533047914505	183.4785029888153	4.113016128540039	[177.36768698692322, 177.48460698127747, 178.4688880443573, 178.63590502738953, 179.4034399986267, 179.50335597991943, 179.62041211128235, 179.73691296577454, 179.85396313667297, 179.97057700157166, 180.08760809898376, 180.20414400100708, 180.32087302207947, 180.43781995773315, 180.55443501472473, 180.67127895355225, 180.7883460521698, 180.9050829410553, 181.02188515663147, 181.1384220123291, 181.25517797470093, 181.47850394248962]	[177.37463428700752, 177.4913009536742, 178.4743009536742, 178.6410009536742, 179.3910009536742, 179.50766762034087, 179.62433428700754, 179.74100095367422, 179.8576676203409, 179.97433428700757, 180.09100095367424, 180.2076676203409, 180.3243342870076, 180.44100095367426, 180.55766762034094, 180.6743342870076, 180.79100095367428, 180.90766762034096, 181.02433428700763, 181.1410009536743, 181.25766762034098, 181.4910009536743]	2021_Jan_29_0944	59.94706060588736	1	1
14	31	FALSE	NV	v	['C', 'B', 'H', 'U', 'M', 'A', 'J', 'K', 'V', 'T', 'R', 'Y', 'W', 'X', 'Z', 'S']	[829, 760, 986, 2059, 1224, 697, 1029, 1122, 2245, 1888, 1587, 2670, 2448, 4000, 2911, 1731]	14	Present	NA	NA	PRESENT	0.2562680244445801	183.47581696510315	185.48191690444943	186.76569890975952	187.1155219078064	189.59487009048465	4.112953186035156	[183.4914779663086, 183.60793709754944, 184.59213209152222, 184.75911211967468, 185.5097939968109, 185.62659096717834, 185.74350500106812, 185.86014699935913, 185.97679114341736, 186.09389901161194, 186.21046113967896, 186.32740592956543, 186.4440290927887, 186.56097602844238, 186.6777310371399, 186.79454493522644, 186.91119408607483, 187.028146982193, 187.14474606513977, 187.2617530822754, 187.37841701507568, 187.59487104415894]	[183.4910009536743, 183.60766762034098, 184.59066762034098, 184.75736762034097, 185.50736762034097, 185.62403428700765, 185.74070095367432, 185.857367620341, 185.97403428700767, 186.09070095367434, 186.20736762034102, 186.3240342870077, 186.44070095367437, 186.55736762034104, 186.67403428700771, 186.7907009536744, 186.90736762034106, 187.02403428700774, 187.1407009536744, 187.25736762034109, 187.37403428700776, 187.60736762034108]	2021_Jan_29_0944	59.94706060588736	1	1
14	32	FALSE	VV	v	['J', 'H', 'A', 'P', 'B', 'T', 'surprise', 'V', 'E', 'X', 'C', 'S', 'Z', 'M', 'G', 'Y']	[1029, 986, 697, 1456, 760, 1888, 'stimAuditory/all_stimAuditory/212.wav', 2245, 904, 4000, 829, 1731, 2911, 1224, 944, 2670]	10	Present	NA	stimVisual/all_stimVisual/212.jpg	ABSENT	0.11757802963256836	189.59841203689575	191.59817385673523	192.4152488708496	192.7652609348297	195.71123695373535	4.113063097000122	[189.6140739917755, 189.73095703125, 190.71535515785217, 190.88206505775452, 191.6328091621399, 191.74979400634766, 191.8666639328003, 191.9833710193634, 192.10010409355164, 192.2167510986328, 192.3335931301117, 192.45051097869873, 192.56734895706177, 192.68411993980408, 192.8009810447693, 192.91787004470825, 193.03454494476318, 193.15134406089783, 193.26801896095276, 193.3846890926361, 193.48492693901062, 193.71123600006104]	[189.60736762034108, 189.72403428700775, 190.70703428700776, 190.87373428700775, 191.62373428700775, 191.74040095367442, 191.8570676203411, 191.97373428700777, 192.09040095367445, 192.20706762034112, 192.3237342870078, 192.44040095367447, 192.55706762034114, 192.67373428700782, 192.7904009536745, 192.90706762034117, 193.02373428700784, 193.14040095367451, 193.2570676203412, 193.37373428700786, 193.49040095367454, 193.72373428700786]	2021_Jan_29_0944	59.94706060588736	1	1
14	33	FALSE	NV	v	['M', 'N', 'H', 'C', 'W', 'E', 'S', 'B', 'Z', 'X', 'T', 'P', 'U', 'G', 'K', 'R']	[1224, 1335, 986, 829, 2448, 904, 1731, 760, 2911, 4000, 1888, 1456, 2059, 944, 1122, 1587]	10	Present	NA	NA	PRESENT	0.09816884994506836	195.7049069404602	197.71473002433777	198.53163385391235	198.88147807121277	201.82760214805603	4.112872123718262	[195.72056913375854, 195.83724403381348, 196.82168006896973, 196.98865795135498, 197.73922395706177, 197.85606002807617, 197.97297501564026, 198.08973813056946, 198.20650696754456, 198.3233630657196, 198.44017696380615, 198.55694007873535, 198.67358708381653, 198.7904450893402, 198.90737295150757, 199.0240399837494, 199.14078497886658, 199.25774502754211, 199.37445616722107, 199.49134397506714, 199.60794401168823, 199.82760214805603]	[195.72373428700786, 195.84040095367453, 196.82340095367454, 196.99010095367453, 197.74010095367453, 197.8567676203412, 197.97343428700788, 198.09010095367455, 198.20676762034122, 198.3234342870079, 198.44010095367457, 198.55676762034125, 198.67343428700792, 198.7901009536746, 198.90676762034127, 199.02343428700794, 199.14010095367462, 199.2567676203413, 199.37343428700797, 199.49010095367464, 199.60676762034132, 199.84010095367464]	2021_Jan_29_0944	59.94706060588736	1	1
14	34	FALSE	NN	v	['N', 'V', 'E', 'G', 'W', 'B', 'K', 'T', 'A', 'C', 'Z', 'R', 'P', 'J', 'M', 'S']	[1335, 2245, 904, 944, 2448, 760, 1122, 1888, 697, 829, 2911, 1587, 1456, 1029, 1224, 1731]	9	Absent	NA	NA	ABSENT	0.6547160148620605	201.82818603515625	203.8310079574585	204.53133893013	204.8811900615692	207.94396996498108	4.112962007522583	[201.84386110305786, 201.9604949951172, 202.94520497322083, 203.11180710792542, 203.86232805252075, 203.97924709320068, 204.09597611427307, 204.2129521369934, 204.32955193519592, 204.44635605812073, 204.56320595741272, 204.68008399009705, 204.7967610359192, 204.91359210014343, 205.03031611442566, 205.14702916145325, 205.263827085495, 205.38073897361755, 205.49766206741333, 205.61445212364197, 205.73130297660828, 205.94396996498108]	[201.84010095367464, 201.9567676203413, 202.9397676203413, 203.1064676203413, 203.8564676203413, 203.97313428700798, 204.08980095367465, 204.20646762034133, 204.323134287008, 204.43980095367468, 204.55646762034135, 204.67313428700803, 204.7898009536747, 204.90646762034137, 205.02313428700805, 205.13980095367472, 205.2564676203414, 205.37313428700807, 205.48980095367475, 205.60646762034142, 205.7231342870081, 205.9564676203414]	2021_Jan_29_0944	59.94706060588736	1	1
14	35	FALSE	VV	v	['N', 'S', 'T', 'G', 'J', 'V', 'surprise', 'Y', 'U', 'X', 'W', 'A', 'K', 'H', 'B', 'M']	[1335, 1731, 1888, 944, 1029, 2245, 'stimAuditory/all_stimAuditory/207.wav', 2670, 2059, 4000, 2448, 697, 1122, 986, 760, 1224]	10	Present	NA	stimVisual/all_stimVisual/114.jpg	ABSENT	0.29997801780700684	207.93436098098755	209.94740390777588	210.7643599510193	211.11433601379397	214.0603370666504	4.112933158874512	[207.950021982193, 208.066801071167, 209.05115699768066, 209.2181360721588, 209.98566102981567, 210.08556294441223, 210.20261096954346, 210.3191111087799, 210.43609809875488, 210.5528690814972, 210.68635416030884, 210.7863609790802, 210.9030520915985, 211.01994514465332, 211.1368851661682, 211.25358700752258, 211.3704960346222, 211.48722410202026, 211.60405111312866, 211.72083401679993, 211.83739113807678, 212.0603370666504]	[207.9564676203414, 208.0731342870081, 209.0561342870081, 209.22283428700808, 209.97283428700808, 210.08950095367476, 210.20616762034143, 210.3228342870081, 210.43950095367478, 210.55616762034145, 210.67283428700813, 210.7895009536748, 210.90616762034148, 211.02283428700815, 211.13950095367483, 211.2561676203415, 211.37283428700817, 211.48950095367485, 211.60616762034152, 211.7228342870082, 211.83950095367487, 212.0728342870082]	2021_Jan_29_0944	59.94706060588736	1	1
14	36	FALSE	NA	v	['R', 'S', 'E', 'N', 'V', 'K', 'W', 'X', 'J', 'H', 'G', 'A', 'M', 'Y', 'P', 'U']	[1587, 1731, 904, 1335, 2245, 1122, 2448, 4000, 1029, 986, 944, 697, 1224, 2670, 1456, 2059]	8	Present	NA	NA	PRESENT	0.3605680465698242	214.05804991722107	216.06360793113708	216.647451877594	216.99759101867676	220.1767029762268	4.113095045089722	[214.0737111568451, 214.18990015983582, 215.17435002326965, 215.34110808372498, 216.09194993972778, 216.20892596244812, 216.3255431652069, 216.44254612922668, 216.55918908119202, 216.6759970188141, 216.79272603988647, 216.90955901145935, 217.0263819694519, 217.1432089805603, 217.2599561214447, 217.37655901908875, 217.49346709251404, 217.610445022583, 217.72716808319092, 217.84400701522827, 217.96059107780457, 218.1767020225525]	[214.0728342870082, 214.18950095367487, 215.17250095367487, 215.33920095367486, 216.08920095367486, 216.20586762034154, 216.3225342870082, 216.43920095367488, 216.55586762034156, 216.67253428700823, 216.7892009536749, 216.90586762034158, 217.02253428700826, 217.13920095367493, 217.2558676203416, 217.37253428700828, 217.48920095367495, 217.60586762034163, 217.7225342870083, 217.83920095367498, 217.95586762034165, 218.18920095367497]	2021_Jan_29_0944	59.94706060588736	1	1
14	37	FALSE	NN	v	['R', 'M', 'G', 'J', 'P', 'E', 'Y', 'T', 'K', 'Z', 'S', 'C', 'U', 'V', 'A', 'N']	[1587, 1224, 944, 1029, 1456, 904, 2670, 1888, 1122, 2911, 1731, 829, 2059, 2245, 697, 1335]	12	Absent	NA	NA	ABSENT	0.26187801361083984	220.1807758808136	222.18006587028503	223.230584859848	223.58038806915283	226.29307007789612	4.113004207611084	[220.19643712043762, 220.31316900253296, 221.29751110076904, 221.4643371105194, 222.21498799324036, 222.3320300579071, 222.4486620426178, 222.56550407409668, 222.68233513832092, 222.79920101165771, 222.91587209701538, 223.03272199630737, 223.14935612678528, 223.26633596420288, 223.3830270767212, 223.49972796440125, 223.61659502983093, 223.73344111442566, 223.85009098052979, 223.96730613708496, 224.06698393821716, 224.29307007789612]	[220.18920095367497, 220.30586762034164, 221.28886762034165, 221.45556762034164, 222.20556762034164, 222.3222342870083, 222.438900953675, 222.55556762034166, 222.67223428700834, 222.788900953675, 222.90556762034169, 223.02223428700836, 223.13890095367503, 223.2555676203417, 223.37223428700838, 223.48890095367506, 223.60556762034173, 223.7222342870084, 223.83890095367508, 223.95556762034175, 224.07223428700843, 224.30556762034175]	2021_Jan_29_0944	59.94706060588736	1	1
14	38	FALSE	NA	v	['H', 'Z', 'R', 'A', 'N', 'W', 'J', 'S', 'M', 'K', 'E', 'Y', 'X', 'T', 'V', 'P']	[986, 2911, 1587, 697, 1335, 2448, 1029, 1731, 1224, 1122, 904, 2670, 4000, 1888, 2245, 1456]	13	Present	NA	NA	PRESENT	0.130295991897583	226.2872009277344	228.2963190078735	229.4641919136047	229.8134648799896	232.40943694114685	4.113117933273315	[226.30286312103271, 226.4195990562439, 227.40389204025269, 227.57062005996704, 228.32155299186707, 228.4382619857788, 228.5549759864807, 228.67188000679016, 228.78868007659912, 228.90552711486816, 229.0222339630127, 229.13916206359863, 229.2558250427246, 229.37277913093567, 229.48929595947266, 229.60625505447388, 229.7228560447693, 229.83987402915955, 229.95653700828552, 230.07346510887146, 230.1901741027832, 230.40943598747253]	[226.30556762034175, 226.42223428700842, 227.40523428700843, 227.57193428700842, 228.32193428700842, 228.4386009536751, 228.55526762034177, 228.67193428700844, 228.78860095367511, 228.9052676203418, 229.02193428700846, 229.13860095367514, 229.2552676203418, 229.3719342870085, 229.48860095367516, 229.60526762034183, 229.7219342870085, 229.83860095367518, 229.95526762034186, 230.07193428700853, 230.1886009536752, 230.42193428700853]	2021_Jan_29_0944	59.94706060588736	1	1
14	39	FALSE	NV	v	['Y', 'S', 'K', 'Z', 'V', 'W', 'M', 'J', 'X', 'P', 'H', 'C', 'B', 'R', 'A', 'E']	[2670, 1731, 1122, 2911, 2245, 2448, 1224, 1029, 4000, 1456, 986, 829, 760, 1587, 697, 904]	9	Present	NA	NA	PRESENT	0.2707538604736328	232.41014194488525	234.41294598579407	235.11306595802307	235.4632139205933	238.52580404281616	4.112858057022095	[232.4258029460907, 232.54276609420776, 233.5271611213684, 233.69391012191772, 234.44490003585815, 234.5616171360016, 234.6784131526947, 234.79510307312012, 234.91190600395203, 235.02874994277954, 235.1454451084137, 235.26207900047302, 235.37900304794312, 235.49570393562317, 235.61268305778503, 235.72922205924988, 235.84601306915283, 235.96273612976074, 236.07980394363403, 236.1964111328125, 236.31334614753723, 236.52580404281616]	[232.42193428700853, 232.5386009536752, 233.5216009536752, 233.6883009536752, 234.4383009536752, 234.55496762034187, 234.67163428700854, 234.78830095367522, 234.9049676203419, 235.02163428700857, 235.13830095367524, 235.25496762034192, 235.3716342870086, 235.48830095367526, 235.60496762034194, 235.7216342870086, 235.8383009536753, 235.95496762034196, 236.07163428700864, 236.1883009536753, 236.30496762034198, 236.5383009536753]	2021_Jan_29_0944	59.94706060588736	1	1
14	40	FALSE	NV	v	['U', 'H', 'C', 'T', 'S', 'J', 'B', 'M', 'N', 'R', 'E', 'G', 'V', 'X', 'P', 'W']	[2059, 986, 829, 1888, 1731, 1029, 760, 1224, 1335, 1587, 904, 944, 2245, 4000, 1456, 2448]	14	Present	NA	NA	PRESENT	0.18039298057556152	238.51653790473935	240.52912187576297	241.8127999305725	242.16304802894592	244.64216995239255	4.113048076629639	[238.53221106529236, 238.64900994300842, 239.63333296775818, 239.80040311813354, 240.56790208816528, 240.6678810119629, 240.78475499153137, 240.90148615837097, 241.01812195777893, 241.13498306274414, 241.25183510780334, 241.3685269355774, 241.48543405532837, 241.6020381450653, 241.71883010864258, 241.83574199676514, 241.9524440765381, 242.0693850517273, 242.1859610080719, 242.30305695533752, 242.41970014572144, 242.64216995239258]	[238.5383009536753, 238.65496762034198, 239.63796762034198, 239.80466762034197, 240.55466762034197, 240.67133428700865, 240.78800095367532, 240.904667620342, 241.02133428700867, 241.13800095367534, 241.25466762034202, 241.3713342870087, 241.48800095367537, 241.60466762034204, 241.72133428700872, 241.8380009536754, 241.95466762034206, 242.07133428700874, 242.1880009536754, 242.3046676203421, 242.42133428700876, 242.65466762034208]	2021_Jan_29_0944	59.94706060588736	1	1
14	41	FALSE	NV	v	['J', 'S', 'C', 'P', 'H', 'W', 'R', 'G', 'U', 'X', 'Y', 'M', 'Z', 'A', 'T', 'V']	[1029, 1731, 829, 1456, 986, 2448, 1587, 944, 2059, 4000, 2670, 1224, 2911, 697, 1888, 2245]	10	Present	NA	NA	PRESENT	0.3047358989715576	244.64002799987793	246.64557099342343	247.46294689178467	247.81253385543823	250.7585370540619	4.112966060638428	[244.65568900108337, 244.77224397659302, 245.75660610198975, 245.92321300506592, 246.6739571094513, 246.7911570072174, 246.90763306617737, 247.02463603019714, 247.14136815071106, 247.2579550743103, 247.37490010261536, 247.49180912971497, 247.6085970401764, 247.72544193267822, 247.84191393852234, 247.95885610580444, 248.07566499710083, 248.1924500465393, 248.3093249797821, 248.42611694335938, 248.54292702674866, 248.75853610038757]	[244.65466762034208, 244.77133428700876, 245.75433428700876, 245.92103428700875, 246.67103428700875, 246.78770095367543, 246.9043676203421, 247.02103428700877, 247.13770095367545, 247.25436762034212, 247.3710342870088, 247.48770095367547, 247.60436762034215, 247.72103428700882, 247.8377009536755, 247.95436762034217, 248.07103428700884, 248.18770095367552, 248.3043676203422, 248.42103428700887, 248.53770095367554, 248.77103428700886]	2021_Jan_29_0944	59.94706060588736	1	1
14	42	FALSE	NV	v	['S', 'C', 'P', 'Z', 'E', 'Y', 'W', 'J', 'T', 'A', 'V', 'U', 'X', 'N', 'H', 'M']	[1731, 829, 1456, 2911, 904, 2670, 2448, 1029, 1888, 697, 2245, 2059, 4000, 1335, 986, 1224]	13	Present	NA	NA	PRESENT	0.30211710929870605	250.76271891593933	252.76196885108948	253.92911005020144	254.27885103225708	256.8749029636383	4.112934112548828	[250.77838015556335, 250.89539194107056, 251.86270213127136, 252.02968215942383, 252.79721307754517, 252.91415810585022, 253.03082013130188, 253.14746809005737, 253.26447701454163, 253.38115000724792, 253.49797296524048, 253.61501097679138, 253.73169207572937, 253.848286151886, 253.96556997299194, 254.0819079875946, 254.19884300231934, 254.31556105613708, 254.41553211212158, 254.53229212760925, 254.64913606643677, 254.874902009964]	[250.77103428700886, 250.88770095367553, 251.87070095367554, 252.03740095367553, 252.78740095367553, 252.9040676203422, 253.02073428700888, 253.13740095367555, 253.25406762034223, 253.3707342870089, 253.48740095367558, 253.60406762034225, 253.72073428700892, 253.8374009536756, 253.95406762034227, 254.07073428700895, 254.18740095367562, 254.3040676203423, 254.42073428700897, 254.53740095367564, 254.65406762034232, 254.88740095367564]	2021_Jan_29_0944	59.94706060588736	1	1
14	43	FALSE	NV	v	['H', 'W', 'G', 'S', 'M', 'Z', 'C', 'N', 'X', 'Y', 'A', 'K', 'R', 'P', 'E', 'T']	[986, 2448, 944, 1731, 1224, 2911, 829, 1335, 4000, 2670, 697, 1122, 1587, 1456, 904, 1888]	9	Present	NA	NA	PRESENT	0.3225209712982178	256.8691358566284	258.87843084335327	259.57859897613525	259.92915391921997	262.9912691116333	4.112838268280029	[256.88479709625244, 257.0016429424286, 257.9861550331116, 258.15284609794617, 258.90358901023865, 259.02066016197205, 259.13714694976807, 259.2541711330414, 259.37079405784607, 259.4876730442047, 259.60439109802246, 259.72132205963135, 259.8379120826721, 259.9549729824066, 260.07142901420593, 260.1884391307831, 260.30522108078003, 260.4220390319824, 260.53874111175537, 260.65561294555664, 260.77228307724, 260.9912691116333]	[256.88740095367564, 257.0040676203423, 257.9870676203423, 258.1537676203423, 258.9037676203423, 259.020434287009, 259.13710095367566, 259.25376762034233, 259.370434287009, 259.4871009536757, 259.60376762034235, 259.720434287009, 259.8371009536757, 259.9537676203424, 260.07043428700905, 260.1871009536757, 260.3037676203424, 260.4204342870091, 260.53710095367575, 260.6537676203424, 260.7704342870091, 261.00376762034244]	2021_Jan_29_0944	59.94706060588736	1	1
14	44	FALSE	AA	v	['U', 'J', 'R', 'W', 'S', 'C', 'V', 'M', 'P', 'Z', 'surprise', 'T', 'B', 'X', 'Y', 'N']	[2059, 1029, 1587, 2448, 1731, 829, 2245, 1224, 1456, 2911, 'stimAuditory/all_stimAuditory/211.wav', 1888, 760, 4000, 2670, 1335]	14	Present	stimAuditory/all_stimAuditory/205.wav	stimVisual/all_stimVisual/124.jpg	ABSENT	0.16716408729553223	262.9923188686371	264.99467492103577	266.2784860134125	266.62863206863403	269.10763716697693	4.112962245941162	[263.0079801082611, 263.1249210834503, 264.10938906669617, 264.2758629322052, 265.0267291069031, 265.1434350013733, 265.26052808761597, 265.37727308273315, 265.49411511421204, 265.61061096191406, 265.7275609970093, 265.8441491127014, 265.9612190723419, 266.07806301116943, 266.1946470737457, 266.3116419315338, 266.4283571243286, 266.54500913619995, 266.66181802749634, 266.778804063797, 266.89536714553833, 267.10763716697693]	[263.00376762034244, 263.1204342870091, 264.1034342870091, 264.2701342870091, 265.0201342870091, 265.1368009536758, 265.25346762034246, 265.37013428700914, 265.4868009536758, 265.6034676203425, 265.72013428700916, 265.83680095367583, 265.9534676203425, 266.0701342870092, 266.18680095367586, 266.30346762034253, 266.4201342870092, 266.5368009536759, 266.65346762034255, 266.7701342870092, 266.8868009536759, 267.12013428700925]	2021_Jan_29_0944	59.94706060588736	1	1
14	45	FALSE	NV	v	['C', 'K', 'U', 'R', 'Y', 'P', 'B', 'Z', 'H', 'V', 'N', 'X', 'J', 'G', 'T', 'M']	[829, 1122, 2059, 1587, 2670, 1456, 760, 2911, 986, 2245, 1335, 4000, 1029, 944, 1888, 1224]	12	Present	NA	NA	PRESENT	0.30051302909851074	269.09862899780273	271.11081886291504	272.1612639427185	272.5115270614624	275.22400403022766	4.113185167312622	[269.1142899990082, 269.2311010360718, 270.2155330181122, 270.38245606422424, 271.14984703063965, 271.25012707710266, 271.36673498153687, 271.4835240840912, 271.60043811798096, 271.7170431613922, 271.83389711380005, 271.9508521556854, 272.06740403175354, 272.1843750476837, 272.3009760379791, 272.4179401397705, 272.5347990989685, 272.6515679359436, 272.7682249546051, 272.8851490020752, 273.00183606147766, 273.22400403022766]	[269.12013428700925, 269.2368009536759, 270.21980095367593, 270.3865009536759, 271.1365009536759, 271.2531676203426, 271.36983428700927, 271.48650095367594, 271.6031676203426, 271.7198342870093, 271.83650095367597, 271.95316762034264, 272.0698342870093, 272.186500953676, 272.30316762034266, 272.41983428700934, 272.536500953676, 272.6531676203427, 272.76983428700936, 272.88650095367603, 273.0031676203427, 273.23650095367606]	2021_Jan_29_0944	59.94706060588736	1	1
14	46	FALSE	NV	v	['R', 'A', 'Z', 'P', 'M', 'G', 'Y', 'X', 'H', 'K', 'E', 'W', 'V', 'S', 'U', 'T']	[1587, 697, 2911, 1456, 1224, 944, 2670, 4000, 986, 1122, 904, 2448, 2245, 1731, 2059, 1888]	8	Present	NA	NA	PRESENT	0.3049440383911133	275.2222549915314	277.2274708747864	277.8110680580139	278.16095089912415	281.3403699398041	4.1128990650177	[275.2379159927368, 275.3544270992279, 276.3388240337372, 276.5054531097412, 277.25619411468506, 277.37312293052673, 277.48994302749634, 277.6067409515381, 277.72336411476135, 277.8401279449463, 277.9570240974426, 278.07378101348877, 278.19069504737854, 278.307373046875, 278.42433404922485, 278.54108595848083, 278.65776109695435, 278.77466106414795, 278.8914141654968, 279.0079960823059, 279.1250650882721, 279.3403699398041]	[275.23650095367606, 275.35316762034273, 276.33616762034274, 276.5028676203427, 277.2528676203427, 277.3695342870094, 277.4862009536761, 277.60286762034275, 277.7195342870094, 277.8362009536761, 277.9528676203428, 278.06953428700945, 278.1862009536761, 278.3028676203428, 278.41953428700947, 278.53620095367614, 278.6528676203428, 278.7695342870095, 278.88620095367617, 279.00286762034284, 279.1195342870095, 279.35286762034286]	2021_Jan_29_0944	59.94706060588736	1	1
14	47	FALSE	NA	v	['N', 'H', 'C', 'M', 'S', 'K', 'Y', 'Z', 'G', 'X', 'W', 'T', 'E', 'U', 'J', 'B']	[1335, 986, 829, 1224, 1731, 1122, 2670, 2911, 944, 4000, 2448, 1888, 904, 2059, 1029, 760]	10	Present	NA	NA	PRESENT	0.3984751701354981	281.3449468612671	283.3436679840088	284.16060304641724	284.5108530521393	287.4567370414734	4.1130690574646	[281.3606081008911, 281.4774739742279, 282.4451479911804, 282.611780166626, 283.3793890476227, 283.4962430000305, 283.61314606666565, 283.72971415519714, 283.8466169834137, 283.9634590148926, 284.0801570415497, 284.19698309898376, 284.31377506256104, 284.4137051105499, 284.54724502563477, 284.6639850139618, 284.7641179561615, 284.88110303878784, 284.9975850582123, 285.1143889427185, 285.2312641143799, 285.4567370414734]	[281.35286762034286, 281.46953428700954, 282.45253428700954, 282.61923428700953, 283.36923428700953, 283.4859009536762, 283.6025676203429, 283.71923428700956, 283.83590095367623, 283.9525676203429, 284.0692342870096, 284.18590095367625, 284.3025676203429, 284.4192342870096, 284.5359009536763, 284.65256762034295, 284.7692342870096, 284.8859009536763, 285.002567620343, 285.11923428700965, 285.2359009536763, 285.46923428700967]	2021_Jan_29_0944	59.94706060588736	1	1
14	48	FALSE	NV	v	['B', 'E', 'R', 'P', 'M', 'K', 'S', 'G', 'C', 'Z', 'V', 'W', 'X', 'J', 'H', 'A']	[760, 904, 1587, 1456, 1224, 1122, 1731, 944, 829, 2911, 2245, 2448, 4000, 1029, 986, 697]	13	Present	NA	NA	PRESENT	0.28284597396850586	287.45133686065674	289.4600360393524	290.6270818710327	290.9775159358978	293.5731029510498	4.113066911697388	[287.4670000076294, 287.58388900756836, 288.56831097602844, 288.7349090576172, 289.4856791496277, 289.60272192955017, 289.7195510864258, 289.8363161087036, 289.9531879425049, 290.0698230266571, 290.18644404411316, 290.30340814590454, 290.42020297050476, 290.5368010997772, 290.65376114845276, 290.77044010162354, 290.88739705085754, 291.00423407554626, 291.1207549571991, 291.2376141548157, 291.35454416275024, 291.5731029510498]	[287.46923428700967, 287.58590095367634, 288.56890095367635, 288.73560095367634, 289.48560095367634, 289.602267620343, 289.7189342870097, 289.83560095367636, 289.95226762034304, 290.0689342870097, 290.1856009536764, 290.30226762034306, 290.41893428700973, 290.5356009536764, 290.6522676203431, 290.76893428700976, 290.88560095367643, 291.0022676203431, 291.1189342870098, 291.23560095367645, 291.3522676203431, 291.5856009536765]	2021_Jan_29_0944	59.94706060588736	1	1
14	49	FALSE	AV	v	['T', 'C', 'G', 'E', 'S', 'M', 'W', 'Y', 'R', 'N', 'surprise', 'K', 'B', 'X', 'Z', 'P']	[1888, 829, 944, 904, 1731, 1224, 2448, 2670, 1587, 1335, 'stimAuditory/all_stimAuditory/115.wav', 1122, 760, 4000, 2911, 1456]	14	Present	stimAuditory/all_stimAuditory/222.wav	stimVisual/all_stimVisual/211.jpg	ABSENT	0.3283219337463379	293.574560880661	295.57651686668396	296.8601520061493	297.2099578380585	299.6894700527191	4.112953186035156	[293.5902349948883, 293.70677614212036, 294.69114899635315, 294.858127117157, 295.6092929840088, 295.72571897506714, 295.8424210548401, 295.9592549800873, 296.0760509967804, 296.1929759979248, 296.3096239566803, 296.42664909362793, 296.54332399368286, 296.66000294685364, 296.77683210372925, 296.89353108406067, 297.0105710029602, 297.1270480155945, 297.2438950538635, 297.36092710494995, 297.4607479572296, 297.6894690990448]	[293.5856009536765, 293.70226762034315, 294.68526762034315, 294.85196762034315, 295.60196762034315, 295.7186342870098, 295.8353009536765, 295.95196762034317, 296.06863428700984, 296.1853009536765, 296.3019676203432, 296.41863428700987, 296.53530095367654, 296.6519676203432, 296.7686342870099, 296.88530095367656, 297.00196762034324, 297.1186342870099, 297.2353009536766, 297.35196762034326, 297.46863428700993, 297.7019676203433]	2021_Jan_29_0944	59.94706060588736	1	1
14	50	FALSE	NV	v	['K', 'A', 'P', 'T', 'Y', 'W', 'R', 'X', 'Z', 'B', 'S', 'H', 'M', 'G', 'E', 'N']	[1122, 697, 1456, 1888, 2670, 2448, 1587, 4000, 2911, 760, 1731, 986, 1224, 944, 904, 1335]	8	Present	NA	NA	PRESENT	0.2847728729248047	299.6807658672333	301.692724943161	302.27633786201477	302.6266529560089	305.8058371543884	4.113112211227417	[299.6964271068573, 299.81332302093506, 300.7977521419525, 300.9644660949707, 301.7320840358734, 301.83222794532776, 301.9488220214844, 302.0658121109009, 302.1823561191559, 302.29933309555054, 302.4159541130066, 302.53297114372253, 302.6497631072998, 302.7664680480957, 302.88314509391785, 303.00011801719666, 303.11688804626465, 303.23376297950745, 303.35041999816895, 303.4672141075134, 303.58405113220215, 303.80583596229553]	[299.7019676203433, 299.81863428700996, 300.80163428700996, 300.96833428700995, 301.71833428700995, 301.8350009536766, 301.9516676203433, 302.06833428701, 302.18500095367665, 302.3016676203433, 302.41833428701, 302.5350009536767, 302.65166762034335, 302.76833428701, 302.8850009536767, 303.00166762034337, 303.11833428701004, 303.2350009536767, 303.3516676203434, 303.46833428701007, 303.58500095367674, 303.8183342870101]	2021_Jan_29_0944	59.94706060588736	1	1
14	51	FALSE	NN	v	['A', 'J', 'Z', 'E', 'W', 'Y', 'P', 'R', 'S', 'T', 'H', 'G', 'M', 'B', 'C', 'U']	[697, 1029, 2911, 904, 2448, 2670, 1456, 1587, 1731, 1888, 986, 944, 1224, 760, 829, 2059]	13	Absent	NA	NA	ABSENT	0.38513612747192383	305.8042230606079	307.8091330528259	308.976350069046	309.3263189792633	311.92220306396484	4.113070011138916	[305.81988406181335, 305.9366080760956, 306.92090606689453, 307.0876190662384, 307.8383860588074, 307.9551930427551, 308.0719599723816, 308.1889181137085, 308.3056800365448, 308.4222960472107, 308.53905296325684, 308.6557791233063, 308.7725839614868, 308.889377117157, 309.00632095336914, 309.12300395965576, 309.239972114563, 309.35678911209106, 309.4736211299896, 309.59040212631226, 309.70713901519775, 309.92220306396484]	[305.8183342870101, 305.93500095367676, 306.91800095367677, 307.08470095367676, 307.83470095367676, 307.95136762034343, 308.0680342870101, 308.1847009536768, 308.30136762034346, 308.41803428701013, 308.5347009536768, 308.6513676203435, 308.76803428701015, 308.8847009536768, 309.0013676203435, 309.1180342870102, 309.23470095367685, 309.3513676203435, 309.4680342870102, 309.5847009536769, 309.70136762034355, 309.9347009536769]	2021_Jan_29_0944	59.94706060588736	1	1
14	52	FALSE	NN	v	['S', 'V', 'M', 'N', 'A', 'C', 'T', 'J', 'R', 'E', 'P', 'H', 'B', 'Y', 'K', 'G']	[1731, 2245, 1224, 1335, 697, 829, 1888, 1029, 1587, 904, 1456, 986, 760, 2670, 1122, 944]	14	Absent	NA	NA	ABSENT	0.3665580749511719	311.9275360107422	313.9256570339203	315.20916986465454	315.55941891670227	318.03857016563416	4.112913131713867	[311.94319796562195, 312.05961894989014, 313.0271360874176, 313.193932056427, 313.9615430831909, 314.07826495170593, 314.19500207901, 314.31200194358826, 314.42879915237427, 314.54556107521057, 314.66237711906433, 314.77904295921326, 314.87924098968506, 315.01271510124207, 315.1125600337982, 315.2294080257416, 315.3461699485779, 315.4797029495239, 315.5798361301422, 315.6966300010681, 315.8134491443634, 316.03857016563416]	[311.9347009536769, 312.05136762034357, 313.0343676203436, 313.20106762034357, 313.95106762034357, 314.06773428701024, 314.1844009536769, 314.3010676203436, 314.41773428701026, 314.53440095367694, 314.6510676203436, 314.7677342870103, 314.88440095367696, 315.00106762034363, 315.1177342870103, 315.234400953677, 315.35106762034366, 315.46773428701033, 315.584400953677, 315.7010676203437, 315.81773428701035, 316.0510676203437]	2021_Jan_29_0944	59.94706060588736	1	1
14	53	FALSE	NN	v	['M', 'K', 'G', 'Y', 'E', 'H', 'P', 'A', 'V', 'Z', 'C', 'S', 'B', 'U', 'J', 'R']	[1224, 1122, 944, 2670, 904, 986, 1456, 697, 2245, 2911, 829, 1731, 760, 2059, 1029, 1587]	8	Absent	NA	NA	ABSENT	0.3790409564971924	318.03337001800537	320.042014837265	320.62544798851013	320.9759340286255	324.1549370288849	4.112922191619873	[318.0490310192108, 318.1660120487213, 319.15035605430603, 319.317018032074, 320.06796503067017, 320.18470096588135, 320.3015661239624, 320.41836500167847, 320.53518414497375, 320.6520071029663, 320.76862812042236, 320.88534808158875, 321.00238394737244, 321.1190049648285, 321.2359631061554, 321.35275506973267, 321.4693410396576, 321.5863060951233, 321.70313715934753, 321.81991815567017, 321.93669414520264, 322.1549370288849]	[318.0510676203437, 318.1677342870104, 319.1507342870104, 319.31743428701037, 320.06743428701037, 320.18410095367705, 320.3007676203437, 320.4174342870104, 320.53410095367707, 320.65076762034374, 320.7674342870104, 320.8841009536771, 321.00076762034377, 321.11743428701044, 321.2341009536771, 321.3507676203438, 321.46743428701046, 321.58410095367714, 321.7007676203438, 321.8174342870105, 321.93410095367716, 322.1674342870105]	2021_Jan_29_0944	59.94706060588736	1	1
14	54	FALSE	AV	v	['H', 'V', 'N', 'J', 'G', 'P', 'R', 'A', 'Y', 'K', 'surprise', 'W', 'U', 'X', 'M', 'E']	[986, 2245, 1335, 1029, 944, 1456, 1587, 697, 2670, 1122, 'stimAuditory/all_stimAuditory/112.wav', 2448, 2059, 4000, 1224, 904]	14	Present	stimAuditory/all_stimAuditory/212.wav	stimVisual/all_stimVisual/109.jpg	PRESENT	0.6005430221557617	324.156564950943	326.1586389541626	327.44201588630676	327.7919900417328	330.2713029384613	4.112663984298706	[324.17222595214844, 324.2891540527344, 325.2736189365387, 325.4401731491089, 326.19106006622314, 326.3077509403229, 326.42460799217224, 326.5413601398468, 326.65825510025024, 326.77511501312256, 326.8918881416321, 327.0084991455078, 327.1253650188446, 327.2420439720154, 327.35890102386475, 327.4755780696869, 327.5926151275635, 327.709352016449, 327.82627296447754, 327.94290494918823, 328.0428659915924, 328.271301984787]	[324.1674342870105, 324.2841009536772, 325.2671009536772, 325.4338009536772, 326.1838009536772, 326.30046762034385, 326.4171342870105, 326.5338009536772, 326.6504676203439, 326.76713428701055, 326.8838009536772, 327.0004676203439, 327.1171342870106, 327.23380095367725, 327.3504676203439, 327.4671342870106, 327.58380095367727, 327.70046762034394, 327.8171342870106, 327.9338009536773, 328.05046762034397, 328.2838009536773]	2021_Jan_29_0944	59.94706060588736	1	1
14	55	FALSE	NA	v	['V', 'H', 'Y', 'B', 'U', 'P', 'A', 'J', 'X', 'N', 'G', 'W', 'M', 'E', 'T', 'S']	[2245, 986, 2670, 760, 2059, 1456, 697, 1029, 4000, 1335, 944, 2448, 1224, 904, 1888, 1731]	9	Present	NA	NA	PRESENT	0.18894314765930176	330.26304602622986	332.27457094192505	332.975252866745	333.3251328468323	336.3876700401306	4.113099098205566	[330.2787079811096, 330.39546513557434, 331.37984895706177, 331.5466060638428, 332.314129114151, 332.41428399086, 332.53093004226685, 332.647882938385, 332.76450204849243, 332.88145995140076, 332.9981601238251, 333.11497616767883, 333.23168110847473, 333.3486020565033, 333.46526312828064, 333.58213210105896, 333.69899010658264, 333.8157169818878, 333.93260407447815, 334.0492739677429, 334.16601300239563, 334.3876690864563]	[330.2838009536773, 330.400467620344, 331.383467620344, 331.550167620344, 332.300167620344, 332.41683428701066, 332.53350095367733, 332.650167620344, 332.7668342870107, 332.88350095367736, 333.00016762034403, 333.1168342870107, 333.2335009536774, 333.35016762034405, 333.4668342870107, 333.5835009536774, 333.7001676203441, 333.81683428701075, 333.9335009536774, 334.0501676203441, 334.1668342870108, 334.4001676203441]	2021_Jan_29_0944	59.94706060588736	1	1
14	56	FALSE	NA	v	['Y', 'C', 'E', 'J', 'M', 'G', 'W', 'V', 'H', 'Z', 'X', 'K', 'N', 'P', 'T', 'U']	[2670, 829, 904, 1029, 1224, 944, 2448, 2245, 986, 2911, 4000, 1122, 1335, 1456, 1888, 2059]	11	Present	NA	NA	PRESENT	0.33782005310058594	336.38630294799805	338.3911099433899	339.3248519897461	339.6747648715973	342.5040371417999	4.112927198410034	[336.4019651412964, 336.51856207847595, 337.50296807289124, 337.66970014572144, 338.42049407958984, 338.5371561050415, 338.65406799316406, 338.7709791660309, 338.8877580165863, 339.00433802604675, 339.1214210987091, 339.2379529476166, 339.354887008667, 339.47144293785095, 339.5885920524597, 339.7051341533661, 339.8220980167389, 339.9386670589447, 340.055624961853, 340.1722481250763, 340.28922510147095, 340.50403809547424]	[336.4001676203441, 336.5168342870108, 337.4998342870108, 337.6665342870108, 338.4165342870108, 338.53320095367746, 338.64986762034414, 338.7665342870108, 338.8832009536775, 338.99986762034416, 339.11653428701084, 339.2332009536775, 339.3498676203442, 339.46653428701086, 339.58320095367753, 339.6998676203442, 339.8165342870109, 339.93320095367756, 340.04986762034423, 340.1665342870109, 340.2832009536776, 340.5165342870109]	2021_Jan_29_0944	59.94706060588736	1	1
14	57	FALSE	NA	v	['N', 'P', 'Z', 'H', 'J', 'A', 'V', 'Y', 'C', 'R', 'X', 'K', 'E', 'U', 'S', 'W']	[1335, 1456, 2911, 986, 1029, 697, 2245, 2670, 829, 1587, 4000, 1122, 904, 2059, 1731, 2448]	11	Present	NA	NA	PRESENT	0.28670215606689453	342.50913190841675	344.50734305381775	345.4411778450012	345.79111790657043	348.62040305137634	4.113059997558594	[342.5247941017151, 342.6415841579437, 343.60927510261536, 343.77595806121826, 344.54370403289795, 344.6603240966797, 344.77734208106995, 344.8939800262451, 345.0109100341797, 345.12749314308167, 345.24423599243164, 345.3443069458008, 345.47811102867126, 345.57789301872253, 345.694678068161, 345.8115220069885, 345.928514957428, 346.0451171398163, 346.1618311405182, 346.2786440849304, 346.395653963089, 346.620402097702]	[342.5165342870109, 342.6332009536776, 343.6162009536776, 343.7829009536776, 344.5329009536776, 344.64956762034427, 344.76623428701095, 344.8829009536776, 344.9995676203443, 345.11623428701097, 345.23290095367764, 345.3495676203443, 345.466234287011, 345.58290095367767, 345.69956762034434, 345.816234287011, 345.9329009536777, 346.04956762034436, 346.16623428701104, 346.2829009536777, 346.3995676203444, 346.63290095367773]	2021_Jan_29_0944	59.94706060588736	1	1
14	58	FALSE	NA	v	['P', 'N', 'C', 'H', 'Z', 'T', 'B', 'X', 'A', 'S', 'E', 'G', 'M', 'Y', 'W', 'K']	[1456, 1335, 829, 986, 2911, 1888, 760, 4000, 697, 1731, 904, 944, 1224, 2670, 2448, 1122]	8	Present	NA	NA	PRESENT	0.2673912048339844	348.61571884155273	350.6237518787384	351.2074649333954	351.557767868042	354.73677015304565	4.113018274307251	[348.63138008117676, 348.7481441497803, 349.7322790622711, 349.8991560935974, 350.64996099472046, 350.766930103302, 350.8836741447449, 351.00053811073303, 351.1171760559082, 351.23389315605164, 351.35061407089233, 351.4673681259155, 351.5844841003418, 351.70102310180664, 351.81806111335754, 351.934632062912, 352.05162811279297, 352.16825699806213, 352.2851541042328, 352.40188813209534, 352.51849913597107, 352.73677015304565]	[348.63290095367773, 348.7495676203444, 349.7325676203444, 349.8992676203444, 350.6492676203444, 350.7659342870111, 350.88260095367775, 350.9992676203444, 351.1159342870111, 351.2326009536778, 351.34926762034445, 351.4659342870111, 351.5826009536778, 351.6992676203445, 351.81593428701115, 351.9326009536778, 352.0492676203445, 352.16593428701117, 352.28260095367784, 352.3992676203445, 352.5159342870112, 352.74926762034454]	2021_Jan_29_0944	59.94706060588736	1	1
14	59	FALSE	NA	v	['B', 'C', 'T', 'H', 'Z', 'P', 'U', 'E', 'S', 'A', 'W', 'X', 'J', 'Y', 'R', 'K']	[760, 829, 1888, 986, 2911, 1456, 2059, 904, 1731, 697, 2448, 4000, 1029, 2670, 1587, 1122]	12	Present	NA	NA	PRESENT	0.2647838592529297	354.73865389823914	356.73998403549194	357.7905230522156	358.1403110027313	360.85313606262207	4.113152027130127	[354.75431513786316, 354.8711631298065, 355.85554003715515, 356.0225839614868, 356.7731499671936, 356.89004611968994, 357.00680899620056, 357.1236400604248, 357.24019408226013, 357.3570101261139, 357.473904132843, 357.5907680988312, 357.7075779438019, 357.824147939682, 357.9410240650177, 358.05791902542114, 358.17463397979736, 358.2914559841156, 358.4082591533661, 358.5250360965729, 358.62493801116943, 358.8531370162964]	[354.74926762034454, 354.8659342870112, 355.8489342870112, 356.0156342870112, 356.7656342870112, 356.8823009536779, 356.99896762034456, 357.11563428701123, 357.2323009536779, 357.3489676203446, 357.46563428701126, 357.58230095367793, 357.6989676203446, 357.8156342870113, 357.93230095367795, 358.0489676203446, 358.1656342870113, 358.282300953678, 358.39896762034465, 358.5156342870113, 358.632300953678, 358.86563428701135]	2021_Jan_29_0944	59.94706060588736	1	1
14	60	FALSE	NA	v	['T', 'N', 'W', 'U', 'R', 'C', 'Z', 'P', 'J', 'A', 'V', 'E', 'B', 'X', 'S', 'G']	[1888, 1335, 2448, 2059, 1587, 829, 2911, 1456, 1029, 697, 2245, 904, 760, 4000, 1731, 944]	14	Present	NA	NA	PRESENT	0.2533109188079834	360.8451678752899	362.8566439151764	364.1400098800659	364.4902338981629	366.9695031642914	4.11285924911499	[360.86083006858826, 360.97760915756226, 361.9619460105896, 362.1287021636963, 362.8961441516876, 362.9964351654053, 363.1131069660187, 363.2299380302429, 363.34664607048035, 363.46334195137024, 363.58026909828186, 363.69693303108215, 363.81383895874023, 363.9307510852814, 364.04739904403687, 364.16403007507324, 364.2810151576996, 364.39770698547363, 364.5146450996399, 364.6313281059265, 364.748300075531, 364.9695041179657]	[360.86563428701135, 360.982300953678, 361.965300953678, 362.132000953678, 362.882000953678, 362.9986676203447, 363.11533428701136, 363.23200095367804, 363.3486676203447, 363.4653342870114, 363.58200095367806, 363.69866762034474, 363.8153342870114, 363.9320009536781, 364.04866762034476, 364.16533428701143, 364.2820009536781, 364.3986676203448, 364.51533428701146, 364.63200095367813, 364.7486676203448, 364.98200095367815]	2021_Jan_29_0944	59.94706060588736	1	1
14	61	FALSE	VA	v	['R', 'U', 'V', 'B', 'Y', 'T', 'E', 'M', 'S', 'G', 'surprise', 'K', 'Z', 'X', 'N', 'C']	[1587, 2059, 2245, 760, 2670, 1888, 904, 1224, 1731, 944, 'stimAuditory/all_stimAuditory/223.wav', 1122, 2911, 4000, 1335, 829]	14	Present	NA	stimVisual/all_stimVisual/102.jpg	PRESENT	0.1778409481048584	366.9685049057007	368.9728970527649	370.2565908432007	370.60660791397095	373.0858700275421	4.112972974777222	[366.984167098999, 367.10071301460266, 368.0849521160126, 368.25185203552246, 369.00263810157776, 369.11928510665894, 369.23605394363403, 369.35285115242004, 369.4696960449219, 369.58644700050354, 369.70341515541077, 369.82002806663513, 369.9374041557312, 370.0536301136017, 370.1703939437866, 370.287260055542, 370.4041860103607, 370.5207359790802, 370.63748598098755, 370.7545349597931, 370.8712000846863, 371.08587098121643]	[366.98200095367815, 367.0986676203448, 368.08166762034483, 368.2483676203448, 368.9983676203448, 369.1150342870115, 369.23170095367817, 369.34836762034485, 369.4650342870115, 369.5817009536782, 369.69836762034487, 369.81503428701154, 369.9317009536782, 370.0483676203449, 370.16503428701157, 370.28170095367824, 370.3983676203449, 370.5150342870116, 370.63170095367826, 370.74836762034494, 370.8650342870116, 371.09836762034496]	2021_Jan_29_0944	59.94706060588736	1	1
14	62	FALSE	NA	v	['H', 'W', 'U', 'R', 'V', 'M', 'A', 'E', 'J', 'K', 'N', 'X', 'Z', 'P', 'Y', 'C']	[986, 2448, 2059, 1587, 2245, 1224, 697, 904, 1029, 1122, 1335, 4000, 2911, 1456, 2670, 829]	12	Present	NA	NA	PRESENT	0.2791249752044678	373.0912039279938	375.0891819000244	376.1396780014038	376.48965096473694	379.2022359371186	4.113054037094116	[373.1068661212921, 373.223659992218, 374.19126296043396, 374.3581500053406, 375.1256561279297, 375.24237394332886, 375.359423160553, 375.47607707977295, 375.5928330421448, 375.7096960544586, 375.8263130187988, 375.92633605003357, 376.06013107299805, 376.1599509716034, 376.2768371105194, 376.3935570716858, 376.51036405563354, 376.62726402282715, 376.74406003952026, 376.8606960773468, 376.9778001308441, 377.20223593711853]	[373.09836762034496, 373.21503428701163, 374.19803428701164, 374.36473428701163, 375.11473428701163, 375.2314009536783, 375.348067620345, 375.46473428701165, 375.5814009536783, 375.698067620345, 375.8147342870117, 375.93140095367835, 376.048067620345, 376.1647342870117, 376.28140095367837, 376.39806762034505, 376.5147342870117, 376.6314009536784, 376.74806762034507, 376.86473428701174, 376.9814009536784, 377.21473428701177]	2021_Jan_29_0944	59.94706060588736	1	1
14	63	FALSE	NN	v	['Y', 'E', 'W', 'C', 'R', 'H', 'V', 'J', 'Z', 'U', 'M', 'G', 'K', 'P', 'T', 'S']	[2670, 904, 2448, 829, 1587, 986, 2245, 1029, 2911, 2059, 1224, 944, 1122, 1456, 1888, 1731]	8	Absent	NA	NA	ABSENT	0.18764185905456543	379.19761085510254	381.2056038379669	381.78922390937805	382.13942694664	385.31860303878784	4.112999200820923	[379.21327209472656, 379.33023715019226, 380.3144929409027, 380.4812059402466, 381.2320201396942, 381.349014043808, 381.4658579826355, 381.5824110507965, 381.699383020401, 381.81592202186584, 381.9329240322113, 382.0495319366455, 382.166433095932, 382.2833421230316, 382.39997696876526, 382.51667499542236, 382.6336250305176, 382.75030303001404, 382.86704993247986, 382.9839940071106, 383.1008400917053, 383.3186020851135]	[379.21473428701177, 379.33140095367844, 380.31440095367844, 380.48110095367844, 381.23110095367844, 381.3477676203451, 381.4644342870118, 381.58110095367846, 381.69776762034513, 381.8144342870118, 381.9311009536785, 382.04776762034516, 382.16443428701183, 382.2811009536785, 382.3977676203452, 382.51443428701185, 382.6311009536785, 382.7477676203452, 382.8644342870119, 382.98110095367855, 383.0977676203452, 383.3311009536786]	2021_Jan_29_0944	59.94706060588736	1	1
14	64	FALSE	NN	v	['N', 'J', 'H', 'C', 'Z', 'P', 'S', 'U', 'A', 'T', 'E', 'Y', 'V', 'K', 'W', 'R']	[1335, 1029, 986, 829, 2911, 1456, 1731, 2059, 697, 1888, 904, 2670, 2245, 1122, 2448, 1587]	10	Absent	NA	NA	ABSENT	0.22506189346313477	385.3208329677582	387.3219139575958	388.1389579772949	388.4891278743744	391.4349701404571	4.113056182861328	[385.3364951610565, 385.45312094688416, 386.4376640319824, 386.6045169830322, 387.3554949760437, 387.4720070362091, 387.58875703811646, 387.70542097091675, 387.82243299484253, 387.9394431114197, 388.0558121204376, 388.1726641654968, 388.2895369529724, 388.40640211105347, 388.5232300758362, 388.63981008529663, 388.7567570209503, 388.873486995697, 388.9901330471039, 389.1069040298462, 389.2070939540863, 389.43497109413147]	[385.3311009536786, 385.44776762034525, 386.43076762034525, 386.59746762034524, 387.34746762034524, 387.4641342870119, 387.5808009536786, 387.69746762034526, 387.81413428701194, 387.9308009536786, 388.0474676203453, 388.16413428701196, 388.28080095367864, 388.3974676203453, 388.514134287012, 388.63080095367866, 388.74746762034533, 388.864134287012, 388.9808009536787, 389.09746762034536, 389.21413428701203, 389.4474676203454]	2021_Jan_29_0944	59.94706060588736	1	1
14	65	FALSE	NN	v	['E', 'N', 'S', 'C', 'R', 'K', 'W', 'Z', 'B', 'G', 'P', 'T', 'M', 'J', 'U', 'A']	[904, 1335, 1731, 829, 1587, 1122, 2448, 2911, 760, 944, 1456, 1888, 1224, 1029, 2059, 697]	13	Absent	NA	NA	ABSENT	0.2055258750915527	391.4270429611206	393.4383900165558	394.60537791252136	394.95548486709595	397.5513370037079	4.1129469871521	[391.44270396232605, 391.55979108810425, 392.5441880226135, 392.7109730243683, 393.4615390300751, 393.5784511566162, 393.69525504112244, 393.81198811531067, 393.92877101898193, 394.04557394981384, 394.1623480319977, 394.27906799316406, 394.39596915245056, 394.5126609802246, 394.6296191215515, 394.7463159561157, 394.8633360862732, 394.97982001304626, 395.09658694267273, 395.2134189605713, 395.33040404319763, 395.5513379573822]	[391.4474676203454, 391.56413428701205, 392.54713428701206, 392.71383428701205, 393.46383428701205, 393.5805009536787, 393.6971676203454, 393.81383428701207, 393.93050095367875, 394.0471676203454, 394.1638342870121, 394.28050095367877, 394.39716762034544, 394.5138342870121, 394.6305009536788, 394.74716762034546, 394.86383428701214, 394.9805009536788, 395.0971676203455, 395.21383428701216, 395.33050095367884, 395.5638342870122]	2021_Jan_29_0944	59.94706060588736	1	1
14	66	FALSE	NV	v	['T', 'W', 'C', 'A', 'P', 'H', 'R', 'B', 'Z', 'X', 'N', 'S', 'Y', 'U', 'G', 'V']	[1888, 2448, 829, 697, 1456, 986, 1587, 760, 2911, 4000, 1335, 1731, 2670, 2059, 944, 2245]	10	Present	NA	NA	PRESENT	0.17818593978881836	397.5507068634033	399.5547330379486	400.37211894989014	400.7216980457306	403.66770195961	4.112968921661377	[397.56636810302734, 397.6828830242157, 398.667289018631, 398.8339190483093, 399.5847990512848, 399.70174407958984, 399.81844305992126, 399.9353120326996, 400.0520589351654, 400.16885805130005, 400.2857041358948, 400.4022431373596, 400.51924204826355, 400.6358850002289, 400.75283908843994, 400.86954498291016, 400.98618507385254, 401.103098154068, 401.21985507011414, 401.33673906326294, 401.4536130428314, 401.6677031517029]	[397.5638342870122, 397.68050095367886, 398.66350095367886, 398.83020095367885, 399.58020095367885, 399.69686762034553, 399.8135342870122, 399.9302009536789, 400.04686762034555, 400.1635342870122, 400.2802009536789, 400.3968676203456, 400.51353428701225, 400.6302009536789, 400.7468676203456, 400.86353428701227, 400.98020095367895, 401.0968676203456, 401.2135342870123, 401.33020095367897, 401.44686762034564, 401.680200953679]	2021_Jan_29_0944	59.94706060588736	1	1
14	67	FALSE	NA	v	['J', 'S', 'G', 'Y', 'A', 'W', 'B', 'E', 'U', 'X', 'R', 'C', 'M', 'T', 'Z', 'P']	[1029, 1731, 944, 2670, 697, 2448, 760, 904, 2059, 4000, 1587, 829, 1224, 1888, 2911, 1456]	10	Present	NA	NA	PRESENT	0.27921509742736816	403.6735248565674	405.67118287086487	406.4883348941803	406.83814001083374	409.7840700149536	4.112887144088745	[403.6891870498657, 403.78919410705566, 404.77376794815063, 404.9405620098114, 405.7080030441284, 405.80787801742554, 405.9418890476227, 406.0584771633148, 406.15826511383057, 406.27508211135864, 406.39187693595886, 406.50874304771423, 406.62542510032654, 406.75914001464844, 406.8590829372406, 406.9762361049652, 407.0925769805908, 407.20941400527954, 407.3263940811157, 407.44303703308105, 407.55999994277954, 407.7840700149536]	[403.680200953679, 403.79686762034567, 404.77986762034567, 404.94656762034566, 405.69656762034566, 405.81323428701234, 405.929900953679, 406.0465676203457, 406.16323428701236, 406.27990095367903, 406.3965676203457, 406.5132342870124, 406.62990095367905, 406.74656762034573, 406.8632342870124, 406.9799009536791, 407.09656762034575, 407.2132342870124, 407.3299009536791, 407.4465676203458, 407.56323428701245, 407.7965676203458]	2021_Jan_29_0944	59.94706060588736	1	1
14	68	FALSE	VN	v	['Y', 'C', 'N', 'E', 'T', 'R', 'H', 'P', 'V', 'S', 'surprise', 'J', 'A', 'W', 'B', 'K']	[2670, 829, 1335, 904, 1888, 1587, 986, 1456, 2245, 1731, 'stimAuditory/all_stimAuditory/114.wav', 1029, 697, 2448, 760, 1122]	14	Absent	NA	stimVisual/all_stimVisual/122.jpg	ABSENT	0.3397190570831299	409.7799229621887	411.78729701042175	413.0711598396301	413.4212119579315	415.9004361629486	4.1131391525268555	[409.79558515548706, 409.91252613067627, 410.8967139720917, 411.06345796585083, 411.8144619464874, 411.93119502067566, 412.0481290817261, 412.16470313072205, 412.2817220687866, 412.3982470035553, 412.51517605781555, 412.6319739818573, 412.74866914749146, 412.8654589653015, 412.98225593566895, 413.0990569591522, 413.21608304977417, 413.33256912231445, 413.44963693618774, 413.5661060810089, 413.6831901073456, 413.9004361629486]	[409.7965676203458, 409.9132342870125, 410.8962342870125, 411.06293428701247, 411.81293428701247, 411.92960095367914, 412.0462676203458, 412.1629342870125, 412.27960095367916, 412.39626762034584, 412.5129342870125, 412.6296009536792, 412.74626762034586, 412.86293428701254, 412.9796009536792, 413.0962676203459, 413.21293428701256, 413.32960095367923, 413.4462676203459, 413.5629342870126, 413.67960095367926, 413.9129342870126]	2021_Jan_29_0944	59.94706060588736	1	1
14	69	FALSE	NV	v	['P', 'Z', 'B', 'A', 'U', 'C', 'J', 'W', 'R', 'H', 'T', 'Y', 'X', 'M', 'N', 'V']	[1456, 2911, 760, 697, 2059, 829, 1029, 2448, 1587, 986, 1888, 2670, 4000, 1224, 1335, 2245]	13	Present	NA	NA	PRESENT	0.4250690937042236	415.9032430648804	417.9038300514221	419.0709090232849	419.4209039211273	422.01680302619934	4.112972974777222	[415.91891598701477, 416.0354700088501, 417.0203809738159, 417.18681812286377, 417.93799114227295, 418.0542571544647, 418.17111802101135, 418.2879559993744, 418.40492701530457, 418.52157402038574, 418.6384711265564, 418.75500202178955, 418.87190294265747, 418.9887111186981, 419.1054320335388, 419.2221920490265, 419.3392860889435, 419.45644998550415, 419.57276701927185, 419.689581155777, 419.78954100608826, 420.01680397987366]	[415.9129342870126, 416.0296009536793, 417.0126009536793, 417.1793009536793, 417.9293009536793, 418.04596762034595, 418.1626342870126, 418.2793009536793, 418.39596762034597, 418.51263428701265, 418.6293009536793, 418.745967620346, 418.86263428701267, 418.97930095367934, 419.095967620346, 419.2126342870127, 419.32930095367936, 419.44596762034604, 419.5626342870127, 419.6793009536794, 419.79596762034606, 420.0293009536794]	2021_Jan_29_0944	59.94706060588736	1	1
14	70	FALSE	NN	v	['S', 'U', 'C', 'T', 'P', 'W', 'G', 'K', 'B', 'J', 'N', 'A', 'H', 'V', 'R', 'M']	[1731, 2059, 829, 1888, 1456, 2448, 944, 1122, 760, 1029, 1335, 697, 986, 2245, 1587, 1224]	13	Absent	NA	NA	ABSENT	0.42969608306884766	422.00966596603394	424.0200588703155	425.1873688697815	425.5374970436096	428.13317012786865	4.113111257553101	[422.0253269672394, 422.14190006256104, 423.1264669895172, 423.29313611984253, 424.0438690185547, 424.16092014312744, 424.2776789665222, 424.39431500434875, 424.5113191604614, 424.62814807891846, 424.74483704566956, 424.8614180088043, 424.9784200191498, 425.09495401382446, 425.2121031284332, 425.328595161438, 425.4455361366272, 425.5621371269226, 425.6790909767151, 425.795823097229, 425.9128670692444, 426.13317012786865]	[422.0293009536794, 422.1459676203461, 423.1289676203461, 423.2956676203461, 424.0456676203461, 424.16233428701275, 424.27900095367943, 424.3956676203461, 424.5123342870128, 424.62900095367945, 424.7456676203461, 424.8623342870128, 424.9790009536795, 425.09566762034615, 425.2123342870128, 425.3290009536795, 425.44566762034617, 425.56233428701285, 425.6790009536795, 425.7956676203462, 425.91233428701287, 426.1456676203462]	2021_Jan_29_0944	59.94706060588736	1	1
14	71	FALSE	NN	v	['K', 'G', 'V', 'C', 'H', 'Z', 'S', 'M', 'J', 'B', 'R', 'Y', 'W', 'P', 'U', 'E']	[1122, 944, 2245, 829, 986, 2911, 1731, 1224, 1029, 760, 1587, 2670, 2448, 1456, 2059, 904]	12	Absent	NA	NA	ABSENT	0.4582390785217285	428.13299202919006	430.13659501075745	431.1871130466461	431.53702783584595	434.2495369911194	4.1129419803619385	[428.1486539840698, 428.2650001049042, 429.24949312210083, 429.4165289402008, 430.1672360897064, 430.2838740348816, 430.4009139537811, 430.5176610946655, 430.63449001312256, 430.75116515159607, 430.86781215667725, 430.98477816581726, 431.1015441417694, 431.2183790206909, 431.3349051475525, 431.45191502571106, 431.5687141418457, 431.68545603752136, 431.802139043808, 431.91908597946167, 432.0359160900116, 432.24953603744507]	[428.1456676203462, 428.2623342870129, 429.2453342870129, 429.4120342870129, 430.1620342870129, 430.27870095367956, 430.39536762034624, 430.5120342870129, 430.6287009536796, 430.74536762034626, 430.86203428701293, 430.9787009536796, 431.0953676203463, 431.21203428701295, 431.32870095367963, 431.4453676203463, 431.562034287013, 431.67870095367965, 431.7953676203463, 431.912034287013, 432.0287009536797, 432.262034287013]	2021_Jan_29_0944	59.94706060588736	1	1
14	72	FALSE	NV	v	['G', 'A', 'C', 'W', 'H', 'E', 'Y', 'P', 'S', 'R', 'M', 'T', 'X', 'U', 'J', 'K']	[944, 697, 829, 2448, 986, 904, 2670, 1456, 1731, 1587, 1224, 1888, 4000, 2059, 1029, 1122]	13	Present	NA	NA	PRESENT	0.07946491241455078	434.23900389671326	436.2528820037842	437.4203329086304	437.76985788345337	440.3659031391144	4.1130211353302	[434.2546639442444, 434.3715350627899, 435.3560700416565, 435.5227961540222, 436.29030299186707, 436.39033603668213, 436.50709104537964, 436.62392497062683, 436.7406690120697, 436.8575279712677, 436.97430300712585, 437.0910179615021, 437.20801305770874, 437.32470893859863, 437.44149804115295, 437.5582129955292, 437.6751561164856, 437.79177594184875, 437.909077167511, 438.02547311782837, 438.1423909664154, 438.3659031391144]	[434.262034287013, 434.3787009536797, 435.3617009536797, 435.5284009536797, 436.2784009536797, 436.39506762034637, 436.51173428701304, 436.6284009536797, 436.7450676203464, 436.86173428701306, 436.97840095367974, 437.0950676203464, 437.2117342870131, 437.32840095367976, 437.44506762034644, 437.5617342870131, 437.6784009536798, 437.79506762034646, 437.91173428701313, 438.0284009536798, 438.1450676203465, 438.37840095367983]	2021_Jan_29_0944	59.94706060588736	1	1
14	73	FALSE	NV	v	['P', 'T', 'J', 'Y', 'Z', 'C', 'V', 'R', 'X', 'N', 'W', 'H', 'B', 'U', 'E', 'M']	[1456, 1888, 1029, 2670, 2911, 829, 2245, 1587, 4000, 1335, 2448, 986, 760, 2059, 904, 1224]	9	Present	NA	NA	PRESENT	0.13207721710205078	440.3621828556061	442.36937403678894	443.06955790519714	443.4197618961334	446.4822700023651	4.112895965576172	[440.37784600257874, 440.49464106559753, 441.47906708717346, 441.6461350917816, 442.3967411518097, 442.5136339664459, 442.63043212890625, 442.7470510005951, 442.8639919757843, 442.98071813583374, 443.09757900238037, 443.21437096595764, 443.3312039375305, 443.44782304763794, 443.56482696533203, 443.68149995803833, 443.79822993278503, 443.91517210006714, 444.0317339897156, 444.14866399765015, 444.2654161453247, 444.4822700023651]	[440.37840095367983, 440.4950676203465, 441.4780676203465, 441.6447676203465, 442.3947676203465, 442.5114342870132, 442.62810095367985, 442.7447676203465, 442.8614342870132, 442.97810095367987, 443.09476762034654, 443.2114342870132, 443.3281009536799, 443.44476762034657, 443.56143428701324, 443.6781009536799, 443.7947676203466, 443.91143428701326, 444.02810095367994, 444.1447676203466, 444.2614342870133, 444.49476762034664]	2021_Jan_29_0944	59.94706060588736	1	1
14	74	FALSE	NN	v	['V', 'A', 'B', 'R', 'G', 'H', 'W', 'C', 'T', 'P', 'U', 'E', 'K', 'J', 'Y', 'M']	[2245, 697, 760, 1587, 944, 986, 2448, 829, 1888, 1456, 2059, 904, 1122, 1029, 2670, 1224]	12	Absent	NA	NA	ABSENT	0.4094550609588623	446.48556303977966	448.4854099750519	449.5359990596771	449.88594102859497	452.5986361503601	4.1132261753082275	[446.5012249946594, 446.61778807640076, 447.6023859977722, 447.76925110816956, 448.5200719833374, 448.63682293891907, 448.7534041404724, 448.8703589439392, 448.9870491027832, 449.1040470600128, 449.2207770347595, 449.33749294281006, 449.45461201667786, 449.5711660385132, 449.68780994415283, 449.8046889305115, 449.92146015167236, 450.0384039878845, 450.155061006546, 450.2718939781189, 450.3720381259918, 450.5986371040344]	[446.49476762034664, 446.6114342870133, 447.5944342870133, 447.7611342870133, 448.5111342870133, 448.62780095368, 448.74446762034665, 448.86113428701333, 448.97780095368, 449.0944676203467, 449.21113428701335, 449.32780095368, 449.4444676203467, 449.5611342870134, 449.67780095368005, 449.7944676203467, 449.9111342870134, 450.02780095368007, 450.14446762034675, 450.2611342870134, 450.3778009536801, 450.61113428701344]	2021_Jan_29_0944	59.94706060588736	1	1
14	75	FALSE	AA	v	['V', 'R', 'Y', 'W', 'C', 'H', 'A', 'B', 'G', 'E', 'surprise', 'J', 'T', 'X', 'U', 'S']	[2245, 1587, 2670, 2448, 829, 986, 697, 760, 944, 904, 'stimAuditory/all_stimAuditory/113.wav', 1029, 1888, 4000, 2059, 1731]	14	Present	stimAuditory/all_stimAuditory/207.wav	stimVisual/all_stimVisual/115.jpg	PRESENT	0.11796188354492188	452.59187602996826	454.6019320487976	455.88571190834045	456.2357349395752	458.7150030136109	4.113070964813232	[452.607537984848, 452.72431111335754, 453.70893907546997, 453.8756649494171, 454.6262879371643, 454.7431321144104, 454.8601219654083, 454.97681498527527, 455.09368896484375, 455.21032905578613, 455.32720494270325, 455.443825006485, 455.5608260631561, 455.6776599884033, 455.810889005661, 455.91119408607483, 456.02780294418335, 456.14465403556824, 456.2613310813904, 456.37825894355774, 456.49491906166077, 456.7150011062622]	[452.61113428701344, 452.7278009536801, 453.7108009536801, 453.8775009536801, 454.6275009536801, 454.7441676203468, 454.86083428701346, 454.97750095368013, 455.0941676203468, 455.2108342870135, 455.32750095368016, 455.44416762034683, 455.5608342870135, 455.6775009536802, 455.79416762034685, 455.91083428701353, 456.0275009536802, 456.1441676203469, 456.26083428701355, 456.3775009536802, 456.4941676203469, 456.72750095368025]	2021_Jan_29_0944	59.94706060588736	1	1
14	76	FALSE	NA	v	['A', 'K', 'R', 'W', 'H', 'Z', 'U', 'X', 'V', 'G', 'C', 'N', 'S', 'M', 'B', 'E']	[697, 1122, 1587, 2448, 986, 2911, 2059, 4000, 2245, 944, 829, 1335, 1731, 1224, 760, 904]	8	Present	NA	NA	PRESENT	0.34679698944091797	458.7153739929199	460.7182650566101	461.30211186409	461.6521780490875	464.83136916160583	4.1131041049957275	[458.73103499412537, 458.847620010376, 459.8319239616394, 459.99883103370667, 460.7495050430298, 460.8663010597229, 460.98317193984985, 461.0999779701233, 461.21674609184265, 461.3335440158844, 461.450257062912, 461.56710600852966, 461.68374609947205, 461.800763130188, 461.9174039363861, 462.03430914878845, 462.15091013908386, 462.2679901123047, 462.3846070766449, 462.50146412849426, 462.6181709766388, 462.83137011528015]	[458.72750095368025, 458.8441676203469, 459.8271676203469, 459.9938676203469, 460.7438676203469, 460.8605342870136, 460.97720095368027, 461.09386762034694, 461.2105342870136, 461.3272009536803, 461.44386762034696, 461.56053428701364, 461.6772009536803, 461.793867620347, 461.91053428701366, 462.02720095368034, 462.143867620347, 462.2605342870137, 462.37720095368036, 462.49386762034703, 462.6105342870137, 462.84386762034705]	2021_Jan_29_0944	59.94706060588736	1	1
14	77	FALSE	NV	v	['E', 'G', 'V', 'C', 'K', 'U', 'T', 'R', 'Y', 'N', 'W', 'H', 'X', 'A', 'J', 'Z']	[904, 944, 2245, 829, 1122, 2059, 1888, 1587, 2670, 1335, 2448, 986, 4000, 697, 1029, 2911]	13	Present	NA	NA	PRESENT	0.36005282402038574	464.8214068412781	466.8346400260926	468.00185203552246	468.3522939682007	470.9477369785309	4.1130969524383545	[464.8370680809021, 464.95382499694824, 465.9382801055908, 466.10517501831055, 466.8726100921631, 466.9727430343628, 467.0894830226898, 467.2062339782715, 467.3232340812683, 467.4398829936981, 467.5568289756775, 467.6734240055084, 467.79016399383545, 467.9073450565338, 468.0237431526184, 468.1406180858612, 468.25754594802856, 468.3742070198059, 468.4911460876465, 468.6078460216522, 468.7246150970459, 468.94773602485657]	[464.84386762034705, 464.96053428701373, 465.94353428701373, 466.1102342870137, 466.8602342870137, 466.9769009536804, 467.0935676203471, 467.21023428701375, 467.3269009536804, 467.4435676203471, 467.56023428701377, 467.67690095368044, 467.7935676203471, 467.9102342870138, 468.02690095368047, 468.14356762034714, 468.2602342870138, 468.3769009536805, 468.49356762034716, 468.61023428701384, 468.7269009536805, 468.96023428701386]	2021_Jan_29_0944	59.94706060588736	1	1
14	78	FALSE	NN	v	['A', 'B', 'J', 'Y', 'V', 'M', 'U', 'R', 'K', 'N', 'H', 'G', 'P', 'S', 'C', 'Z']	[697, 760, 1029, 2670, 2245, 1224, 2059, 1587, 1122, 1335, 986, 944, 1456, 1731, 829, 2911]	12	Absent	NA	NA	ABSENT	0.2125098705291748	470.9447720050812	472.9509930610657	474.00152707099915	474.3513870239258	477.0641031265259	4.113110065460205	[470.96043395996094, 471.07721304893494, 472.0613920688629, 472.2284710407257, 472.97915410995483, 473.0959210395813, 473.2128601074219, 473.3296420574188, 473.4462881088257, 473.56317496299744, 473.6798300743103, 473.7966170310974, 473.913419008255, 474.0302801132202, 474.1471450328827, 474.2638101577759, 474.3805179595947, 474.49745297431946, 474.6142120361328, 474.73099994659424, 474.8477129936218, 475.0641040802002]	[470.96023428701386, 471.07690095368054, 472.05990095368054, 472.22660095368053, 472.97660095368053, 473.0932676203472, 473.2099342870139, 473.32660095368055, 473.4432676203472, 473.5599342870139, 473.6766009536806, 473.79326762034725, 473.9099342870139, 474.0266009536806, 474.1432676203473, 474.25993428701395, 474.3766009536806, 474.4932676203473, 474.60993428701397, 474.72660095368065, 474.8432676203473, 475.07660095368067]	2021_Jan_29_0944	59.94706060588736	1	1
14	79	FALSE	NA	v	['E', 'C', 'B', 'T', 'Z', 'S', 'U', 'Y', 'X', 'A', 'H', 'K', 'J', 'P', 'R', 'W']	[904, 829, 760, 1888, 2911, 1731, 2059, 2670, 4000, 697, 986, 1122, 1029, 1456, 1587, 2448]	9	Present	NA	NA	PRESENT	0.2498459815979004	477.0679090023041	479.0675220489502	479.7678589820862	480.1177430152893	483.1804699897766	4.112947940826416	[477.08357310295105, 477.2003240585327, 478.1849949359894, 478.35150599479675, 479.10220193862915, 479.21926403045654, 479.33574509620667, 479.4526641368866, 479.56928515434265, 479.6861641407013, 479.8028509616852, 479.91989302635193, 480.0364501476288, 480.1535460948944, 480.27021312713623, 480.38684701919556, 480.5041301250458, 480.6207480430603, 480.737478017807, 480.85406708717346, 480.9543409347534, 481.1804690361023]	[477.07660095368067, 477.19326762034734, 478.17626762034735, 478.34296762034734, 479.09296762034734, 479.209634287014, 479.3263009536807, 479.44296762034736, 479.55963428701403, 479.6763009536807, 479.7929676203474, 479.90963428701406, 480.02630095368073, 480.1429676203474, 480.2596342870141, 480.37630095368075, 480.49296762034743, 480.6096342870141, 480.7263009536808, 480.84296762034745, 480.9596342870141, 481.1929676203475]	2021_Jan_29_0944	59.94706060588736	1	1
