participant	trial_num	practice	task	condition	RSVP	RAP	probePos	probe_presence	surprise_sound	surprise_img	probe_response	probe_resp_time	first_fixation_time	trial_start_time	surprise_start_time	probe_start_time	trial_end_time	trial_duration	actualEventTimes	plannedEventTimes	date	framerate	marker_vol	RAP_vol
14	1	FALSE	NA	a	['R', 'W', 'C', 'S', 'N', 'V', 'A', 'M', 'J', 'U', 'X', 'P', 'H', 'K', 'Z', 'Y']	[1587, 2448, 829, 1731, 1335, 2245, 697, 1224, 1029, 2059, 4000, 1456, 986, 1122, 2911, 2670]	11	Present	NA	NA	PRESENT	1.5580101013183594	3.0994415283203125e-6	1.9930429458618164	2.926386292722139	3.2763884384693505	6.103869915008545	4.1108269691467285	[0.016640901565551758, 0.11645913124084473, 1.0871939659118652, 1.2675979137420654, 2.018404960632324, 2.1350650787353516, 2.251945972442627, 2.3686110973358154, 2.485481023788452, 2.602144956588745, 2.719196081161499, 2.8358030319213867, 2.9524779319763184, 3.069502115249634, 3.186099052429199, 3.3030269145965576, 3.4197640419006348, 3.536679983139038, 3.6532540321350098, 3.770219087600708, 3.887589931488037, 4.103869915008545]	[1.9073486328125e-06, 0.11666857400863281, 1.0996685740086327, 1.2663685740086328, 2.0163685740086326, 2.1330352406686326, 2.2497019073286326, 2.3663685739886327, 2.4830352406486327, 2.5997019073086327, 2.7163685739686327, 2.8330352406286328, 2.949701907288633, 3.066368573948633, 3.183035240608633, 3.299701907268633, 3.416368573928633, 3.533035240588633, 3.649701907248633, 3.766368573908633, 3.883035240568633, 4.116368573901966]	2021_Jan_29_0921	59.99945641056452	1	0.375
14	2	FALSE	NV	a	['P', 'J', 'N', 'G', 'E', 'H', 'K', 'X', 'B', 'S', 'M', 'C', 'U', 'W', 'Z', 'V']	[1456, 1029, 1335, 944, 904, 986, 1122, 4000, 760, 1731, 1224, 829, 2059, 2448, 2911, 2245]	8	Present	NA	NA	NONE	-1	6.105926036834717	8.106434106826782	8.689775307939893	9.039777453687105	12.2287700176239	4.122335910797119	[6.122561931610107, 6.239280939102173, 7.20356011390686, 7.390625953674316, 8.141273021697998, 8.258080005645752, 8.357948064804077, 8.491761922836304, 8.591577053070068, 8.708317041397095, 8.825101137161255, 8.941908121109009, 9.058663129806519, 9.175481081008911, 9.292294979095459, 9.40916109085083, 9.526061058044434, 9.642638921737671, 9.759944915771484, 9.876219987869263, 9.993195056915283, 10.220237016677856]	[6.116368573901966, 6.233035240561966, 7.216035240561966, 7.382735240561965, 8.132735240561965, 8.249401907221966, 8.366068573881966, 8.482735240541967, 8.599401907201967, 8.716068573861968, 8.832735240521968, 8.949401907181969, 9.066068573841969, 9.18273524050197, 9.29940190716197, 9.41606857382197, 9.532735240481971, 9.649401907141971, 9.766068573801972, 9.882735240461972, 9.999401907121973, 10.232735240455305]	2021_Jan_29_0921	59.99945641056452	1	0.375
14	3	FALSE	NV	a	['M', 'J', 'S', 'N', 'Z', 'C', 'W', 'U', 'A', 'G', 'H', 'K', 'X', 'E', 'R', 'V']	[1224, 1029, 1731, 1335, 2911, 829, 2448, 2059, 697, 944, 986, 1122, 4000, 904, 1587, 2245]	13	Present	NA	NA	PRESENT	0.503943920135498	12.228738069534302	14.222723960876465	15.389398733708154	15.739400641036788	18.336604118347168	4.113880157470703	[12.245374917984009, 12.345402956008911, 13.31992793083191, 13.496799945831299, 14.24737811088562, 14.364388942718506, 14.481122016906738, 14.597810983657837, 14.714721918106079, 14.831289052963257, 14.94834303855896, 15.065071105957031, 15.181648969650269, 15.298373937606812, 15.415338039398193, 15.532104969024658, 15.648767948150635, 15.765662908554077, 15.882803916931152, 15.999399900436401, 16.116079092025757, 16.336602926254272]	[12.232735240455305, 12.349401907115306, 13.332401907115306, 13.499101907115307, 14.249101907115307, 14.365768573775307, 14.482435240435308, 14.599101907095308, 14.715768573755309, 14.83243524041531, 14.94910190707531, 15.06576857373531, 15.18243524039531, 15.299101907055311, 15.415768573715312, 15.532435240375312, 15.649101907035313, 15.765768573695313, 15.882435240355314, 15.999101907015314, 16.115768573675314, 16.34910190700865]	2021_Jan_29_0921	59.99945641056452	1	0.375
14	4	FALSE	VA	a	['T', 'R', 'V', 'M', 'surprise', 'Z', 'J', 'X', 'A', 'H', 'U', 'W', 'Y', 'B', 'G', 'P']	[1888, 1587, 2245, 1224, 'stimAuditory/all_stimAuditory/101.wav', 2911, 1029, 4000, 697, 986, 2059, 2448, 2670, 760, 944, 1456]	8	Present	NA	NA	ABSENT	0.900306224822998	18.335016012191772	20.338871002197266	20.922212441728956	21.272214349057588	24.4529709815979	4.114099979400635	[18.351651906967163, 18.46829605102539, 19.436294078826904, 19.619441986083984, 20.370774030685425, 20.487114906311035, 20.603843927383423, 20.720762014389038, 20.8373761177063, 20.954456090927124, 21.071156978607178, 21.18795895576477, 21.30457901954651, 21.421453952789307, 21.53814196586609, 21.65506911277771, 21.771721124649048, 21.88856291770935, 22.00528311729431, 22.122291088104248, 22.238989114761353, 22.4529709815979]	[18.34910190700865, 18.465768573668647, 19.448768573668648, 19.615468573668647, 20.365468573668647, 20.482135240328645, 20.598801906988644, 20.715468573648643, 20.83213524030864, 20.94880190696864, 21.06546857362864, 21.182135240288638, 21.298801906948636, 21.415468573608635, 21.532135240268634, 21.648801906928632, 21.76546857358863, 21.88213524024863, 21.99880190690863, 22.115468573568627, 22.232135240228626, 22.46546857356196]	2021_Jan_29_0921	59.99945641056452	1	0.375
14	5	FALSE	NA	a	['J', 'S', 'V', 'M', 'H', 'A', 'U', 'X', 'W', 'N', 'Z', 'Y', 'G', 'B', 'C', 'E']	[1029, 1731, 2245, 1224, 986, 697, 2059, 4000, 2448, 1335, 2911, 2670, 944, 760, 829, 904]	8	Present	NA	NA	PRESENT	0.40978384017944336	24.458110094070435	26.455305099487305	27.0386453469261	27.38864725425473	30.569337129592896	4.114032030105591	[24.47475790977478, 24.57460308074951, 25.552662134170532, 25.72596001625061, 26.476433038711548, 26.59351396560669, 26.71022891998291, 26.826884031295776, 26.94375991821289, 27.06057906150818, 27.17736792564392, 27.29404306411743, 27.410969018936157, 27.5276141166687, 27.64450693130493, 27.761253118515015, 27.878026962280273, 27.99484896659851, 28.111642122268677, 28.22835612297058, 28.34526300430298, 28.569337129592896]	[24.46546857356196, 24.58213524022196, 25.56513524022196, 25.731835240221958, 26.481835240221958, 26.598501906881957, 26.715168573541956, 26.831835240201954, 26.948501906861953, 27.06516857352195, 27.18183524018195, 27.29850190684195, 27.415168573501948, 27.531835240161946, 27.648501906821945, 27.765168573481944, 27.881835240141942, 27.99850190680194, 28.11516857346194, 28.23183524012194, 28.348501906781937, 28.58183524011527]	2021_Jan_29_0921	59.99945641056452	1	0.375
14	6	FALSE	NA	a	['C', 'S', 'T', 'N', 'Y', 'Z', 'P', 'J', 'W', 'U', 'H', 'R', 'K', 'X', 'V', 'E']	[829, 1731, 1888, 1335, 2670, 2911, 1456, 1029, 2448, 2059, 986, 1587, 1122, 4000, 2245, 904]	14	Present	NA	NA	PRESENT	1.8303699493408203	30.564505100250244	32.57180595397949	33.85514643979687	34.2051483471255	36.68570303916931	4.113897085189819	[30.58114194869995, 30.69744610786438, 31.669026136398315, 31.848665952682495, 32.599486112594604, 32.71631097793579, 32.8331561088562, 32.949825048446655, 33.066843032836914, 33.18350601196289, 33.300312995910645, 33.41701006889343, 33.53378391265869, 33.6506769657135, 33.76729202270508, 33.88471698760986, 34.0008659362793, 34.11781692504883, 34.234426975250244, 34.351300954818726, 34.46812605857849, 34.68570303916931]	[30.58183524011527, 30.69850190677527, 31.68150190677527, 31.84820190677527, 32.59820190677527, 32.714868573435275, 32.83153524009528, 32.94820190675528, 33.06486857341528, 33.181535240075284, 33.29820190673529, 33.41486857339529, 33.53153524005529, 33.64820190671529, 33.764868573375296, 33.8815352400353, 33.9982019066953, 34.1148685733553, 34.231535240015305, 34.34820190667531, 34.46486857333531, 34.69820190666864]	2021_Jan_29_0921	59.99945641056452	1	0.375
14	7	FALSE	NN	a	['Z', 'S', 'T', 'W', 'V', 'H', 'N', 'Y', 'R', 'E', 'U', 'K', 'G', 'B', 'J', 'C']	[2911, 1731, 1888, 2448, 2245, 986, 1335, 2670, 1587, 904, 2059, 1122, 944, 760, 1029, 829]	13	Absent	NA	NA	ABSENT	0.32393813133239746	36.68711805343628	38.688223123550415	39.85489765796353	40.20489980371074	42.80207109451294	4.113847970962524	[36.70375394821167, 36.82041001319885, 37.785396099090576, 37.97164797782898, 38.7223379611969, 38.83931112289429, 38.955869913101196, 39.07288408279419, 39.18963813781738, 39.30626606941223, 39.42329812049866, 39.540087938308716, 39.639894008636475, 39.75681400299072, 39.87339806556702, 39.99020004272461, 40.10706305503845, 40.22383213043213, 40.34061098098755, 40.457425117492676, 40.57420897483826, 40.80206894874573]	[36.69820190666864, 36.814868573328646, 37.79786857332864, 37.96456857332864, 38.71456857332864, 38.831235239988644, 38.947901906648646, 39.06456857330865, 39.18123523996865, 39.29790190662865, 39.414568573288655, 39.53123523994866, 39.64790190660866, 39.76456857326866, 39.881235239928664, 39.997901906588666, 40.11456857324867, 40.23123523990867, 40.34790190656867, 40.464568573228675, 40.58123523988868, 40.81456857322201]	2021_Jan_29_0921	59.99945641056452	1	0.375
14	8	FALSE	NA	a	['V', 'N', 'Y', 'Z', 'T', 'J', 'K', 'X', 'W', 'H', 'S', 'A', 'U', 'M', 'G', 'B']	[2245, 1335, 2670, 2911, 1888, 1029, 1122, 4000, 2448, 986, 1731, 697, 2059, 1224, 944, 760]	8	Present	NA	NA	PRESENT	0.7361321449279785	42.79344606399536	44.80476593971253	45.38810737924421	45.73810833289853	48.91843795776367	4.1136720180511475	[42.81008195877075, 42.92656397819519, 43.90176296234131, 44.0779230594635, 44.82864999771118, 44.94549894332886, 45.062357902526855, 45.17900896072388, 45.29585409164429, 45.41248798370361, 45.529386043548584, 45.64606213569641, 45.7630500793457, 45.88007307052612, 45.996392011642456, 46.11323595046997, 46.23009896278381, 46.346874952316284, 46.463748931884766, 46.580580949783325, 46.69722604751587, 46.918437004089355]	[42.81456857322201, 42.931235239882014, 43.91423523988201, 44.08093523988201, 44.83093523988201, 44.94760190654201, 45.064268573202014, 45.180935239862016, 45.29760190652202, 45.41426857318202, 45.53093523984202, 45.647601906502025, 45.76426857316203, 45.88093523982203, 45.99760190648203, 46.114268573142034, 46.23093523980204, 46.34760190646204, 46.46426857312204, 46.58093523978204, 46.697601906442046, 46.93093523977538]	2021_Jan_29_0921	59.99945641056452	1	0.375
14	9	FALSE	NV	a	['J', 'E', 'R', 'K', 'S', 'M', 'C', 'U', 'X', 'N', 'A', 'W', 'G', 'B', 'V', 'H']	[1029, 904, 1587, 1122, 1731, 1224, 829, 2059, 4000, 1335, 697, 2448, 944, 760, 2245, 986]	9	Present	NA	NA	PRESENT	0.740818977355957	48.91607499122619	50.92068791389465	51.62069602008634	51.970697927414975	55.03480410575867	4.114116191864014	[48.932711124420166, 49.0496289730072, 50.01812696456909, 50.20108699798584, 50.95153307914734, 51.068439960479736, 51.18514704704285, 51.30200505256653, 51.41872501373291, 51.53549313545227, 51.65214800834656, 51.76910710334778, 51.885847091674805, 52.00264596939087, 52.11938500404358, 52.23635005950928, 52.35301995277405, 52.46991491317749, 52.58656311035156, 52.70343494415283, 52.82025408744812, 53.03480410575867]	[48.93093523977538, 49.04760190643538, 50.03060190643538, 50.19730190643538, 50.94730190643538, 51.06396857309538, 51.18063523975538, 51.297301906415385, 51.41396857307539, 51.53063523973539, 51.64730190639539, 51.763968573055394, 51.880635239715396, 51.9973019063754, 52.1139685730354, 52.2306352396954, 52.347301906355405, 52.46396857301541, 52.58063523967541, 52.69730190633541, 52.813968572995414, 53.04730190632875]	2021_Jan_29_0921	59.99945641056452	1	0.375
14	10	FALSE	NA	a	['A', 'K', 'J', 'G', 'C', 'E', 'P', 'X', 'M', 'H', 'S', 'Z', 'Y', 'W', 'B', 'R']	[697, 1122, 1029, 944, 829, 904, 1456, 4000, 1224, 986, 1731, 2911, 2670, 2448, 760, 1587]	8	Present	NA	NA	PRESENT	1.09806489944458	55.03917098045349	57.037179946899414	57.620520432756784	57.97052234008542	61.1511709690094	4.113991022109985	[55.055819034576416, 55.17255997657776, 56.1344940662384, 56.30682992935181, 57.07444190979004, 57.174439907073975, 57.29123401641846, 57.40800499916077, 57.52504897117615, 57.64174008369446, 57.75857710838318, 57.87531805038452, 57.992197036743164, 58.108896017074585, 58.225526094436646, 58.34240102767944, 58.459306955337524, 58.57602906227112, 58.69266390800476, 58.80961012840271, 58.92642307281494, 59.15117001533508]	[55.04730190632875, 55.16396857298875, 56.14696857298875, 56.313668572988746, 57.063668572988746, 57.18033523964875, 57.29700190630875, 57.41366857296875, 57.530335239628755, 57.64700190628876, 57.76366857294876, 57.88033523960876, 57.997001906268764, 58.113668572928766, 58.23033523958877, 58.34700190624877, 58.46366857290877, 58.580335239568775, 58.69700190622878, 58.81366857288878, 58.93033523954878, 59.163668572882116]	2021_Jan_29_0921	59.99945641056452	1	0.375
14	11	FALSE	NN	a	['H', 'V', 'C', 'P', 'Y', 'E', 'Z', 'B', 'R', 'J', 'W', 'T', 'A', 'M', 'S', 'G']	[986, 2245, 829, 1456, 2670, 904, 2911, 760, 1587, 1029, 2448, 1888, 697, 1224, 1731, 944]	12	Absent	NA	NA	ABSENT	0.60651397705078125	61.1454291343689	63.153680086135864	64.20368795388897	64.55369009963619	67.2675371170044	4.11385703086853	[61.16206502914429, 61.27867412567139, 62.25086212158203, 62.4300639629364, 63.18062901496887, 63.29741597175598, 63.41441011428833, 63.53113412857056, 63.64776301383972, 63.764732122421265, 63.881722927093506, 63.99841904640198, 64.11489605903625, 64.23183703422546, 64.3484160900116, 64.46542501449585, 64.58203196525574, 64.69905591011047, 64.8156099319458, 64.93256497383118, 65.04933905601501, 65.2675371170044]	[61.163668572882116, 61.28033523954212, 62.263335239542116, 62.430035239542114, 63.180035239542114, 63.29670190620212, 63.41336857286212, 63.53003523952212, 63.64670190618212, 63.763368572842126, 63.88003523950213, 63.99670190616213, 64.11336857282213, 64.23003523948212, 64.34670190614212, 64.46336857280211, 64.5800352394621, 64.6967019061221, 64.8133685727821, 64.93003523944209, 65.04670190610209, 65.28003523943542]	2021_Jan_29_0921	59.99945641056452	1	0.375
14	12	FALSE	NV	a	['T', 'W', 'J', 'R', 'N', 'S', 'B', 'X', 'Y', 'K', 'A', 'P', 'G', 'Z', 'V', 'C']	[1888, 2448, 1029, 1587, 1335, 1731, 760, 4000, 2670, 1122, 697, 1456, 944, 2911, 2245, 829]	8	Present	NA	NA	PRESENT	0.5479180812835693	67.26827502250671	69.26974892616272	69.85309036569441	70.20309227302305	73.38390398025513	4.114155054092407	[67.284912109375, 67.40165090560913, 68.36722493171692, 68.55293107032776, 69.30360412597656, 69.42026710510254, 69.53719210624695, 69.65400409698486, 69.77091002464294, 69.88767409324646, 70.00439095497131, 70.12127208709717, 70.23779392242432, 70.35464191436768, 70.47165393829346, 70.58826303482056, 70.70509600639343, 70.80497312545776, 70.93873810768127, 71.0385971069336, 71.15543603897095, 71.38390493392944]	[67.28003523943542, 67.39670190609542, 68.37970190609542, 68.54640190609543, 69.29640190609543, 69.41306857275542, 69.52973523941542, 69.64640190607541, 69.7630685727354, 69.8797352393954, 69.9964019060554, 70.11306857271539, 70.22973523937539, 70.34640190603538, 70.46306857269538, 70.57973523935537, 70.69640190601537, 70.81306857267536, 70.92973523933536, 71.04640190599535, 71.16306857265535, 71.39640190598868]	2021_Jan_29_0921	59.99945641056452	1	0.375
14	13	FALSE	NA	a	['B', 'E', 'K', 'N', 'V', 'H', 'U', 'S', 'Z', 'P', 'J', 'M', 'G', 'X', 'A', 'Y']	[760, 904, 1122, 1335, 2245, 986, 2059, 1731, 2911, 1456, 1029, 1224, 944, 4000, 697, 2670]	14	Present	NA	NA	PRESENT	1.8083481788635256	73.37448191642761	75.38627004623413	76.66961029363293	77.01961339305446	79.50027108192444	4.114001035690308	[73.39111804962158, 73.50772309303284, 74.48359394073486, 74.65915298461914, 75.40970396995544, 75.52660512924194, 75.64335703849792, 75.76015400886536, 75.87690091133118, 75.99375796318054, 76.1106390953064, 76.22734808921814, 76.34418606758118, 76.46101212501526, 76.57761311531067, 76.69460105895996, 76.81123304367065, 76.92821311950684, 77.04480409622192, 77.16161608695984, 77.27853012084961, 77.50027108192444]	[73.39640190598868, 73.51306857264868, 74.49606857264868, 74.66276857264869, 75.41276857264869, 75.52943523930868, 75.64610190596868, 75.76276857262867, 75.87943523928867, 75.99610190594866, 76.11276857260866, 76.22943523926865, 76.34610190592865, 76.46276857258864, 76.57943523924864, 76.69610190590863, 76.81276857256863, 76.92943523922862, 77.04610190588862, 77.16276857254861, 77.27943523920861, 77.51276857254194]	2021_Jan_29_0921	59.99945641056452	1	0.375
14	14	FALSE	NV	a	['B', 'C', 'G', 'H', 'E', 'U', 'K', 'M', 'T', 'V', 'N', 'X', 'Y', 'A', 'S', 'J']	[760, 829, 944, 986, 904, 2059, 1122, 1224, 1888, 2245, 1335, 4000, 2670, 697, 1731, 1029]	12	Present	NA	NA	PRESENT	1.7810299396514893	79.4973840713501	81.50264692306519	82.55265502923687	82.9026581286584	85.61663699150085	4.113990068435669	[79.51401996612549, 79.63087391853333, 80.59996294975281, 80.78224301338196, 81.53261208534241, 81.64957213401794, 81.7664680480957, 81.88327407836914, 81.9998140335083, 82.1166820526123, 82.23344302177429, 82.35017395019531, 82.46713709831238, 82.58392906188965, 82.70054507255554, 82.81726503372192, 82.9342770576477, 83.05099606513977, 83.16802406311035, 83.28461694717407, 83.40155005455017, 83.61663699150085]	[79.51276857254194, 79.62943523920194, 80.61243523920194, 80.77913523920195, 81.52913523920195, 81.64580190586194, 81.76246857252194, 81.87913523918193, 81.99580190584193, 82.11246857250192, 82.22913523916192, 82.34580190582192, 82.46246857248191, 82.5791352391419, 82.6958019058019, 82.8124685724619, 82.92913523912189, 83.04580190578189, 83.16246857244188, 83.27913523910188, 83.39580190576187, 83.6291352390952]	2021_Jan_29_0921	59.99945641056452	1	0.375
14	15	FALSE	NN	a	['N', 'U', 'W', 'K', 'M', 'Z', 'G', 'H', 'R', 'T', 'V', 'J', 'C', 'S', 'E', 'A']	[1335, 2059, 2448, 1122, 1224, 2911, 944, 986, 1587, 1888, 2245, 1029, 829, 1731, 904, 697]	12	Absent	NA	NA	ABSENT	0.8582019805908203	85.62036299705505	87.61919808387756	88.66920595163067	89.01920809737788	91.73300409317017	4.1138060092926025	[85.63699913024902, 85.7536461353302, 86.71632313728333, 86.88806891441345, 87.65567302703857, 87.7556381225586, 87.8726909160614, 87.98933005332947, 88.10616707801819, 88.22298312187195, 88.33958792686462, 88.45652294158936, 88.57322907447815, 88.69015693664551, 88.80674195289612, 88.92360496520996, 89.04047107696533, 89.15718293190002, 89.27386093139648, 89.39081811904907, 89.50743913650513, 89.73300290107727]	[85.6291352390952, 85.7458019057552, 86.7288019057552, 86.89550190575521, 87.64550190575521, 87.7621685724152, 87.8788352390752, 87.9955019057352, 88.11216857239519, 88.22883523905519, 88.34550190571518, 88.46216857237518, 88.57883523903517, 88.69550190569517, 88.81216857235516, 88.92883523901516, 89.04550190567515, 89.16216857233515, 89.27883523899514, 89.39550190565514, 89.51216857231513, 89.74550190564847]	2021_Jan_29_0921	59.99945641056452	1	0.375
14	16	FALSE	NV	a	['Y', 'K', 'W', 'U', 'M', 'H', 'G', 'X', 'C', 'N', 'P', 'S', 'B', 'J', 'V', 'Z']	[2670, 1122, 2448, 2059, 1224, 986, 944, 4000, 829, 1335, 1456, 1731, 760, 1029, 2245, 2911]	8	Present	NA	NA	PRESENT	0.5747840404510498	91.72699809074402	93.73558306694032	94.31893428163374	94.66893642738096	97.8493709564209	4.113787889480591	[91.74363398551941, 91.86002898216248, 92.83269309997559, 93.01114296913147, 93.76185512542725, 93.87878012657166, 93.99544310569763, 94.11233806610107, 94.22895193099976, 94.34591507911682, 94.46264100074768, 94.57942390441895, 94.69609498977661, 94.81300902366638, 94.92970991134644, 95.04667401313782, 95.1633689403534, 95.28009700775146, 95.39675092697144, 95.51374411582947, 95.63046598434448, 95.84937000274658]	[91.74550190564847, 91.86216857230846, 92.84516857230847, 93.01186857230847, 93.76186857230847, 93.87853523896847, 93.99520190562846, 94.11186857228846, 94.22853523894845, 94.34520190560845, 94.46186857226844, 94.57853523892844, 94.69520190558843, 94.81186857224843, 94.92853523890842, 95.04520190556842, 95.16186857222841, 95.27853523888841, 95.3952019055484, 95.5118685722084, 95.6285352388684, 95.86186857220173]	2021_Jan_29_0921	59.99945641056452	1	0.375
14	17	FALSE	NV	a	['R', 'A', 'P', 'J', 'U', 'N', 'W', 'H', 'X', 'E', 'G', 'V', 'Z', 'C', 'Y', 'K']	[1587, 697, 1456, 1029, 2059, 1335, 2448, 986, 4000, 904, 944, 2245, 2911, 829, 2670, 1122]	9	Present	NA	NA	PRESENT	0.955409049987793	97.8493390083313	99.8516891002655	100.5516960143643	100.90169792169291	103.9657380580902	4.114048957824707	[97.86597609519958, 97.98291206359863, 98.94906091690063, 99.13398504257202, 99.88486409187317, 100.00164294242859, 100.11832213401794, 100.23510193824768, 100.35208702087402, 100.46869802474976, 100.58557605743408, 100.70220804214478, 100.81915712356567, 100.93580293655396, 101.05260491371155, 101.1695020198822, 101.2863039970398, 101.40290808677673, 101.51989197731018, 101.63657808303833, 101.7537260055542, 101.96573805809021]	[97.86186857220173, 97.97853523886172, 98.96153523886173, 99.12823523886173, 99.87823523886173, 99.99490190552173, 100.11156857218172, 100.22823523884172, 100.34490190550171, 100.46156857216171, 100.5782352388217, 100.6949019054817, 100.8115685721417, 100.92823523880169, 101.04490190546169, 101.16156857212168, 101.27823523878168, 101.39490190544167, 101.51156857210167, 101.62823523876166, 101.74490190542166, 101.97823523875499]	2021_Jan_29_0921	59.99945641056452	1	0.375
14	18	FALSE	NN	a	['B', 'P', 'R', 'A', 'G', 'K', 'Z', 'U', 'W', 'T', 'S', 'V', 'M', 'J', 'C', 'H']	[760, 1456, 1587, 697, 944, 1122, 2911, 2059, 2448, 1888, 1731, 2245, 1224, 1029, 829, 986]	12	Absent	NA	NA	ABSENT	1.1767098903656006	103.9555151462555	105.96810913085938	107.01811699861248	107.3681179522668	110.08210301399232	4.113993883132935	[103.97215104103088, 104.08891296386719, 105.06542801856995, 105.24035310745239, 105.99085807800293, 106.10783696174622, 106.22469401359558, 106.34135413169861, 106.45831513404846, 106.57504796981812, 106.69170498847961, 106.80865502357483, 106.92521905899048, 107.04223895072937, 107.15885996818542, 107.27577304840088, 107.3924150466919, 107.50937509536743, 107.62596201896667, 107.74261403083801, 107.8597059249878, 108.08210301399231]	[103.97823523875499, 104.09490190541499, 105.07790190541499, 105.244601905415, 105.994601905415, 106.11126857207499, 106.22793523873499, 106.34460190539498, 106.46126857205498, 106.57793523871497, 106.69460190537497, 106.81126857203496, 106.92793523869496, 107.04460190535495, 107.16126857201495, 107.27793523867494, 107.39460190533494, 107.51126857199493, 107.62793523865493, 107.74460190531492, 107.86126857197492, 108.09460190530825]	2021_Jan_29_0921	59.99945641056452	1	0.375
14	19	FALSE	NN	a	['J', 'E', 'A', 'R', 'P', 'Y', 'S', 'V', 'C', 'W', 'U', 'H', 'M', 'T', 'B', 'G']	[1029, 904, 697, 1587, 1456, 2670, 1731, 2245, 829, 2448, 2059, 986, 1224, 1888, 760, 944]	10	Absent	NA	NA	ABSENT	1.5252859592437744	110.07856798171996	112.08426809310912	112.90094262754224	113.25094477328943	116.19847106933594	4.114202976226807	[110.09520602226257, 110.21212100982666, 111.18179297447205, 111.36311101913452, 112.11416792869568, 112.2308259010315, 112.34756898880005, 112.46430802345276, 112.58104300498962, 112.697998046875, 112.81465196609497, 112.93140506744385, 113.04822993278503, 113.1650619506836, 113.281907081604, 113.39839911460876, 113.51542496681213, 113.63202095031738, 113.74902391433716, 113.86558794975281, 113.9826009273529, 114.19847011566162]	[110.09460190530825, 110.21126857196825, 111.19426857196825, 111.36096857196826, 112.11096857196826, 112.22763523862825, 112.34430190528825, 112.46096857194824, 112.57763523860824, 112.69430190526823, 112.81096857192823, 112.92763523858822, 113.04430190524822, 113.16096857190821, 113.27763523856821, 113.3943019052282, 113.5109685718882, 113.6276352385482, 113.74430190520819, 113.86096857186818, 113.97763523852818, 114.21096857186151]	2021_Jan_29_0921	59.99945641056452	1	0.375
14	20	FALSE	NN	a	['A', 'E', 'U', 'N', 'V', 'W', 'M', 'R', 'T', 'B', 'K', 'G', 'S', 'H', 'Y', 'Z']	[697, 904, 2059, 1335, 2245, 2448, 1224, 1587, 1888, 760, 1122, 944, 1731, 986, 2670, 2911]	9	Absent	NA	NA	ABSENT	1.754297971725464	116.20144414901732	118.20097708702087	118.90098495479398	119.2509871005412	122.31483697891235	4.1138598918914795	[116.21808099746704, 116.33503007888794, 117.29816198348999, 117.48625302314758, 118.23687696456909, 118.33680391311646, 118.45362591743469, 118.57043504714966, 118.6874029636383, 118.80407905578613, 118.9207010269165, 119.0376250743866, 119.15436291694641, 119.27120590209961, 119.38792204856873, 119.50485491752625, 119.62150597572327, 119.73847198486328, 119.8550980091095, 119.97204399108887, 120.08869004249573, 120.31483697891235]	[116.21096857186151, 116.32763523852151, 117.31063523852151, 117.47733523852152, 118.22733523852152, 118.34400190518151, 118.46066857184151, 118.5773352385015, 118.6940019051615, 118.8106685718215, 118.92733523848149, 119.04400190514149, 119.16066857180148, 119.27733523846148, 119.39400190512147, 119.51066857178147, 119.62733523844146, 119.74400190510146, 119.86066857176145, 119.97733523842145, 120.09400190508144, 120.32733523841478]	2021_Jan_29_0921	59.99945641056452	1	0.375
14	21	FALSE	NA	a	['H', 'G', 'C', 'P', 'R', 'T', 'Y', 'X', 'E', 'S', 'A', 'U', 'N', 'Z', 'M', 'J']	[986, 944, 829, 1456, 1587, 1888, 2670, 4000, 904, 1731, 697, 2059, 1335, 2911, 1224, 1029]	8	Present	NA	NA	ABSENT	1.1830239295959473	122.30759406089784	124.3171730041504	124.9005132515892	125.25051635101072	128.4312040805817	4.114031076431274	[122.32423090934753, 122.44117498397827, 123.41452813148499, 123.59238195419312, 124.34305596351624, 124.45992112159729, 124.57668113708496, 124.6934859752655, 124.81018590927124, 124.92711806297302, 125.04375410079956, 125.160640001297, 125.27727198600769, 125.39403295516968, 125.51089906692505, 125.62781095504761, 125.74457907676697, 125.86122608184814, 125.97823405265808, 126.09504890441895, 126.21170496940613, 126.43120503425598]	[122.32733523841478, 122.44400190507477, 123.42700190507477, 123.59370190507478, 124.34370190507478, 124.46036857173478, 124.57703523839477, 124.69370190505477, 124.81036857171476, 124.92703523837476, 125.04370190503475, 125.16036857169475, 125.27703523835474, 125.39370190501474, 125.51036857167473, 125.62703523833473, 125.74370190499472, 125.86036857165472, 125.97703523831471, 126.09370190497471, 126.2103685716347, 126.44370190496804]	2021_Jan_29_0921	59.99945641056452	1	0.375
14	22	FALSE	NA	a	['J', 'B', 'W', 'U', 'P', 'K', 'M', 'X', 'N', 'S', 'E', 'Z', 'V', 'R', 'H', 'T']	[1029, 760, 2448, 2059, 1456, 1122, 1224, 4000, 1335, 1731, 904, 2911, 2245, 1587, 986, 1888]	8	Present	NA	NA	PRESENT	0.5635168552398682	128.4306070804596	130.433748960495	131.0170904000267	131.3670923073553	134.5475709438324	4.113821983337402	[128.44724297523499, 128.56417512893677, 129.53089499473572, 129.71514511108398, 130.46603107452393, 130.58266496658325, 130.69969701766968, 130.81619501113892, 130.93330192565918, 131.0500180721283, 131.16678190231323, 131.28353905677795, 131.40022611618042, 131.51702404022217, 131.63369703292847, 131.75078892707825, 131.86742210388184, 131.98428010940552, 132.10112404823303, 132.217787027359, 132.33464407920837, 132.5475721359253]	[128.44370190496804, 128.56036857162803, 129.54336857162804, 129.71006857162803, 130.46006857162803, 130.57673523828802, 130.69340190494802, 130.810068571608, 130.926735238268, 131.043401904928, 131.160068571588, 131.276735238248, 131.393401904908, 131.51006857156798, 131.62673523822798, 131.74340190488797, 131.86006857154797, 131.97673523820797, 132.09340190486796, 132.21006857152796, 132.32673523818795, 132.56006857152127]	2021_Jan_29_0921	59.99945641056452	1	0.375
14	23	FALSE	VV	a	['A', 'N', 'C', 'Y', 'H', 'surprise', 'Z', 'V', 'X', 'K', 'R', 'S', 'B', 'U', 'G', 'J']	[697, 1335, 829, 2670, 986, 'stimAuditory/all_stimAuditory/211.wav', 2911, 2245, 4000, 1122, 1587, 1731, 760, 2059, 944, 1029]	9	Present	NA	NA	PRESENT	0.3209102153778076	134.5368230342865	136.55011296272278	137.25012106891447	137.60012392991743	140.6639370918274	4.113824129104614	[134.5534589290619, 134.67026495933533, 135.64726090431213, 135.82157611846924, 136.5721080303192, 136.68913507461548, 136.8057141304016, 136.92262601852417, 137.03925490379333, 137.15620708465576, 137.27287793159485, 137.3898310661316, 137.5065050125122, 137.6233880519867, 137.74003195762634, 137.85687613487244, 137.97365999221802, 138.0904450416565, 138.20715999603271, 138.32388997077942, 138.44069290161133, 138.6639370918274]	[134.56006857152127, 134.67673523818127, 135.65973523818127, 135.82643523818126, 136.57643523818126, 136.69310190484126, 136.80976857150125, 136.92643523816125, 137.04310190482124, 137.15976857148124, 137.27643523814123, 137.39310190480123, 137.50976857146122, 137.62643523812122, 137.7431019047812, 137.8597685714412, 137.9764352381012, 138.0931019047612, 138.2097685714212, 138.3264352380812, 138.44310190474118, 138.6764352380745]	2021_Jan_29_0921	59.99945641056452	1	0.375
14	24	FALSE	NV	a	['M', 'S', 'E', 'J', 'Y', 'A', 'P', 'X', 'B', 'U', 'Z', 'V', 'H', 'W', 'G', 'K']	[1224, 1731, 904, 1029, 2670, 697, 1456, 4000, 760, 2059, 2911, 2245, 986, 2448, 944, 1122]	8	Present	NA	NA	PRESENT	0.30958104133605957	140.65981197357178	142.6661400794983	143.2494812806114	143.5994834263586	146.78030395507812	4.114163875579834	[140.67644810676575, 140.7932469844818, 141.76362705230713, 141.94464492797852, 142.6950559616089, 142.81192708015442, 142.9285969734192, 143.04555797576904, 143.16228008270264, 143.27908611297607, 143.39575290679932, 143.51264595985413, 143.62942910194397, 143.74606704711914, 143.86312699317932, 143.97971510887146, 144.09668493270874, 144.21332001686096, 144.3300380706787, 144.4468710422516, 144.56381702423096, 144.7803030014038]	[140.6764352380745, 140.7931019047345, 141.7761019047345, 141.9428019047345, 142.6928019047345, 142.8094685713945, 142.92613523805448, 143.04280190471448, 143.15946857137448, 143.27613523803447, 143.39280190469447, 143.50946857135446, 143.62613523801446, 143.74280190467445, 143.85946857133445, 143.97613523799444, 144.09280190465444, 144.20946857131443, 144.32613523797443, 144.44280190463442, 144.55946857129442, 144.79280190462774]	2021_Jan_29_0921	59.99945641056452	1	0.375
14	25	FALSE	NV	a	['K', 'P', 'Y', 'R', 'J', 'N', 'C', 'X', 'W', 'B', 'Z', 'G', 'T', 'H', 'U', 'E']	[1122, 1456, 2670, 1587, 1029, 1335, 829, 4000, 2448, 760, 2911, 944, 1888, 986, 2059, 904]	8	Present	NA	NA	PRESENT	0.32282304763793945	146.78268194198608	148.78254294395447	149.36588438348616	149.71588629081478	152.89667105674744	4.114128112792969	[146.79931807518005, 146.91595697402954, 147.87999510765076, 148.06736397743225, 148.81818413734436, 148.91798090934753, 149.03477692604065, 149.1516079902649, 149.26835012435913, 149.3852310180664, 149.50194597244263, 149.6187949180603, 149.73548102378845, 149.85228204727173, 149.96907901763916, 150.0858690738678, 150.20265913009644, 150.3194580078125, 150.43626403808594, 150.5532100200653, 150.66999006271362, 150.89667010307312]	[146.79280190462774, 146.90946857128773, 147.89246857128774, 148.05916857128773, 148.80916857128773, 148.92583523794772, 149.04250190460772, 149.1591685712677, 149.2758352379277, 149.3925019045877, 149.5091685712477, 149.6258352379077, 149.7425019045677, 149.85916857122768, 149.97583523788768, 150.09250190454767, 150.20916857120767, 150.32583523786766, 150.44250190452766, 150.55916857118766, 150.67583523784765, 150.90916857118097]	2021_Jan_29_0921	59.99945641056452	1	0.375
14	26	FALSE	AA	a	['S', 'N', 'E', 'U', 'M', 'W', 'Z', 'surprise', 'R', 'J', 'X', 'H', 'T', 'K', 'C', 'Y']	[1731, 1335, 904, 2059, 1224, 2448, 2911, 'stimAuditory/all_stimAuditory/207.wav', 1587, 1029, 4000, 986, 1888, 1122, 829, 2670]	11	Present	stimAuditory/all_stimAuditory/101.wav	NA	PRESENT	0.35930299758911133	152.8892149925232	154.8991219997406	155.83246343925228	156.18246534658093	159.01303791999817	4.113915920257568	[152.90585207939148, 153.02245497703552, 153.9963619709015, 154.17345690727234, 154.92419290542603, 155.04108309745789, 155.15779900550842, 155.27460503578186, 155.39142608642578, 155.508141040802, 155.62497091293335, 155.74171090126038, 155.85860204696655, 155.9752640724182, 156.0922291278839, 156.20905804634094, 156.32576990127563, 156.44238996505737, 156.55934596061707, 156.67599511146545, 156.792906999588, 157.01303791999817]	[152.90916857118097, 153.02583523784097, 154.00883523784097, 154.17553523784096, 154.92553523784096, 155.04220190450096, 155.15886857116095, 155.27553523782095, 155.39220190448094, 155.50886857114094, 155.62553523780093, 155.74220190446093, 155.85886857112092, 155.97553523778092, 156.0922019044409, 156.2088685711009, 156.3255352377609, 156.4422019044209, 156.5588685710809, 156.6755352377409, 156.79220190440088, 157.0255352377342]	2021_Jan_29_0921	59.99945641056452	1	0.375
14	27	FALSE	NA	a	['W', 'H', 'P', 'Z', 'C', 'T', 'U', 'N', 'X', 'K', 'A', 'R', 'G', 'J', 'B', 'M']	[2448, 986, 1456, 2911, 829, 1888, 2059, 1335, 4000, 1122, 697, 1587, 944, 1029, 760, 1224]	9	Present	NA	NA	PRESENT	0.30800795555114746	159.01200413703918	161.01551699638367	161.71552510257536	162.065527009904	165.12940311431885	4.113886117935181	[159.02864003181458, 159.14514994621277, 160.11272811889648, 160.29642295837402, 161.04720306396484, 161.16393899917603, 161.280925989151, 161.39765000343323, 161.5143461227417, 161.63105702400208, 161.74788308143616, 161.86462211608887, 161.98161506652832, 162.09844708442688, 162.21516704559326, 162.3319969177246, 162.44884490966797, 162.56524205207825, 162.6821050643921, 162.79932808876038, 162.9158580303192, 163.12940311431885]	[159.0255352377342, 159.1422019043942, 160.1252019043942, 160.2919019043942, 161.0419019043942, 161.1585685710542, 161.27523523771418, 161.39190190437418, 161.50856857103417, 161.62523523769417, 161.74190190435417, 161.85856857101416, 161.97523523767416, 162.09190190433415, 162.20856857099415, 162.32523523765414, 162.44190190431414, 162.55856857097413, 162.67523523763413, 162.79190190429412, 162.90856857095412, 163.14190190428744]	2021_Jan_29_0921	59.99945641056452	1	0.375
14	28	FALSE	NV	a	['V', 'U', 'M', 'S', 'J', 'H', 'R', 'N', 'A', 'X', 'T', 'Z', 'C', 'E', 'K', 'B']	[2245, 2059, 1224, 1731, 1029, 986, 1587, 1335, 697, 4000, 1888, 2911, 829, 904, 1122, 760]	10	Present	NA	NA	PRESENT	0.2971668243408203	165.1348249912262	167.13189911842346	167.94857365285657	168.2985757986038	171.24576997756958	4.113870859146118	[165.15146899223328, 165.25136494636536, 166.22909498214722, 166.40260910987854, 167.15326595306396, 167.27026891708374, 167.3868761062622, 167.50393390655518, 167.62058401107788, 167.73744010925293, 167.8541600704193, 167.97073793411255, 168.0877230167389, 168.20432710647583, 168.32130408287048, 168.4381079673767, 168.55489993095398, 168.67161297798157, 168.7885239124298, 168.9050750732422, 169.02207112312317, 169.24576997756958]	[165.14190190428744, 165.25856857094743, 166.24156857094744, 166.40826857094743, 167.15826857094743, 167.27493523760742, 167.39160190426742, 167.5082685709274, 167.6249352375874, 167.7416019042474, 167.8582685709074, 167.9749352375674, 168.0916019042274, 168.20826857088738, 168.32493523754738, 168.44160190420737, 168.55826857086737, 168.67493523752736, 168.79160190418736, 168.90826857084735, 169.02493523750735, 169.25826857084067]	2021_Jan_29_0921	59.99945641056452	1	0.375
14	29	FALSE	AV	a	['J', 'E', 'K', 'Y', 'M', 'A', 'surprise', 'N', 'Z', 'X', 'T', 'S', 'R', 'P', 'V', 'G']	[1029, 904, 1122, 2670, 1224, 697, 'stimAuditory/all_stimAuditory/208.wav', 1335, 2911, 4000, 1888, 1731, 1587, 1456, 2245, 944]	10	Present	stimAuditory/all_stimAuditory/211.wav	NA	PRESENT	0.23776912689208984	171.2408471107483	173.24810099601746	174.06477672254346	174.4147776761978	177.3621380329132	4.114037036895752	[171.25748300552368, 171.37444496154785, 172.3454611301422, 172.52565503120422, 173.2765829563141, 173.39296793937683, 173.50994610786438, 173.6265730857849, 173.74355697631836, 173.860258102417, 173.97718596458435, 174.093985080719, 174.21067094802856, 174.32735204696655, 174.44434213638306, 174.5609769821167, 174.67774105072021, 174.7945101261139, 174.9112310409546, 175.02822399139404, 175.14506602287292, 175.3621370792389]	[171.25826857084067, 171.37493523750067, 172.35793523750067, 172.52463523750066, 173.27463523750066, 173.39130190416066, 173.50796857082065, 173.62463523748065, 173.74130190414064, 173.85796857080064, 173.97463523746063, 174.09130190412063, 174.20796857078062, 174.32463523744062, 174.4413019041006, 174.5579685707606, 174.6746352374206, 174.7913019040806, 174.9079685707406, 175.0246352374006, 175.14130190406058, 175.3746352373939]	2021_Jan_29_0921	59.99945641056452	1	0.375
14	30	FALSE	NN	a	['R', 'N', 'A', 'G', 'V', 'M', 'H', 'S', 'W', 'Y', 'T', 'Z', 'B', 'K', 'C', 'J']	[1587, 1335, 697, 944, 2245, 1224, 986, 1731, 2448, 2670, 1888, 2911, 760, 1122, 829, 1029]	14	Absent	NA	NA	ABSENT	0.3709070682525635	177.36404013633728	179.36466908454895	180.6480102856221	180.9980124313693	183.4785039424896	4.113834857940674	[177.380676984787, 177.4974501132965, 178.46182894706726, 178.6483190059662, 179.3992199897766, 179.5159649848938, 179.63284397125244, 179.74963212013245, 179.86621499061584, 179.9830551147461, 180.0831151008606, 180.1998929977417, 180.3167440891266, 180.43352794647217, 180.55034494400024, 180.66707611083984, 180.78383898735046, 180.90059208869934, 181.01762008666992, 181.13422799110413, 181.25111198425293, 181.47850394248962]	[177.3746352373939, 177.4913019040539, 178.4743019040539, 178.6410019040539, 179.3910019040539, 179.5076685707139, 179.62433523737388, 179.74100190403388, 179.85766857069387, 179.97433523735387, 180.09100190401386, 180.20766857067386, 180.32433523733386, 180.44100190399385, 180.55766857065385, 180.67433523731384, 180.79100190397384, 180.90766857063383, 181.02433523729383, 181.14100190395382, 181.25766857061382, 181.49100190394714]	2021_Jan_29_0921	59.99945641056452	1	0.375
14	31	FALSE	NA	a	['C', 'Z', 'J', 'B', 'S', 'A', 'N', 'U', 'K', 'R', 'X', 'T', 'W', 'Y', 'P', 'G']	[829, 2911, 1029, 760, 1731, 697, 1335, 2059, 1122, 1587, 4000, 1888, 2448, 2670, 1456, 944]	11	Present	NA	NA	PRESENT	0.2717440128326416	183.4703869819641	185.48092412948608	186.4142653305792	186.7642674763264	189.59487009048465	4.113945960998535	[183.4870250225067, 183.60361289978027, 184.57819199562073, 184.75471711158752, 185.50540709495544, 185.62237095832825, 185.73908710479736, 185.8558931350708, 185.97276091575623, 186.08951592445374, 186.2061960697174, 186.3228440284729, 186.43968605995178, 186.556410074234, 186.67347502708435, 186.79014611244202, 186.90707302093506, 187.02364110946655, 187.1403820514679, 187.25735092163086, 187.3741099834442, 187.59487009048462]	[183.49100190394714, 183.60766857060713, 184.59066857060714, 184.75736857060713, 185.50736857060713, 185.62403523726712, 185.74070190392712, 185.8573685705871, 185.9740352372471, 186.0907019039071, 186.2073685705671, 186.3240352372271, 186.4407019038871, 186.55736857054708, 186.67403523720708, 186.79070190386707, 186.90736857052707, 187.02403523718706, 187.14070190384706, 187.25736857050705, 187.37403523716705, 187.60736857050037]	2021_Jan_29_0921	59.99945641056452	1	0.375
14	32	FALSE	NN	a	['W', 'A', 'Y', 'S', 'B', 'Z', 'G', 'M', 'H', 'J', 'K', 'C', 'N', 'U', 'V', 'T']	[2448, 697, 2670, 1731, 760, 2911, 944, 1224, 986, 1029, 1122, 829, 1335, 2059, 2245, 1888]	9	Absent	NA	NA	ABSENT	0.8443219661712646	189.59291410446167	191.5973780155182	192.2973870753842	192.64738898271284	195.71123790740967	4.1138598918914795	[189.60954999923706, 189.72637605667114, 190.69456100463867, 190.8775999546051, 191.6283791065216, 191.7451241016388, 191.8621470928192, 191.97869610786438, 192.0956470966339, 192.21234703063965, 192.32918190956116, 192.44571113586426, 192.5627830028534, 192.67939805984497, 192.79667401313782, 192.9129409790039, 193.02996110916138, 193.14664602279663, 193.26331400871277, 193.38017797470093, 193.49678993225098, 193.71123695373535]	[189.60736857050037, 189.72403523716036, 190.70703523716037, 190.87373523716036, 191.62373523716036, 191.74040190382036, 191.85706857048035, 191.97373523714035, 192.09040190380034, 192.20706857046034, 192.32373523712033, 192.44040190378033, 192.55706857044032, 192.67373523710032, 192.7904019037603, 192.9070685704203, 193.0237352370803, 193.1404019037403, 193.2570685704003, 193.3737352370603, 193.49040190372028, 193.7237352370536]	2021_Jan_29_0921	59.99945641056452	1	0.375
14	33	FALSE	NA	a	['J', 'N', 'C', 'B', 'Z', 'H', 'U', 'T', 'R', 'V', 'K', 'E', 'S', 'X', 'M', 'W']	[1029, 1335, 829, 760, 2911, 986, 2059, 1888, 1587, 2245, 1122, 904, 1731, 4000, 1224, 2448]	14	Present	NA	NA	PRESENT	0.5133390426635742	195.71607303619385	197.71361303329468	198.99695328069348	199.34695542644067	201.82760405540463	4.113991022109985	[195.73270893096924, 195.83246898651123, 196.81092810630798, 196.9837601184845, 197.75131392478943, 197.8515009880066, 197.96800208091736, 198.08485198020935, 198.20183610916138, 198.318519115448, 198.43540000915527, 198.55216312408447, 198.66895413398743, 198.78567910194397, 198.90261507034302, 199.01912212371826, 199.13611602783203, 199.25275206565857, 199.36971592903137, 199.48638200759888, 199.6033580303192, 199.82760190963745]	[195.7237352370536, 195.8404019037136, 196.8234019037136, 196.9901019037136, 197.7401019037136, 197.8567685703736, 197.97343523703358, 198.09010190369358, 198.20676857035357, 198.32343523701357, 198.44010190367356, 198.55676857033356, 198.67343523699356, 198.79010190365355, 198.90676857031355, 199.02343523697354, 199.14010190363354, 199.25676857029353, 199.37343523695353, 199.49010190361352, 199.60676857027352, 199.84010190360684]	2021_Jan_29_0921	59.99945641056452	1	0.375
14	34	FALSE	NV	a	['W', 'R', 'K', 'N', 'A', 'M', 'Y', 'U', 'H', 'T', 'C', 'B', 'V', 'X', 'P', 'J']	[2448, 1587, 1122, 1335, 697, 1224, 2670, 2059, 986, 1888, 829, 760, 2245, 4000, 1456, 1029]	14	Present	NA	NA	PRESENT	0.3500208854675293	201.82209706306455	203.8297619819641	205.1131034214558	205.4631043751101	207.9439709186554	4.114208936691284	[201.83873295783997, 201.95580005645752, 202.92729091644287, 203.10714507102966, 203.85756993293762, 203.97430396080017, 204.09131813049316, 204.20778703689575, 204.32479810714722, 204.44144797325134, 204.55819606781006, 204.6750180721283, 204.79176712036133, 204.9086561203003, 205.02529501914978, 205.14213490486145, 205.25875997543335, 205.3756411075592, 205.4924111366272, 205.60927295684814, 205.72618007659912, 205.9439709186554]	[201.84010190360684, 201.95676857026683, 202.93976857026684, 203.10646857026683, 203.85646857026683, 203.97313523692682, 204.08980190358682, 204.2064685702468, 204.3231352369068, 204.4398019035668, 204.5564685702268, 204.6731352368868, 204.7898019035468, 204.90646857020678, 205.02313523686678, 205.13980190352677, 205.25646857018677, 205.37313523684676, 205.48980190350676, 205.60646857016675, 205.72313523682675, 205.95646857016007]	2021_Jan_29_0921	59.99945641056452	1	0.375
14	35	FALSE	VN	a	['Z', 'K', 'B', 'P', 'W', 'U', 'surprise', 'E', 'C', 'T', 'R', 'H', 'J', 'A', 'Y', 'S']	[2911, 1122, 760, 1456, 2448, 2059, 'stimAuditory/all_stimAuditory/119.wav', 904, 829, 1888, 1587, 986, 1029, 697, 2670, 1731]	10	Absent	NA	NA	ABSENT	0.3954761028289795	207.94524908065796	209.94641995429993	210.7630947271516	211.11309663448023	214.0603380203247	4.11391806602478	[207.96188592910767, 208.07842993736267, 209.04366207122803, 209.22985005378723, 209.98037791252136, 210.09725904464722, 210.21402311325073, 210.33090901374817, 210.44766902923584, 210.5645899772644, 210.68118405342102, 210.79789900779724, 210.9147710800171, 211.0314109325409, 211.14844512939453, 211.2483479976654, 211.3651249408722, 211.48184299468994, 211.59868001937866, 211.71538710594177, 211.83221197128296, 212.0603380203247]	[207.95646857016007, 208.07313523682006, 209.05613523682007, 209.22283523682006, 209.97283523682006, 210.08950190348006, 210.20616857014005, 210.32283523680005, 210.43950190346004, 210.55616857012004, 210.67283523678003, 210.78950190344003, 210.90616857010002, 211.02283523676002, 211.13950190342, 211.25616857008, 211.37283523674, 211.4895019034, 211.60616857006, 211.72283523672, 211.83950190337998, 212.0728352367133]	2021_Jan_29_0921	59.99945641056452	1	0.375
14	36	FALSE	NN	a	['M', 'H', 'P', 'A', 'K', 'R', 'N', 'Z', 'J', 'S', 'B', 'G', 'Y', 'W', 'T', 'E']	[1224, 986, 1456, 697, 1122, 1587, 1335, 2911, 1029, 1731, 760, 944, 2670, 2448, 1888, 904]	14	Absent	NA	NA	ABSENT	0.2799351215362549	214.05161595344543	216.0628399848938	217.3461814243855	217.6961833317141	220.17670392990112	4.113863945007324	[214.06825304031372, 214.18479299545288, 215.16002893447876, 215.33595395088196, 216.08668208122253, 216.20359110832214, 216.3202841281891, 216.43695402145386, 216.55386304855347, 216.67067408561707, 216.78751802444458, 216.9041109085083, 217.02102613449097, 217.13763093948364, 217.2543969154358, 217.3714039325714, 217.48828411102295, 217.6049280166626, 217.72160696983337, 217.83845496177673, 217.95523810386658, 218.1767029762268]	[214.0728352367133, 214.1895019033733, 215.1725019033733, 215.3392019033733, 216.0892019033733, 216.2058685700333, 216.32253523669328, 216.43920190335328, 216.55586857001327, 216.67253523667327, 216.78920190333326, 216.90586856999326, 217.02253523665325, 217.13920190331325, 217.25586856997325, 217.37253523663324, 217.48920190329324, 217.60586856995323, 217.72253523661323, 217.83920190327322, 217.95586856993322, 218.18920190326654]	2021_Jan_29_0921	59.99945641056452	1	0.375
14	37	FALSE	NA	a	['P', 'J', 'N', 'T', 'G', 'M', 'B', 'S', 'X', 'Z', 'R', 'H', 'A', 'E', 'W', 'K']	[1456, 1029, 1335, 1888, 944, 1224, 760, 1731, 4000, 2911, 1587, 986, 697, 904, 2448, 1122]	9	Present	NA	NA	PRESENT	0.28435492515563965	220.17419004440308	222.1792209148407	222.8792290210324	223.22923092836103	226.29307103157043	4.113850116729736	[220.19082593917847, 220.3074610233307, 221.27639412879944, 221.45891308784485, 222.20960211753845, 222.32624697685242, 222.44323301315308, 222.55983710289001, 222.67667603492737, 222.79349398612976, 222.91041493415833, 223.02718997001648, 223.14379405975342, 223.2607719898224, 223.37752413749695, 223.49435210227966, 223.6109471321106, 223.72822213172913, 223.84461092948914, 223.96146512031555, 224.0782859325409, 224.29307007789612]	[220.18920190326654, 220.30586856992653, 221.28886856992654, 221.45556856992653, 222.20556856992653, 222.32223523658652, 222.43890190324652, 222.5555685699065, 222.6722352365665, 222.7889019032265, 222.9055685698865, 223.0222352365465, 223.1389019032065, 223.25556856986648, 223.37223523652648, 223.48890190318647, 223.60556856984647, 223.72223523650646, 223.83890190316646, 223.95556856982645, 224.07223523648645, 224.30556856981977]	2021_Jan_29_0921	59.99945641056452	1	0.375
14	38	FALSE	NN	a	['Z', 'G', 'S', 'R', 'H', 'A', 'E', 'T', 'K', 'U', 'V', 'P', 'N', 'M', 'W', 'B']	[2911, 944, 1731, 1587, 986, 697, 904, 1888, 1122, 2059, 2245, 1456, 1335, 1224, 2448, 760]	14	Absent	NA	NA	ABSENT	0.23391294479370117	226.2972469329834	228.29518604278564	229.57852843595165	229.92853034328027	232.40943813323975	4.114252090454102	[226.31389498710632, 226.43080306053162, 227.39276099205017, 227.5649769306183, 228.33245301246643, 228.4327130317688, 228.54927396774292, 228.6662209033966, 228.78300189971924, 228.89955592155457, 229.01673698425293, 229.13321995735168, 229.25012803077698, 229.36678099632263, 229.483726978302, 229.60039401054382, 229.71738004684448, 229.83388710021973, 229.9509060382843, 230.06752490997314, 230.18445491790771, 230.40943813323975]	[226.30556856981977, 226.42223523647976, 227.40523523647977, 227.57193523647976, 228.32193523647976, 228.43860190313976, 228.55526856979975, 228.67193523645975, 228.78860190311974, 228.90526856977974, 229.02193523643973, 229.13860190309973, 229.25526856975972, 229.37193523641972, 229.4886019030797, 229.6052685697397, 229.7219352363997, 229.8386019030597, 229.9552685697197, 230.0719352363797, 230.18860190303968, 230.421935236373]	2021_Jan_29_0921	59.99945641056452	1	0.375
14	39	FALSE	NA	a	['J', 'V', 'U', 'B', 'K', 'S', 'T', 'C', 'N', 'R', 'W', 'P', 'X', 'E', 'G', 'Z']	[1029, 2245, 2059, 760, 1122, 1731, 1888, 829, 1335, 1587, 2448, 1456, 4000, 904, 944, 2911]	13	Present	NA	NA	PRESENT	0.31824707984924316	232.40336799621585	234.41163301467896	235.57830659541776	235.92830874116495	238.52580404281616	4.114171028137207	[232.4200041294098, 232.53693795204163, 233.50912809371948, 233.68814396858215, 234.4390549659729, 234.55544996261597, 234.67242312431335, 234.78904008865356, 234.90597009658813, 235.02262091636658, 235.1393940448761, 235.2562279701233, 235.3730719089508, 235.48980593681335, 235.60647296905518, 235.72330904006958, 235.84029603004456, 235.95699000358582, 236.07391810417175, 236.19055891036987, 236.3072431087494, 236.52580404281616]	[232.421935236373, 232.538601903033, 233.521601903033, 233.688301903033, 234.438301903033, 234.554968569693, 234.67163523635298, 234.78830190301298, 234.90496856967297, 235.02163523633297, 235.13830190299296, 235.25496856965296, 235.37163523631295, 235.48830190297295, 235.60496856963294, 235.72163523629294, 235.83830190295294, 235.95496856961293, 236.07163523627293, 236.18830190293292, 236.30496856959292, 236.53830190292624]	2021_Jan_29_0921	59.99945641056452	1	0.375
14	40	FALSE	VA	a	['V', 'A', 'T', 'H', 'S', 'G', 'Y', 'K', 'surprise', 'P', 'U', 'X', 'Z', 'M', 'R', 'N']	[2245, 697, 1888, 986, 1731, 944, 2670, 1122, 'stimAuditory/all_stimAuditory/219.wav', 1456, 2059, 4000, 2911, 1224, 1587, 1335]	12	Present	NA	NA	PRESENT	0.2998991012573242	238.52614402770996	240.52802109718323	241.57802896493635	241.92803111068355	244.6421709060669	4.114149808883667	[238.54277992248535, 238.65954899787903, 239.6254940032959, 239.8108320236206, 240.56153512001038, 240.67859601974487, 240.7951021194458, 240.91208410263062, 241.02890992164612, 241.14567613601685, 241.26240992546082, 241.3791539669037, 241.49615907669067, 241.6127951145172, 241.7294569015503, 241.84624004364014, 241.96314311027527, 242.0798261165619, 242.17987298965454, 242.29666996002197, 242.4134349822998, 242.64216995239258]	[238.53830190292624, 238.65496856958623, 239.63796856958623, 239.80466856958623, 240.55466856958623, 240.67133523624622, 240.78800190290622, 240.9046685695662, 241.0213352362262, 241.1380019028862, 241.2546685695462, 241.3713352362062, 241.4880019028662, 241.60466856952618, 241.72133523618618, 241.83800190284617, 241.95466856950617, 242.07133523616616, 242.18800190282616, 242.30466856948615, 242.42133523614615, 242.65466856947947]	2021_Jan_29_0921	59.99945641056452	1	0.375
14	41	FALSE	NN	a	['V', 'B', 'U', 'C', 'Z', 'E', 'S', 'G', 'P', 'A', 'H', 'Y', 'K', 'T', 'W', 'R']	[2245, 760, 2059, 829, 2911, 904, 1731, 944, 1456, 697, 986, 2670, 1122, 1888, 2448, 1587]	13	Absent	NA	NA	ABSENT	0.36820101737976074	244.63285493850708	246.64445900917053	247.8111325899093	248.16113473565653	250.7585370540619	4.114078044891357	[244.64949107170105, 244.76599502563477, 245.7418611049652, 245.91712713241577, 246.667906999588, 246.7846519947052, 246.90137910842896, 247.01826405525208, 247.13507390022278, 247.25171494483948, 247.36854910850525, 247.4852819442749, 247.602313041687, 247.71896600723267, 247.8358509540558, 247.9525969028473, 248.06921696662903, 248.18611001968384, 248.30299496650696, 248.4197289943695, 248.53662610054016, 248.7585370540619]	[244.65466856947947, 244.77133523613946, 245.75433523613947, 245.92103523613946, 246.67103523613946, 246.78770190279945, 246.90436856945945, 247.02103523611945, 247.13770190277944, 247.25436856943944, 247.37103523609943, 247.48770190275943, 247.60436856941942, 247.72103523607942, 247.8377019027394, 247.9543685693994, 248.0710352360594, 248.1877019027194, 248.3043685693794, 248.4210352360394, 248.53770190269938, 248.7710352360327]	2021_Jan_29_0921	59.99945641056452	1	0.375
14	42	FALSE	NN	a	['W', 'C', 'T', 'H', 'P', 'Y', 'B', 'N', 'Z', 'J', 'S', 'R', 'M', 'E', 'V', 'G']	[2448, 829, 1888, 986, 1456, 2670, 760, 1335, 2911, 1029, 1731, 1587, 1224, 904, 2245, 944]	13	Absent	NA	NA	ABSENT	0.26859593391418457	250.75559401512143	252.76096606254575	253.9276405969589	254.2776427427061	256.8749039173126	4.113937854766846	[250.77224111557007, 250.8888020515442, 251.8582260608673, 252.04027104377747, 252.7908639907837, 252.90751099586487, 253.0245659351349, 253.14126110076904, 253.25807690620422, 253.37470412254333, 253.49137806892395, 253.6084020137787, 253.72533011436462, 253.8418619632721, 253.95861196517944, 254.0755491256714, 254.19235396385193, 254.30906200408936, 254.4257140159607, 254.542475938797, 254.65934300422668, 254.87490510940552]	[250.7710352360327, 250.8877019026927, 251.8707019026927, 252.0374019026927, 252.7874019026927, 252.9040685693527, 253.02073523601268, 253.13740190267268, 253.25406856933267, 253.37073523599267, 253.48740190265266, 253.60406856931266, 253.72073523597265, 253.83740190263265, 253.95406856929264, 254.07073523595264, 254.18740190261263, 254.30406856927263, 254.42073523593263, 254.53740190259262, 254.65406856925262, 254.88740190258594]	2021_Jan_29_0921	59.99945641056452	1	0.375
14	43	FALSE	NN	a	['W', 'E', 'H', 'V', 'M', 'Z', 'C', 'Y', 'J', 'T', 'N', 'A', 'P', 'R', 'S', 'K']	[2448, 904, 986, 2245, 1224, 2911, 829, 2670, 1029, 1888, 1335, 697, 1456, 1587, 1731, 1122]	10	Absent	NA	NA	ABSENT	0.39403486251831055	256.8783450126648	258.877149105072	259.6938226858308	260.04382459315946	262.99127101898193	4.114121913909912	[256.8949820995331, 257.01168608665466, 257.97459506988525, 258.1461179256439, 258.9136641025543, 259.01369404792786, 259.1306800842285, 259.2472679615021, 259.3642039299011, 259.48086810112, 259.59783601760864, 259.71435594558716, 259.83133912086487, 259.9480080604553, 260.06496500968933, 260.18156003952026, 260.2985911369324, 260.4152500629425, 260.53195810317993, 260.64885997772217, 260.7655930519104, 260.99127101898193]	[256.8874019025859, 257.00406856924593, 257.98706856924593, 258.1537685692459, 258.9037685692459, 259.02043523590595, 259.137101902566, 259.253768569226, 259.370435235886, 259.48710190254604, 259.60376856920607, 259.7204352358661, 259.8371019025261, 259.95376856918614, 260.07043523584616, 260.1871019025062, 260.3037685691662, 260.42043523582623, 260.53710190248626, 260.6537685691463, 260.7704352358063, 261.00376856913965]	2021_Jan_29_0921	59.99945641056452	1	0.375
14	44	FALSE	NV	a	['A', 'J', 'S', 'N', 'W', 'V', 'M', 'X', 'U', 'H', 'C', 'Y', 'B', 'E', 'Z', 'G']	[697, 1029, 1731, 1335, 2448, 2245, 1224, 4000, 2059, 986, 829, 2670, 760, 904, 2911, 944]	8	Present	NA	NA	PRESENT	0.3025789260864258	262.98456501960754	264.993674993515	265.5770164330467	265.92701929404967	269.1076440811157	4.113969087600708	[263.00120091438293, 263.11788296699524, 264.09096097946167, 264.26947593688965, 265.01993799209595, 265.13678908348083, 265.253564119339, 265.3702299594879, 265.4870910644531, 265.6039340496063, 265.7207989692688, 265.8374171257019, 265.95417499542236, 266.0709180831909, 266.1878559589386, 266.3046679496765, 266.42149090766907, 266.53821897506714, 266.6549119949341, 266.7718300819397, 266.8886330127716, 267.10763692855835]	[263.00376856913965, 263.1204352357997, 264.1034352357997, 264.27013523579967, 265.02013523579967, 265.1368019024597, 265.2534685691197, 265.37013523577974, 265.48680190243977, 265.6034685690998, 265.7201352357598, 265.83680190241984, 265.95346856907986, 266.0701352357399, 266.1868019023999, 266.30346856905993, 266.42013523571995, 266.53680190238, 266.65346856904, 266.7701352357, 266.88680190236005, 267.1201352356934]	2021_Jan_29_0921	59.99945641056452	1	0.375
14	45	FALSE	NN	a	['C', 'J', 'S', 'U', 'K', 'R', 'P', 'G', 'A', 'T', 'W', 'N', 'H', 'V', 'E', 'B']	[829, 1029, 1731, 2059, 1122, 1587, 1456, 944, 697, 1888, 2448, 1335, 986, 2245, 904, 760]	14	Absent	NA	NA	ABSENT	0.3949708938598633	269.10756397247314	271.1100420951843	272.3933842499317	272.74338639567895	275.22400403022766	4.113961935043335	[269.1242001056671, 269.2411720752716, 270.20732712745667, 270.39189410209656, 271.1428771018982, 271.2598009109497, 271.3765490055084, 271.4933249950409, 271.60988092422485, 271.72687292099, 271.84367203712463, 271.9604880809784, 272.07728004455566, 272.1940019130707, 272.31062602996826, 272.4276509284973, 272.54417991638184, 272.6611399650574, 272.7778639793396, 272.89487504959106, 273.0117070674896, 273.224002122879]	[269.1201352356934, 269.2368019023534, 270.2198019023534, 270.3865019023534, 271.1365019023534, 271.25316856901344, 271.36983523567346, 271.4865019023335, 271.6031685689935, 271.71983523565353, 271.83650190231356, 271.9531685689736, 272.0698352356336, 272.1865019022936, 272.30316856895365, 272.4198352356137, 272.5365019022737, 272.6531685689337, 272.76983523559375, 272.88650190225377, 273.0031685689138, 273.23650190224714]	2021_Jan_29_0921	59.99945641056452	1	0.375
14	46	FALSE	NN	a	['K', 'H', 'U', 'T', 'S', 'E', 'B', 'M', 'A', 'V', 'G', 'N', 'C', 'W', 'Y', 'P']	[1122, 986, 2059, 1888, 1731, 904, 760, 1224, 697, 2245, 944, 1335, 829, 2448, 2670, 1456]	9	Absent	NA	NA	ABSENT	0.2565340995788574	275.21389412879944	277.2261049747467	277.9261130809384	278.276114988267	281.340371131897	4.1142661571502686	[275.2305290699005, 275.3473410606384, 276.3236939907074, 276.49843096733093, 277.2490711212158, 277.36585211753845, 277.4828870296478, 277.59945011138916, 277.71639108657837, 277.8329210281372, 277.9500091075897, 278.06665897369385, 278.18337297439575, 278.3001799583435, 278.4168939590454, 278.5337669849396, 278.65057611465454, 278.76732993125916, 278.8841860294342, 279.00086307525635, 279.11768794059753, 279.3403699398041]	[275.23650190224714, 275.35316856890717, 276.33616856890717, 276.50286856890716, 277.25286856890716, 277.3695352355672, 277.4862019022272, 277.60286856888723, 277.71953523554726, 277.8362019022073, 277.9528685688673, 278.0695352355273, 278.18620190218735, 278.3028685688474, 278.4195352355074, 278.5362019021674, 278.65286856882744, 278.76953523548747, 278.8862019021475, 279.0028685688075, 279.11953523546754, 279.3528685688009]	2021_Jan_29_0921	59.99945641056452	1	0.375
14	47	FALSE	NA	a	['C', 'U', 'T', 'E', 'M', 'V', 'S', 'G', 'W', 'R', 'B', 'Y', 'K', 'X', 'A', 'N']	[829, 2059, 1888, 904, 1224, 2245, 1731, 944, 2448, 1587, 760, 2670, 1122, 4000, 697, 1335]	14	Present	NA	NA	NONE	-1	281.33653712272644	283.3428349494934	284.6261763889851	284.9761782963137	287.47630310058594	4.133468151092529	[281.35318398475647, 281.47005009651184, 282.440062046051, 282.6211221218109, 283.3719890117645, 283.4888119697571, 283.60558795928955, 283.72243213653564, 283.83908200263977, 283.95620107650757, 284.07290291786194, 284.1896049976349, 284.30616998672485, 284.42317509651184, 284.53978204727173, 284.6566801071167, 284.773677110672, 284.8902311325073, 285.0071380138397, 285.1240060329437, 285.2406690120697, 285.4567379951477]	[281.3528685688009, 281.4695352354609, 282.4525352354609, 282.6192352354609, 283.3692352354609, 283.48590190212093, 283.60256856878095, 283.719235235441, 283.835901902101, 283.952568568761, 284.06923523542105, 284.18590190208107, 284.3025685687411, 284.4192352354011, 284.53590190206114, 284.65256856872116, 284.7692352353812, 284.8859019020412, 285.00256856870124, 285.11923523536126, 285.2359019020213, 285.46923523535463]	2021_Jan_29_0921	59.99945641056452	1	0.375
14	48	FALSE	NA	a	['B', 'R', 'U', 'J', 'C', 'M', 'N', 'W', 'E', 'K', 'V', 'Y', 'P', 'X', 'H', 'G']	[760, 1587, 2059, 1029, 829, 1224, 1335, 2448, 904, 1122, 2245, 2670, 1456, 4000, 986, 944]	14	Present	NA	NA	PRESENT	0.13827300071716309	287.4761469364166	289.45895409584045	290.74229529691354	291.09229744266077	293.5731029510498	4.114148855209351	[287.4927840232849, 287.5929651260376, 288.5564239025116, 288.7440950870514, 289.4950370788574, 289.5949139595032, 289.7117109298706, 289.8285069465637, 289.94526290893555, 290.0620620250702, 290.17880511283875, 290.2956020832062, 290.412446975708, 290.5293390750885, 290.64597392082214, 290.7629449367523, 290.87957310676575, 290.99649596214294, 291.11326003074646, 291.23015809059143, 291.3467149734497, 291.5731029510498]	[287.46923523535463, 287.58590190201465, 288.56890190201466, 288.73560190201465, 289.48560190201465, 289.6022685686747, 289.7189352353347, 289.8356019019947, 289.95226856865474, 290.06893523531477, 290.1856019019748, 290.3022685686348, 290.41893523529484, 290.53560190195486, 290.6522685686149, 290.7689352352749, 290.88560190193493, 291.00226856859496, 291.118935235255, 291.235601901915, 291.352268568575, 291.5856019019084]	2021_Jan_29_0921	59.99945641056452	1	0.375
14	49	FALSE	VV	a	['H', 'B', 'P', 'S', 'M', 'W', 'surprise', 'E', 'J', 'X', 'C', 'N', 'G', 'A', 'Z', 'U']	[986, 760, 1456, 1731, 1224, 2448, 'stimAuditory/all_stimAuditory/223.wav', 904, 1029, 4000, 829, 1335, 944, 697, 2911, 2059]	10	Present	NA	NA	PRESENT	0.1831378936767578	293.56585907936096	295.57539105415344	296.39206558858655	296.7420677343338	299.6894700527191	4.114078998565674	[293.58249402046204, 293.69922709465027, 294.67279291152954, 294.8508689403534, 295.60117292404175, 295.7180299758911, 295.83485293388367, 295.9515480995178, 296.0684161186218, 296.1851351261139, 296.3020009994507, 296.41866397857666, 296.5354120731354, 296.65236711502075, 296.76893496513367, 296.88593101501465, 297.00265097618103, 297.1194489002228, 297.23610401153564, 297.3529050350189, 297.469829082489, 297.68947100639343]	[293.5856019019084, 293.7022685685684, 294.6852685685684, 294.8519685685684, 295.6019685685684, 295.7186352352284, 295.83530190188844, 295.95196856854847, 296.0686352352085, 296.1853019018685, 296.30196856852854, 296.41863523518856, 296.5353019018486, 296.6519685685086, 296.76863523516863, 296.88530190182865, 297.0019685684887, 297.1186352351487, 297.2353019018087, 297.35196856846875, 297.4686352351288, 297.7019685684621]	2021_Jan_29_0921	59.99945641056452	1	0.375
14	50	FALSE	NA	a	['J', 'U', 'G', 'H', 'A', 'Y', 'B', 'T', 'C', 'M', 'P', 'K', 'V', 'X', 'W', 'S']	[1029, 2059, 944, 986, 697, 2670, 760, 1888, 829, 1224, 1456, 1122, 2245, 4000, 2448, 1731]	14	Present	NA	NA	PRESENT	0.12334990501403809	299.6886291503906	301.6918799877167	302.97522142720834	303.325223334537	305.80583810806274	4.113958120346069	[299.70526599884033, 299.8222029209137, 300.7891619205475, 300.97338008880615, 301.7240569591522, 301.8409309387207, 301.95771503448486, 302.0744309425354, 302.1911880970001, 302.3080859184265, 302.4245479106903, 302.5414869785309, 302.6584439277649, 302.7749500274658, 302.8918011188507, 303.0087809562683, 303.1255669593811, 303.24223494529724, 303.3591139316559, 303.47569608688354, 303.59266805648804, 303.80583691596985]	[299.7019685684621, 299.81863523512214, 300.80163523512215, 300.96833523512214, 301.71833523512214, 301.83500190178216, 301.9516685684422, 302.0683352351022, 302.18500190176223, 302.30166856842226, 302.4183352350823, 302.5350019017423, 302.65166856840233, 302.76833523506235, 302.8850019017224, 303.0016685683824, 303.1183352350424, 303.23500190170245, 303.35166856836247, 303.4683352350225, 303.5850019016825, 303.81833523501587]	2021_Jan_29_0921	59.99945641056452	1	0.375
14	51	FALSE	NV	a	['J', 'W', 'N', 'R', 'P', 'G', 'K', 'Z', 'T', 'S', 'E', 'M', 'X', 'A', 'B', 'V']	[1029, 2448, 1335, 1587, 1456, 944, 1122, 2911, 1888, 1731, 904, 1224, 4000, 697, 760, 2245]	13	Present	NA	NA	PRESENT	0.0806570053100586	305.79493498802185	307.8083040714264	308.9749776521652	309.3249797979124	311.92220306396484	4.113898992538452	[305.8115711212158, 305.92816400527954, 306.9055299758911, 307.07958912849426, 307.83007407188416, 307.94686794281006, 308.06360507011414, 308.18053913116455, 308.2974419593811, 308.4142141342163, 308.53090500831604, 308.6477470397949, 308.76430201530457, 308.8811991214752, 308.9978849887848, 309.1148331165314, 309.2314410209656, 309.3483579158783, 309.4651119709015, 309.58200001716614, 309.69873094558716, 309.92220306396484]	[305.81833523501587, 305.9350019016759, 306.9180019016759, 307.0847019016759, 307.8347019016759, 307.9513685683359, 308.06803523499593, 308.18470190165596, 308.301368568316, 308.418035234976, 308.534701901636, 308.65136856829605, 308.7680352349561, 308.8847019016161, 309.0013685682761, 309.11803523493614, 309.23470190159617, 309.3513685682562, 309.4680352349162, 309.58470190157624, 309.70136856823626, 309.9347019015696]	2021_Jan_29_0921	59.99945641056452	1	0.375
14	52	FALSE	AA	a	['J', 'H', 'M', 'S', 'E', 'G', 'surprise', 'P', 'U', 'X', 'C', 'Y', 'N', 'R', 'K', 'Z']	[1029, 986, 1224, 1731, 904, 944, 'stimAuditory/all_stimAuditory/202.wav', 1456, 2059, 4000, 829, 2670, 1335, 1587, 1122, 2911]	10	Present	stimAuditory/all_stimAuditory/207.wav	NA	PRESENT	0.05320310592651367	311.91756105422974	313.9248330593109	314.7415087858369	315.09151069316556	318.0385711193085	4.113738059997559	[311.93419790267944, 312.05101704597473, 313.02189207077026, 313.2020990848541, 313.9530680179596, 314.0697109699249, 314.1864290237427, 314.30336809158325, 314.4200119972229, 314.53680300712585, 314.6536691188812, 314.7706410884857, 314.8872079849243, 315.00421595573425, 315.12106108665466, 315.2375340461731, 315.35442304611206, 315.4711649417877, 315.58789801597595, 315.7052330970764, 315.8215630054474, 316.0385720729828]	[311.9347019015696, 312.05136856822963, 313.03436856822964, 313.20106856822963, 313.95106856822963, 314.06773523488965, 314.1844019015497, 314.3010685682097, 314.4177352348697, 314.53440190152975, 314.65106856818977, 314.7677352348498, 314.8844019015098, 315.00106856816984, 315.11773523482987, 315.2344019014899, 315.3510685681499, 315.46773523480994, 315.58440190146996, 315.70106856813, 315.81773523479, 316.05106856812336]	2021_Jan_29_0921	59.99945641056452	1	0.375
14	53	FALSE	NV	a	['K', 'J', 'P', 'G', 'A', 'V', 'H', 'M', 'R', 'X', 'S', 'U', 'W', 'E', 'N', 'B']	[1122, 1029, 1456, 944, 697, 2245, 986, 1224, 1587, 4000, 1731, 2059, 2448, 904, 1335, 760]	10	Present	NA	NA	PRESENT	0.18662691116333008	318.0406119823456	320.0407600402832	320.8574348131349	321.20743672046353	324.1549379825592	4.114177942276001	[318.05724811553955, 318.1739959716797, 319.1382601261139, 319.3251030445099, 320.07581400871277, 320.19259309768677, 320.30951499938965, 320.42642998695374, 320.5260829925537, 320.64296293258667, 320.7597529888153, 320.87655901908875, 320.99334812164307, 321.110111951828, 321.2269549369812, 321.34374499320984, 321.4604489803314, 321.5772089958191, 321.69403100013733, 321.81093096733093, 321.9275929927826, 322.1549370288849]	[318.05106856812336, 318.1677352347834, 319.1507352347834, 319.3174352347834, 320.0674352347834, 320.1841019014434, 320.3007685681034, 320.41743523476345, 320.53410190142347, 320.6507685680835, 320.7674352347435, 320.88410190140354, 321.00076856806356, 321.1174352347236, 321.2341019013836, 321.35076856804363, 321.46743523470366, 321.5841019013637, 321.7007685680237, 321.8174352346837, 321.93410190134375, 322.1674352346771]	2021_Jan_29_0921	59.99945641056452	1	0.375
14	54	FALSE	NV	a	['U', 'B', 'R', 'T', 'A', 'V', 'P', 'K', 'S', 'Z', 'X', 'C', 'J', 'W', 'G', 'E']	[2059, 760, 1587, 1888, 697, 2245, 1456, 1122, 1731, 2911, 4000, 829, 1029, 2448, 944, 904]	11	Present	NA	NA	PRESENT	0.35900402069091797	324.1467580795288	326.1571819782257	327.0905234177374	327.440525325066	330.2713041305542	4.114122152328491	[324.1633939743042, 324.2801020145416, 325.254625082016, 325.4311649799347, 326.1821320056915, 326.29887199401855, 326.4154450893402, 326.53248596191406, 326.64901304244995, 326.76593708992004, 326.8825879096985, 326.9995560646057, 327.11613297462463, 327.23308300971985, 327.3497350215912, 327.46664810180664, 327.58342695236206, 327.7002589702606, 327.8171560764313, 327.9338700771332, 328.05047512054443, 328.2713029384613]	[324.1674352346771, 324.2841019013371, 325.2671019013371, 325.4338019013371, 326.1838019013371, 326.30046856799714, 326.41713523465717, 326.5338019013172, 326.6504685679772, 326.76713523463724, 326.88380190129726, 327.0004685679573, 327.1171352346173, 327.23380190127733, 327.35046856793736, 327.4671352345974, 327.5838019012574, 327.7004685679174, 327.81713523457745, 327.9338019012375, 328.0504685678975, 328.28380190123085]	2021_Jan_29_0921	59.99945641056452	1	0.375
14	55	FALSE	VV	a	['S', 'P', 'H', 'U', 'surprise', 'V', 'C', 'X', 'Z', 'Y', 'E', 'W', 'K', 'T', 'N', 'J']	[1731, 1456, 986, 2059, 'stimAuditory/all_stimAuditory/213.wav', 2245, 829, 4000, 2911, 2670, 904, 2448, 1122, 1888, 1335, 1029]	8	Present	NA	NA	PRESENT	0.22764897346496585	330.26943802833557	332.2735540866852	332.856894334124	333.2068964798712	336.3876700401306	4.114115953445435	[330.28607392311096, 330.40297412872314, 331.37099599838257, 331.55408692359924, 332.30474305152893, 332.4217200279236, 332.53830099105835, 332.65504908561707, 332.7720811367035, 332.8889389038086, 333.0055890083313, 333.1221990585327, 333.23914408683777, 333.3559260368347, 333.47273206710815, 333.589369058609, 333.7063159942627, 333.82309794425964, 333.93998312950134, 334.05651092529297, 334.17336797714233, 334.38767099380493]	[330.28380190123085, 330.40046856789087, 331.3834685678909, 331.55016856789086, 332.30016856789086, 332.4168352345509, 332.5335019012109, 332.65016856787094, 332.76683523453096, 332.883501901191, 333.000168567851, 333.11683523451103, 333.23350190117105, 333.3501685678311, 333.4668352344911, 333.5835019011511, 333.70016856781115, 333.81683523447117, 333.9335019011312, 334.0501685677912, 334.16683523445124, 334.4001685677846]	2021_Jan_29_0921	59.99945641056452	1	0.375
14	56	FALSE	NV	a	['T', 'J', 'Y', 'K', 'P', 'S', 'Z', 'G', 'V', 'H', 'X', 'A', 'E', 'R', 'N', 'W']	[1888, 1029, 2670, 1122, 1456, 1731, 2911, 944, 2245, 986, 4000, 697, 904, 1587, 1335, 2448]	11	Present	NA	NA	PRESENT	0.24085593223571777	336.39276099205017	338.38979291915894	339.3231334049963	339.6731353123249	342.50403809547424	4.114245176315308	[336.40939712524414, 336.50898599624634, 337.48736095428467, 337.66002893447876, 338.41087794303894, 338.5278129577637, 338.6444389820099, 338.76118898391724, 338.8781650066376, 338.9949440956116, 339.11176896095276, 339.22857308387756, 339.34517192840576, 339.4621729850769, 339.5787889957428, 339.6956889629364, 339.81228494644165, 339.92928099632263, 340.0459420681, 340.16282510757446, 340.2796449661255, 340.50403809547424]	[336.4001685677846, 336.5168352344446, 337.4998352344446, 337.6665352344446, 338.4165352344446, 338.53320190110463, 338.64986856776466, 338.7665352344247, 338.8832019010847, 338.9998685677447, 339.11653523440475, 339.2332019010648, 339.3498685677248, 339.4665352343848, 339.58320190104484, 339.69986856770487, 339.8165352343649, 339.9332019010249, 340.04986856768494, 340.16653523434496, 340.283201901005, 340.51653523433833]	2021_Jan_29_0921	59.99945641056452	1	0.375
14	57	FALSE	NN	a	['K', 'C', 'B', 'G', 'E', 'R', 'J', 'A', 'Y', 'Z', 'T', 'U', 'P', 'M', 'S', 'N']	[1122, 829, 760, 944, 904, 1587, 1029, 697, 2670, 2911, 1888, 2059, 1456, 1224, 1731, 1335]	11	Absent	NA	NA	ABSENT	0.1894998550415039	342.49854803085327	344.50652599334717	345.43986647918456	345.78986934018747	348.62040305137634	4.113877058029175	[342.51518297195435, 342.6320331096649, 343.603728055954, 343.78304290771484, 344.5338270664215, 344.65064096450806, 344.7673120498657, 344.8841919898987, 345.00108098983765, 345.1178050041199, 345.234610080719, 345.35140109062195, 345.4680759906769, 345.58480501174927, 345.7017021179199, 345.8187749385834, 345.93533205986023, 346.05209708213806, 346.1688349246979, 346.2855861186981, 346.40232706069946, 346.62040305137634]	[342.51653523433833, 342.63320190099836, 343.61620190099836, 343.78290190099835, 344.53290190099835, 344.6495685676584, 344.7662352343184, 344.8829019009784, 344.99956856763845, 345.1162352342985, 345.2329019009585, 345.3495685676185, 345.46623523427854, 345.58290190093857, 345.6995685675986, 345.8162352342586, 345.93290190091864, 346.04956856757866, 346.1662352342387, 346.2829019008987, 346.39956856755873, 346.6329019008921]	2021_Jan_29_0921	59.99945641056452	1	0.375
14	58	FALSE	NA	a	['V', 'W', 'N', 'P', 'T', 'J', 'M', 'X', 'H', 'R', 'Z', 'B', 'G', 'C', 'S', 'A']	[2245, 2448, 1335, 1456, 1888, 1029, 1224, 4000, 986, 1587, 2911, 760, 944, 829, 1731, 697]	8	Present	NA	NA	PRESENT	0.3791260719299317	348.6214280128479	350.62262892723083	351.20597036676253	351.5559722740912	354.7367699146271	4.11414098739624	[348.6380639076233, 348.75481700897217, 349.7200930118561, 349.9060249328613, 350.6566081047058, 350.77348494529724, 350.8903079032898, 351.0071339607239, 351.1237850189209, 351.2405469417572, 351.3573660850525, 351.47404408454895, 351.5910050868988, 351.7075641155243, 351.8244800567627, 351.94124603271484, 352.0412709712982, 352.1580710411072, 352.27483892440796, 352.39165592193604, 352.50842213630676, 352.73676896095276]	[348.6329019008921, 348.7495685675521, 349.7325685675521, 349.8992685675521, 350.6492685675521, 350.7659352342121, 350.88260190087215, 350.99926856753217, 351.1159352341922, 351.2326019008522, 351.34926856751224, 351.46593523417226, 351.5826019008323, 351.6992685674923, 351.81593523415233, 351.93260190081236, 352.0492685674724, 352.1659352341324, 352.28260190079243, 352.39926856745245, 352.5159352341125, 352.7492685674458]	2021_Jan_29_0921	59.99945641056452	1	0.375
14	59	FALSE	NN	a	['J', 'U', 'B', 'H', 'S', 'T', 'R', 'Y', 'E', 'Z', 'W', 'M', 'P', 'K', 'G', 'N']	[1029, 2059, 760, 986, 1731, 1888, 1587, 2670, 904, 2911, 2448, 1224, 1456, 1122, 944, 1335]	12	Absent	NA	NA	ABSENT	0.6311759948730469	354.7274730205536	356.73917508125305	357.78918294900615	358.13918414107906	360.8531379699707	4.113962888717651	[354.744108915329, 354.8609359264374, 355.8364601135254, 356.0123929977417, 356.76281905174255, 356.87958693504333, 356.99647402763367, 357.1132860183716, 357.22995710372925, 357.34686613082886, 357.46348810195923, 357.5803151130676, 357.6971161365509, 357.81393098831177, 357.9307129383087, 358.04750990867615, 358.1641421318054, 358.2810010910034, 358.3976819515228, 358.51450204849243, 358.63150811195374, 358.8531379699707]	[354.7492685674458, 354.86593523410585, 355.84893523410585, 356.01563523410584, 356.76563523410584, 356.88230190076587, 356.9989685674259, 357.1156352340859, 357.23230190074594, 357.34896856740596, 357.465635234066, 357.582301900726, 357.69896856738603, 357.81563523404606, 357.9323019007061, 358.0489685673661, 358.1656352340261, 358.28230190068615, 358.3989685673462, 358.5156352340062, 358.6323019006662, 358.86563523399957]	2021_Jan_29_0921	59.99945641056452	1	0.375
14	60	FALSE	NV	a	['C', 'B', 'P', 'Z', 'A', 'G', 'E', 'M', 'J', 'S', 'U', 'Y', 'N', 'X', 'K', 'V']	[829, 760, 1456, 2911, 697, 944, 904, 1224, 1029, 1731, 2059, 2670, 1335, 4000, 1122, 2245]	14	Present	NA	NA	PRESENT	0.29190802574157715	360.8502759933472	362.85559391975403	364.1389353592457	364.48893726657434	366.9695029258728	4.113909006118774	[360.86691308021545, 360.98386812210083, 361.95282793045044, 362.1350929737091, 362.8857021331787, 363.002564907074, 363.1192169189453, 363.236004114151, 363.35277009010315, 363.4694480895996, 363.58643412590027, 363.7031569480896, 363.8200469017029, 363.9366171360016, 364.0536470413208, 364.1701900959015, 364.28713607788086, 364.40384793281555, 364.52040004730225, 364.6373109817505, 364.7542519569397, 364.96950507164]	[360.86563523399957, 360.9823019006596, 361.9653019006596, 362.1320019006596, 362.8820019006596, 362.9986685673196, 363.11533523397964, 363.23200190063966, 363.3486685672997, 363.4653352339597, 363.58200190061973, 363.69866856727975, 363.8153352339398, 363.9320019005998, 364.0486685672598, 364.16533523391985, 364.28200190057987, 364.3986685672399, 364.5153352338999, 364.63200190055994, 364.74866856721997, 364.9820019005533]	2021_Jan_29_0921	59.99945641056452	1	0.375
14	61	FALSE	NV	a	['P', 'U', 'N', 'G', 'K', 'W', 'M', 'E', 'H', 'Z', 'B', 'J', 'T', 'X', 'V', 'R']	[1456, 2059, 1335, 944, 1122, 2448, 1224, 904, 986, 2911, 760, 1029, 1888, 4000, 2245, 1587]	14	Present	NA	NA	PRESENT	0.1610560417175293	366.97351813316345	368.971862077713	370.2552032787861	370.6052054245333	373.0858700275421	4.114007949829102	[366.99015498161316, 367.10655903816223, 368.0691931247711, 368.2409989833832, 369.0085361003876, 369.1084671020508, 369.22525095939636, 369.342031955719, 369.45905900001526, 369.57577896118164, 369.69253301620483, 369.8093159198761, 369.9259819984436, 370.04297494888306, 370.1595411300659, 370.27654504776, 370.3932180404663, 370.5101680755615, 370.62672901153564, 370.74356412887573, 370.860228061676, 371.0858700275421]	[366.9820019005533, 367.09866856721334, 368.08166856721334, 368.24836856721333, 368.99836856721333, 369.11503523387336, 369.2317019005334, 369.3483685671934, 369.4650352338534, 369.58170190051345, 369.6983685671735, 369.8150352338335, 369.9317019004935, 370.04836856715355, 370.16503523381357, 370.2817019004736, 370.3983685671336, 370.51503523379364, 370.63170190045366, 370.7483685671137, 370.8650352337737, 371.09836856710706]	2021_Jan_29_0921	59.99945641056452	1	0.375
14	62	FALSE	NA	a	['V', 'R', 'S', 'Z', 'G', 'A', 'N', 'W', 'J', 'M', 'E', 'P', 'K', 'X', 'U', 'H']	[2245, 1587, 1731, 2911, 944, 697, 1335, 2448, 1029, 1224, 904, 1456, 1122, 4000, 2059, 986]	14	Present	NA	NA	PRESENT	0.5897231101989746	373.07923913002014	375.0882239341736	376.37156441999093	376.7215663273196	379.20223808288574	4.114014148712158	[373.09587502479553, 373.212858915329, 374.18556213378906, 374.3639850616455, 375.1145920753479, 375.2313280105591, 375.34836411476135, 375.46497893333435, 375.5818181037903, 375.6986300945282, 375.8153910636902, 375.9322769641876, 376.0487859249115, 376.16550612449646, 376.2825040817261, 376.3993020057678, 376.5161530971527, 376.6327290534973, 376.75000405311584, 376.86637711524963, 376.98330903053284, 377.2022371292114]	[373.09836856710706, 373.2150352337671, 374.1980352337671, 374.3647352337671, 375.1147352337671, 375.2314019004271, 375.3480685670871, 375.46473523374715, 375.5814019004072, 375.6980685670672, 375.8147352337272, 375.93140190038724, 376.04806856704727, 376.1647352337073, 376.2814019003673, 376.39806856702734, 376.51473523368736, 376.6314019003474, 376.7480685670074, 376.86473523366743, 376.98140190032746, 377.2147352336608]	2021_Jan_29_0921	59.99945641056452	1	0.375
14	63	FALSE	NV	a	['U', 'A', 'T', 'M', 'P', 'G', 'C', 'X', 'S', 'Z', 'H', 'V', 'Y', 'B', 'K', 'R']	[2059, 697, 1888, 1224, 1456, 944, 829, 4000, 1731, 2911, 986, 2245, 2670, 760, 1122, 1587]	8	Present	NA	NA	PRESENT	0.258281946182251	379.2022969722748	381.2044279575348	381.7877693970665	382.13777130439513	385.31860303878784	4.114175081253052	[379.21893191337585, 379.33561396598816, 380.30192708969116, 380.48662304878235, 381.23751997947693, 381.35487508773804, 381.47111797332764, 381.5877470970154, 381.7046971321106, 381.82145404815674, 381.9383211135864, 382.05504393577576, 382.1718580722809, 382.2884819507599, 382.4055321216583, 382.52197098731995, 382.63878893852234, 382.75569105148315, 382.87258791923523, 382.98926997184753, 383.106153011322, 383.3186020851135]	[379.2147352336608, 379.3314019003208, 380.31440190032083, 380.4811019003208, 381.2311019003208, 381.34776856698085, 381.46443523364087, 381.5811019003009, 381.6977685669609, 381.81443523362094, 381.93110190028096, 382.047768566941, 382.164435233601, 382.28110190026104, 382.39776856692106, 382.5144352335811, 382.6311019002411, 382.74776856690113, 382.86443523356115, 382.9811019002212, 383.0977685668812, 383.33110190021455]	2021_Jan_29_0921	59.99945641056452	1	0.375
14	64	FALSE	NN	a	['M', 'V', 'N', 'G', 'T', 'Z', 'K', 'S', 'R', 'W', 'H', 'B', 'E', 'Y', 'J', 'P']	[1224, 2245, 1335, 944, 1888, 2911, 1122, 1731, 1587, 2448, 986, 760, 904, 2670, 1029, 1456]	9	Absent	NA	NA	ABSENT	0.24763107299804688	385.3082151412964	387.3210489749909	388.02105708118256	388.3710589885111	391.4349710941314	4.113922119140625	[385.32485008239746, 385.44162607192993, 386.41829204559326, 386.59280800819397, 387.34384298324585, 387.46050906181335, 387.5772159099579, 387.6941409111023, 387.81062507629395, 387.9275541305542, 388.04436707496643, 388.1609671115875, 388.27800011634827, 388.3946900367737, 388.5116491317749, 388.6282489299774, 388.7451980113983, 388.8619029521942, 388.97872495651245, 389.0953071117401, 389.212238073349, 389.43497109413147]	[385.33110190021455, 385.4477685668746, 386.4307685668746, 386.59746856687457, 387.34746856687457, 387.4641352335346, 387.5808019001946, 387.69746856685464, 387.81413523351466, 387.9308019001747, 388.0474685668347, 388.16413523349473, 388.28080190015476, 388.3974685668148, 388.5141352334748, 388.6308019001348, 388.74746856679485, 388.8641352334549, 388.9808019001149, 389.0974685667749, 389.21413523343494, 389.4474685667683]	2021_Jan_29_0921	59.99945641056452	1	0.375
14	65	FALSE	NV	a	['B', 'A', 'M', 'E', 'J', 'C', 'W', 'R', 'N', 'Z', 'P', 'X', 'G', 'H', 'K', 'V']	[760, 697, 1224, 904, 1029, 829, 2448, 1587, 1335, 2911, 1456, 4000, 944, 986, 1122, 2245]	12	Present	NA	NA	PRESENT	0.30015993118286133	391.431116104126	393.4371950626374	394.4872029303904	394.837206029812	397.5513379573822	4.114142894744873	[391.44775199890137, 391.56470704078674, 392.5346610546112, 392.7157349586487, 393.466500043869, 393.58340191841125, 393.70009112358093, 393.8167419433594, 393.93376207351685, 394.05036902427673, 394.1673369407654, 394.28398990631104, 394.400671005249, 394.5173590183258, 394.6341760158539, 394.75107407569885, 394.86805605888367, 394.9846611022949, 395.10135293006897, 395.21822810173035, 395.3351049423218, 395.5513370037079]	[391.4474685667683, 391.5641352334283, 392.5471352334283, 392.7138352334283, 393.4638352334283, 393.58050190008834, 393.69716856674836, 393.8138352334084, 393.9305019000684, 394.04716856672843, 394.16383523338845, 394.2805019000485, 394.3971685667085, 394.5138352333685, 394.63050190002855, 394.7471685666886, 394.8638352333486, 394.9805019000086, 395.09716856666864, 395.21383523332867, 395.3305018999887, 395.56383523332204]	2021_Jan_29_0921	59.99945641056452	1	0.375
14	66	FALSE	NN	a	['E', 'Z', 'H', 'V', 'J', 'W', 'R', 'B', 'T', 'G', 'M', 'N', 'U', 'K', 'P', 'Y']	[904, 2911, 986, 2245, 1029, 2448, 1587, 760, 1888, 944, 1224, 1335, 2059, 1122, 1456, 2670]	12	Absent	NA	NA	ABSENT	0.7453269958496094	397.55420994758606	399.5536479949951	400.6036561011668	400.95365800849544	403.6677041053772	4.11405611038208	[397.57084608078003, 397.68736600875854, 398.65103101730347, 398.8384311199188, 399.589378118515, 399.6893129348755, 399.8060600757599, 399.9229140281677, 400.0396430492401, 400.1565079689026, 400.2732949256897, 400.3900399208069, 400.5068950653076, 400.6238250732422, 400.740355014801, 400.8572289943695, 400.9738531112671, 401.0906820297241, 401.20766711235046, 401.32431507110596, 401.4413421154022, 401.6677029132843]	[397.56383523332204, 397.68050189998206, 398.66350189998207, 398.83020189998206, 399.58020189998206, 399.6968685666421, 399.8135352333021, 399.9302018999621, 400.04686856662215, 400.1635352332822, 400.2802018999422, 400.3968685666022, 400.51353523326225, 400.63020189992227, 400.7468685665823, 400.8635352332423, 400.98020189990234, 401.09686856656236, 401.2135352332224, 401.3302018998824, 401.44686856654243, 401.6802018998758]	2021_Jan_29_0921	59.99945641056452	1	0.375
14	67	FALSE	NV	a	['C', 'J', 'M', 'Y', 'S', 'E', 'G', 'H', 'R', 'A', 'W', 'P', 'X', 'V', 'Z', 'N']	[829, 1029, 1224, 2670, 1731, 904, 944, 986, 1587, 697, 2448, 1456, 4000, 2245, 2911, 1335]	13	Present	NA	NA	PRESENT	0.11001181602478027	403.6601679325104	405.670205116272	406.8368786970108	407.1868806043394	409.7840700149536	4.113864898681641	[403.67680311203003, 403.79370403289795, 404.76739406585693, 404.94484305381775, 405.6954839229584, 405.8122079372406, 405.9292540550232, 406.0457091331482, 406.1626100540161, 406.2793929576874, 406.39632391929626, 406.51283502578735, 406.6297779083252, 406.74679708480835, 406.86338996887207, 406.98023891448975, 407.09693002700806, 407.2137670516968, 407.3306109905243, 407.44718408584595, 407.5639810562134, 407.7840700149536]	[403.6802018998758, 403.7968685665358, 404.7798685665358, 404.9465685665358, 405.6965685665358, 405.8132352331958, 405.92990189985585, 406.0465685665159, 406.1632352331759, 406.2799018998359, 406.39656856649594, 406.51323523315597, 406.629901899816, 406.746568566476, 406.86323523313604, 406.97990189979606, 407.0965685664561, 407.2132352331161, 407.32990189977613, 407.44656856643616, 407.5632352330962, 407.7965685664295]	2021_Jan_29_0921	59.99945641056452	1	0.375
14	68	FALSE	NV	a	['A', 'K', 'N', 'R', 'W', 'U', 'Y', 'J', 'B', 'H', 'C', 'V', 'X', 'M', 'P', 'T']	[697, 1122, 1335, 1587, 2448, 2059, 2670, 1029, 760, 986, 829, 2245, 4000, 1224, 1456, 1888]	13	Present	NA	NA	PRESENT	0.2345070838928223	409.78303503990173	411.78618907928467	412.9528636136978	413.302865759445	415.9004371166229	4.114248037338257	[409.79967212677, 409.9162700176239, 410.88376212120056, 411.06775307655334, 411.8183319568634, 411.9351689815521, 412.05206990242004, 412.1686499118805, 412.285551071167, 412.402202129364, 412.51904106140137, 412.63583612442017, 412.7524960041046, 412.8693149089813, 412.9861640930176, 413.1029760837555, 413.2196509838104, 413.3364989757538, 413.4534161090851, 413.5702209472656, 413.6869719028473, 413.90043807029724]	[409.7965685664295, 409.91323523308955, 410.89623523308956, 411.06293523308955, 411.81293523308955, 411.92960189974957, 412.0462685664096, 412.1629352330696, 412.27960189972964, 412.39626856638967, 412.5129352330497, 412.6296018997097, 412.74626856636974, 412.86293523302976, 412.9796018996898, 413.0962685663498, 413.21293523300983, 413.32960189966985, 413.4462685663299, 413.5629352329899, 413.6796018996499, 413.9129352329833]	2021_Jan_29_0921	59.99945641056452	1	0.375
14	69	FALSE	AV	a	['K', 'M', 'A', 'W', 'G', 'B', 'J', 'surprise', 'Z', 'V', 'X', 'Y', 'H', 'P', 'C', 'U']	[1122, 1224, 697, 2448, 944, 760, 1029, 'stimAuditory/all_stimAuditory/201.wav', 2911, 2245, 4000, 2670, 986, 1456, 829, 2059]	11	Present	stimAuditory/all_stimAuditory/208.wav	NA	PRESENT	0.2719109058380127	415.9058940410614	417.90267395973206	418.83601539924376	419.1860173065723	422.01680397987366	4.114130020141602	[415.9225299358368, 416.0224840641022, 417.000128030777, 417.1740770339966, 417.9243221282959, 418.04130506515503, 418.1579930782318, 418.2746810913086, 418.39163303375244, 418.5082790851593, 418.6253159046173, 418.74214696884155, 418.8587529659271, 418.97540402412415, 419.0924849510193, 419.2092230319977, 419.32599997520447, 419.44263911247253, 419.5595610141754, 419.67635798454285, 419.79312801361084, 420.016804933548]	[415.9129352329833, 416.0296018996433, 417.0126018996433, 417.1793018996433, 417.9293018996433, 418.0459685663033, 418.16263523296334, 418.27930189962336, 418.3959685662834, 418.5126352329434, 418.62930189960343, 418.74596856626346, 418.8626352329235, 418.9793018995835, 419.0959685662435, 419.21263523290355, 419.3293018995636, 419.4459685662236, 419.5626352328836, 419.67930189954365, 419.79596856620367, 420.029301899537]	2021_Jan_29_0921	59.99945641056452	1	0.375
14	70	FALSE	NA	a	['A', 'E', 'H', 'B', 'T', 'P', 'J', 'U', 'Z', 'X', 'W', 'Y', 'V', 'N', 'K', 'M']	[697, 904, 986, 760, 1888, 1456, 1029, 2059, 2911, 4000, 2448, 2670, 2245, 1335, 1122, 1224]	10	Present	NA	NA	ABSENT	0.08477902412414551	422.011992931366	424.019140958786	424.8358157316377	425.18581763896634	428.13317108154297	4.114030122756958	[422.02862906455994, 422.1453421115875, 423.1164929866791, 423.2965929508209, 424.0474259853363, 424.1640660762787, 424.28096890449524, 424.39757204055786, 424.51442193984985, 424.6313180923462, 424.7481119632721, 424.8647470474243, 424.98173999786377, 425.09841203689575, 425.21501207351685, 425.33195090293884, 425.44865107536316, 425.5656740665436, 425.6823720932007, 425.7992169857025, 425.9158709049225, 426.13317012786865]	[422.029301899537, 422.14596856619704, 423.12896856619705, 423.29566856619704, 424.04566856619704, 424.16233523285706, 424.2790018995171, 424.3956685661771, 424.51233523283713, 424.62900189949715, 424.7456685661572, 424.8623352328172, 424.9790018994772, 425.09566856613725, 425.2123352327973, 425.3290018994573, 425.4456685661173, 425.56233523277734, 425.67900189943737, 425.7956685660974, 425.9123352327574, 426.14566856609076]	2021_Jan_29_0921	59.99945641056452	1	0.375
14	71	FALSE	NN	a	['H', 'A', 'B', 'S', 'V', 'Z', 'R', 'U', 'K', 'G', 'C', 'W', 'P', 'M', 'T', 'J']	[986, 697, 760, 1731, 2245, 2911, 1587, 2059, 1122, 944, 829, 2448, 1456, 1224, 1888, 1029]	9	Absent	NA	NA	ABSENT	0.12984108924865723	428.13542199134827	430.135509967804	430.83551712032136	431.18551902764995	434.2495379447937	4.114027976989746	[428.15205812454224, 428.2682909965515, 429.2328591346741, 429.4195981025696, 430.17010593414307, 430.28706192970276, 430.403932094574, 430.520546913147, 430.6371350288391, 430.7542119026184, 430.8710699081421, 430.9708180427551, 431.08761191368103, 431.2044141292572, 431.32123613357544, 431.43800711631775, 431.55488204956055, 431.6715290546417, 431.7883200645447, 431.9051229953766, 432.0221390724182, 432.2495369911194]	[428.14566856609076, 428.2623352327508, 429.2453352327508, 429.4120352327508, 430.1620352327508, 430.2787018994108, 430.39536856607083, 430.51203523273085, 430.6287018993909, 430.7453685660509, 430.8620352327109, 430.97870189937095, 431.09536856603097, 431.212035232691, 431.328701899351, 431.44536856601104, 431.56203523267106, 431.6787018993311, 431.7953685659911, 431.91203523265114, 432.02870189931116, 432.2620352326445]	2021_Jan_29_0921	59.99945641056452	1	0.375
14	72	FALSE	NA	a	['E', 'M', 'N', 'Z', 'A', 'W', 'H', 'S', 'X', 'Y', 'J', 'U', 'T', 'P', 'G', 'K']	[904, 1224, 1335, 2911, 697, 2448, 986, 1731, 4000, 2670, 1029, 2059, 1888, 1456, 944, 1122]	9	Present	NA	NA	PRESENT	0.2384490966796875	434.24095010757446	436.25191712379456	436.9519240378934	437.301925945222	440.3659029006958	4.113985776901245	[434.25758600234985, 434.3743939399719, 435.34922790527344, 435.5256459712982, 436.2763159275055, 436.3930160999298, 436.5099980831146, 436.6265881061554, 436.74361991882324, 436.86033391952515, 436.9771671295166, 437.0937840938568, 437.2106659412384, 437.3273799419403, 437.44420099258423, 437.56111001968384, 437.6776831150055, 437.79477405548096, 437.91146898269653, 438.0281069278717, 438.14503598213196, 438.3659029006958]	[434.2620352326445, 434.37870189930453, 435.36170189930453, 435.5284018993045, 436.2784018993045, 436.39506856596455, 436.5117352326246, 436.6284018992846, 436.7450685659446, 436.86173523260464, 436.97840189926467, 437.0950685659247, 437.2117352325847, 437.32840189924474, 437.44506856590476, 437.5617352325648, 437.6784018992248, 437.79506856588483, 437.91173523254486, 438.0284018992049, 438.1450685658649, 438.37840189919825]	2021_Jan_29_0921	59.99945641056452	1	0.375
14	73	FALSE	NA	a	['S', 'K', 'U', 'H', 'A', 'P', 'R', 'M', 'X', 'J', 'B', 'Y', 'N', 'Z', 'W', 'G']	[1731, 1122, 2059, 986, 697, 1456, 1587, 1224, 4000, 1029, 760, 2670, 1335, 2911, 2448, 944]	9	Present	NA	NA	PRESENT	0.2829580307006836	440.3639380931854	442.36808013916016	443.068087053259	443.4180889605876	446.48227095603943	4.1141908168792725	[440.38057494163513, 440.4972059726715, 441.46559405326843, 441.6486029624939, 442.3992221355438, 442.51582407951355, 442.6328570842743, 442.7495129108429, 442.86644291877747, 442.9832091331482, 443.09980607032776, 443.2168860435486, 443.3334729671478, 443.4502980709076, 443.56683111190796, 443.683865070343, 443.8004810810089, 443.9174211025238, 444.03426003456116, 444.1510491371155, 444.26770401000977, 444.48227190971375]	[440.37840189919825, 440.4950685658583, 441.4780685658583, 441.64476856585827, 442.39476856585827, 442.5114352325183, 442.6281018991783, 442.74476856583834, 442.86143523249837, 442.9781018991584, 443.0947685658184, 443.21143523247844, 443.32810189913846, 443.4447685657985, 443.5614352324585, 443.67810189911853, 443.79476856577855, 443.9114352324386, 444.0281018990986, 444.1447685657586, 444.26143523241865, 444.494768565752]	2021_Jan_29_0921	59.99945641056452	1	0.375
14	74	FALSE	NV	a	['U', 'C', 'A', 'K', 'B', 'V', 'T', 'R', 'X', 'N', 'H', 'W', 'E', 'Z', 'J', 'Y']	[2059, 829, 697, 1122, 760, 2245, 1888, 1587, 4000, 1335, 986, 2448, 904, 2911, 1029, 2670]	9	Present	NA	NA	PRESENT	0.2080328464508057	446.48667192459106	448.48482608795166	449.1848339557248	449.534836101472	452.5986371040344	4.113811016082764	[446.50330805778503, 446.61990213394165, 447.58195996284485, 447.7547330856323, 448.5222170352936, 448.6223089694977, 448.73894691467285, 448.8557131290436, 448.97257113456726, 449.08911204338074, 449.20611691474915, 449.32279992103577, 449.43967509269714, 449.5563359260559, 449.67327094078064, 449.78982400894165, 449.9068179130554, 450.0234580039978, 450.1403510570526, 450.25713205337524, 450.37380599975586, 450.5986371040344]	[446.494768565752, 446.611435232412, 447.594435232412, 447.761135232412, 448.511135232412, 448.62780189907204, 448.74446856573206, 448.8611352323921, 448.9778018990521, 449.09446856571213, 449.21113523237216, 449.3278018990322, 449.4444685656922, 449.5611352323522, 449.67780189901225, 449.7944685656723, 449.9111352323323, 450.0278018989923, 450.14446856565235, 450.26113523231237, 450.3778018989724, 450.61113523230574]	2021_Jan_29_0921	59.99945641056452	1	0.375
14	75	FALSE	AA	a	['U', 'C', 'T', 'Y', 'R', 'W', 'J', 'K', 'P', 'V', 'surprise', 'H', 'A', 'X', 'M', 'B']	[2059, 829, 1888, 2670, 1587, 2448, 1029, 1122, 1456, 2245, 'stimAuditory/all_stimAuditory/117.wav', 986, 697, 4000, 1224, 760]	14	Present	stimAuditory/all_stimAuditory/119.wav	NA	ABSENT	1.0366089344024658	452.59282207489014	454.60112500190735	455.8844673950734	456.234469302402	458.7150039672851	4.113878965377808	[452.6094579696655, 452.7261860370636, 453.69832491874695, 453.8774371147156, 454.62827491760254, 454.74501299858093, 454.86185908317566, 454.97860312461853, 455.0952479839325, 455.21214413642883, 455.3288960456848, 455.44559812545776, 455.5623531341553, 455.6792550086975, 455.7962191104889, 455.9128370285034, 456.02956104278564, 456.1464750766754, 456.2631540298462, 456.37997913360596, 456.4968659877777, 456.71500301361084]	[452.61113523230574, 452.72780189896577, 453.71080189896577, 453.87750189896576, 454.62750189896576, 454.7441685656258, 454.8608352322858, 454.97750189894583, 455.09416856560586, 455.2108352322659, 455.3275018989259, 455.4441685655859, 455.56083523224595, 455.677501898906, 455.794168565566, 455.910835232226, 456.02750189888604, 456.14416856554607, 456.2608352322061, 456.3775018988661, 456.49416856552614, 456.7275018988595]	2021_Jan_29_0921	59.99945641056452	1	0.375
14	76	FALSE	NA	a	['G', 'N', 'J', 'H', 'P', 'M', 'A', 'U', 'T', 'C', 'R', 'B', 'E', 'X', 'W', 'Y']	[944, 1335, 1029, 986, 1456, 1224, 697, 2059, 1888, 829, 1587, 760, 904, 4000, 2448, 2670]	14	Present	NA	NA	PRESENT	0.2101571559906006	458.7158169746399	460.7172329425812	462.0005743820728	462.3505762894015	464.83137106895447	4.114138126373291	[458.73245310783386, 458.8493309020996, 459.8146929740906, 460.00017189979553, 460.75103092193604, 460.86785411834717, 460.98466897010803, 461.10158705711365, 461.21836590766907, 461.335086107254, 461.45185804367065, 461.5685739517212, 461.6854169368744, 461.802020072937, 461.91885209083557, 462.0356991291046, 462.15239906311035, 462.2691159248352, 462.38598895072937, 462.486083984375, 462.60278391838074, 462.83137011528015]	[458.7275018988595, 458.8441685655195, 459.8271685655195, 459.9938685655195, 460.7438685655195, 460.86053523217953, 460.97720189883955, 461.0938685654996, 461.2105352321596, 461.3272018988196, 461.44386856547965, 461.56053523213967, 461.6772018987997, 461.7938685654597, 461.91053523211974, 462.02720189877977, 462.1438685654398, 462.2605352320998, 462.37720189875984, 462.49386856541986, 462.6105352320799, 462.84386856541323]	2021_Jan_29_0921	59.99945641056452	1	0.375
14	77	FALSE	NV	a	['G', 'J', 'N', 'T', 'A', 'Z', 'U', 'B', 'W', 'V', 'X', 'E', 'Y', 'H', 'C', 'S']	[944, 1029, 1335, 1888, 697, 2911, 2059, 760, 2448, 2245, 4000, 904, 2670, 986, 829, 1731]	11	Present	NA	NA	PRESENT	0.03060483932495117	464.8217360973358	466.8337481021881	467.7670893032813	468.1170914490284	470.9477369785309	4.113988876342773	[464.8383741378784, 464.95532512664795, 465.9310600757599, 466.10645294189453, 466.85709595680237, 466.97385907173157, 467.0908601284027, 467.20746994018555, 467.3245129585266, 467.44106006622314, 467.55784797668457, 467.6747500896454, 467.7919409275055, 467.90829205513, 468.0251169204712, 468.14181995391846, 468.25851798057556, 468.375461101532, 468.4920780658722, 468.6089811325073, 468.7258720397949, 468.9477379322052]	[464.84386856541323, 464.96053523207325, 465.94353523207326, 466.11023523207325, 466.86023523207325, 466.9769018987333, 467.0935685653933, 467.2102352320533, 467.32690189871334, 467.44356856537337, 467.5602352320334, 467.6769018986934, 467.79356856535344, 467.91023523201346, 468.0269018986735, 468.1435685653335, 468.26023523199353, 468.37690189865356, 468.4935685653136, 468.6102352319736, 468.7269018986336, 468.960235231967]	2021_Jan_29_0921	59.99945641056452	1	0.375
14	78	FALSE	NN	a	['B', 'H', 'R', 'C', 'E', 'S', 'V', 'N', 'K', 'G', 'A', 'T', 'Z', 'J', 'M', 'W']	[760, 986, 1587, 829, 904, 1731, 2245, 1335, 1122, 944, 697, 1888, 2911, 1029, 1224, 2448]	13	Absent	NA	NA	ABSENT	0.4029161930084229	470.9448170661926	472.9498610496521	474.1165346303909	474.4665367761381	477.0641040802002	4.114243030548096	[470.961452960968, 471.07811403274536, 472.0474281311035, 472.2292869091034, 472.98014402389526, 473.0968780517578, 473.2136039733887, 473.33042192459106, 473.44733905792236, 473.5641839504242, 473.68085503578186, 473.79760909080505, 473.9142429828644, 474.03124594688416, 474.1478979587555, 474.26470613479614, 474.3815441131592, 474.4983320236206, 474.61499094963074, 474.73187804222107, 474.84873604774475, 475.0641031265259]	[470.960235231967, 471.076901898627, 472.059901898627, 472.226601898627, 472.976601898627, 473.093268565287, 473.20993523194704, 473.32660189860707, 473.4432685652671, 473.5599352319271, 473.67660189858714, 473.79326856524716, 473.9099352319072, 474.0266018985672, 474.14326856522723, 474.25993523188725, 474.3766018985473, 474.4932685652073, 474.6099352318673, 474.72660189852735, 474.8432685651874, 475.0766018985207]	2021_Jan_29_0921	59.99945641056452	1	0.375
14	79	FALSE	NA	a	['S', 'Y', 'M', 'U', 'C', 'H', 'R', 'J', 'B', 'E', 'N', 'G', 'T', 'X', 'K', 'Z']	[1731, 2670, 1224, 2059, 829, 986, 1587, 1029, 760, 904, 1335, 944, 1888, 4000, 1122, 2911]	14	Present	NA	NA	PRESENT	0.7762830257415771	477.0676929950714	479.06657099723816	480.3499124367298	480.69991434405847	483.1804699897766	4.113898992538452	[477.0843291282654, 477.2008991241455, 478.1637930870056, 478.3355829715729, 479.10296511650085, 479.2030520439148, 479.3196790218353, 479.4364719390869, 479.5534749031067, 479.67001605033875, 479.7869760990143, 479.9038190841675, 480.0205330848694, 480.13717103004456, 480.25394010543823, 480.37074995040894, 480.4875319004059, 480.60440707206726, 480.72110295295715, 480.83804392814636, 480.954705953598, 481.1804699897766]	[477.0766018985207, 477.19326856518074, 478.17626856518075, 478.34296856518074, 479.09296856518074, 479.20963523184076, 479.3263018985008, 479.4429685651608, 479.55963523182083, 479.67630189848086, 479.7929685651409, 479.9096352318009, 480.02630189846093, 480.14296856512095, 480.259635231781, 480.376301898441, 480.492968565101, 480.60963523176105, 480.72630189842107, 480.8429685650811, 480.9596352317411, 481.19296856507447]	2021_Jan_29_0921	59.99945641056452	1	0.375
