participant	trial_num	practice	task	condition	RSVP	RAP	probePos	probe_presence	surprise_sound	surprise_img	probe_response	probe_resp_time	first_fixation_time	trial_start_time	surprise_start_time	probe_start_time	trial_end_time	trial_duration	actualEventTimes	plannedEventTimes	date	framerate	marker_vol	RAP_vol
24	1	FALSE	NA	v	['J', 'T', 'S', 'K', 'V', 'R', 'B', 'Z', 'Y', 'X', 'E', 'C', 'A', 'P', 'W', 'G']	[1029, 1888, 1731, 1122, 2245, 1587, 760, 2911, 2670, 4000, 904, 829, 697, 1456, 2448, 944]	10	Present	NA	NA	PRESENT	0.1059701442718506	1.9073486328125e-6	1.9896509647369385	2.8042221069335938	3.154289960861206	6.103869915008545	4.1142189502716064	[0.02034902572631836, 0.12014198303222656, 1.1049449443817139, 1.2713429927825928, 2.02219295501709, 2.1390669345855713, 2.2559280395507812, 2.3725991249084473, 2.489548921585083, 2.6063930988311768, 2.7228810787200928, 2.83976411819458, 2.956717014312744, 3.073322057723999, 3.190290927886963, 3.306939125061035, 3.4237101078033447, 3.540405035018921, 3.6572020053863525, 3.7741858959198, 3.8908140659332275, 4.1038689613342285]	[9.5367431640625e-07, 0.11666762034098306, 1.099667620340983, 1.266367620340983, 2.016367620340983, 2.1330342870076495, 2.249700953674316, 2.366367620340983, 2.4830342870076496, 2.5997009536743163, 2.716367620340983, 2.8330342870076497, 2.9497009536743164, 3.066367620340983, 3.18303428700765, 3.2997009536743165, 3.416367620340983, 3.53303428700765, 3.6497009536743166, 3.7663676203409833, 3.88303428700765, 4.116367620340983]	2021_Feb_04_1551	59.85270509196299	1	1
24	2	FALSE	NV	v	['N', 'C', 'Z', 'E', 'R', 'G', 'J', 'U', 'V', 'X', 'Y', 'W', 'T', 'A', 'H', 'K']	[1335, 829, 2911, 904, 1587, 944, 1029, 2059, 2245, 4000, 2670, 2448, 1888, 697, 986, 1122]	10	Present	NA	NA	PRESENT	0.2235710620880127	6.106223106384277	8.102679014205933	8.920743942260742	9.269500017166138	12.22023606300354	4.117557048797607	[6.126569986343384, 6.24326491355896, 7.211106061935425, 7.378025054931641, 8.145423889160156, 8.24538803100586, 8.362203121185303, 8.479001998901367, 8.595797061920166, 8.712615966796875, 8.829521894454956, 8.946186065673828, 9.063194036483765, 9.179944038391113, 9.296688079833984, 9.413474082946777, 9.530344009399414, 9.646791934967041, 9.763638973236084, 9.880479097366333, 9.997386932373047, 10.22023606300354]	[6.116367620340983, 6.23303428700765, 7.216034287007649, 7.382734287007649, 8.132734287007649, 8.249400953674316, 8.366067620340983, 8.48273428700765, 8.599400953674317, 8.716067620340985, 8.832734287007652, 8.949400953674319, 9.066067620340986, 9.182734287007653, 9.29940095367432, 9.416067620340987, 9.532734287007655, 9.649400953674322, 9.766067620340989, 9.882734287007656, 9.999400953674323, 10.232734287007656]	2021_Feb_04_1551	59.85270509196299	1	1
24	3	FALSE	NV	v	['E', 'G', 'U', 'A', 'K', 'H', 'S', 'P', 'N', 'C', 'R', 'V', 'B', 'X', 'Z', 'Y']	[904, 944, 2059, 697, 1122, 986, 1731, 1456, 1335, 829, 1587, 2245, 760, 4000, 2911, 2670]	14	Present	NA	NA	PRESENT	0.32414793968200684	12.212759971618652	14.218888998031616	15.502681016921995	15.852605104446411	18.336602926254272	4.117713928222656	[12.233118057250977, 12.349967002868652, 13.334475994110107, 13.501097917556763, 14.251917123794556, 14.368678092956543, 14.485642910003662, 14.602422952651978, 14.719214916229248, 14.835817098617554, 14.95254397392273, 15.069479942321777, 15.186363935470581, 15.30305004119873, 15.41994595527649, 15.536689043045044, 15.653443098068237, 15.770145893096924, 15.886914014816284, 16.00389289855957, 16.12044095993042, 16.336602926254272]	[12.232734287007656, 12.349400953674323, 13.332400953674323, 13.499100953674324, 14.249100953674324, 14.365767620340991, 14.482434287007658, 14.599100953674325, 14.715767620340992, 14.83243428700766, 14.949100953674327, 15.065767620340994, 15.182434287007661, 15.299100953674328, 15.415767620340995, 15.532434287007662, 15.64910095367433, 15.765767620340997, 15.882434287007664, 15.999100953674331, 16.115767620340996, 16.34910095367433]	2021_Feb_04_1551	59.85270509196299	1	1
24	4	FALSE	NA	v	['P', 'C', 'R', 'U', 'W', 'H', 'Z', 'J', 'G', 'N', 'X', 'S', 'T', 'V', 'B', 'K']	[1456, 829, 1587, 2059, 2448, 986, 2911, 1029, 944, 1335, 4000, 1731, 1888, 2245, 760, 1122]	11	Present	NA	NA	PRESENT	0.449213981628418	18.335855960845947	20.33537197113037	21.268996000289917	21.619163036346436	24.452970027923584	4.117598056793213	[18.356203079223633, 18.473088026046753, 19.45756506919861, 19.624423027038574, 20.375370025634766, 20.491946935653687, 20.60879611968994, 20.725687980651855, 20.84240412712097, 20.959043979644775, 21.075988054275513, 21.19270396232605, 21.30939793586731, 21.426249980926514, 21.543169021606445, 21.659931898117065, 21.77671504020691, 21.893434047698975, 22.010720014572144, 22.126866102218628, 22.227092027664185, 22.452969074249268]	[18.34910095367433, 18.465767620340998, 19.448767620341, 19.615467620340997, 20.365467620340997, 20.482134287007664, 20.59880095367433, 20.715467620341, 20.832134287007666, 20.948800953674333, 21.065467620341, 21.182134287007667, 21.298800953674334, 21.415467620341, 21.53213428700767, 21.648800953674336, 21.765467620341003, 21.88213428700767, 21.998800953674337, 22.115467620341004, 22.23213428700767, 22.465467620341006]	2021_Feb_04_1551	59.85270509196299	1	1
24	5	FALSE	VV	v	['K', 'W', 'M', 'H', 'T', 'V', 'surprise', 'B', 'C', 'X', 'N', 'P', 'S', 'Z', 'Y', 'J']	[1122, 2448, 1224, 986, 1888, 2245, 'stimAuditory/all_stimAuditory/108.wav', 760, 829, 4000, 1335, 1456, 1731, 2911, 2670, 1029]	10	Present	NA	stimVisual/all_stimVisual/216.jpg	ABSENT	0.30185794830322266	24.442382097244263	26.451622009277344	27.269062995910645	27.61884903907776	30.569336891174316	4.117714881896973	[24.46272897720337, 24.579478979110718, 25.564064979553223, 25.730947017669678, 26.481544971466064, 26.598303079605103, 26.715330123901367, 26.832047939300537, 26.948945999145508, 27.065460920333862, 27.199064016342163, 27.299139976501465, 27.415910959243774, 27.53264307975769, 27.64969491958618, 27.766366958618164, 27.883203983306885, 27.99988603591919, 28.116509914398193, 28.23351502418518, 28.35015106201172, 28.569338083267212]	[24.465467620341006, 24.582134287007673, 25.565134287007673, 25.731834287007672, 26.481834287007672, 26.59850095367434, 26.715167620341006, 26.831834287007673, 26.94850095367434, 27.065167620341008, 27.181834287007675, 27.298500953674342, 27.41516762034101, 27.531834287007676, 27.648500953674343, 27.76516762034101, 27.881834287007678, 27.998500953674345, 28.115167620341012, 28.23183428700768, 28.348500953674346, 28.58183428700768]	2021_Feb_04_1551	59.85270509196299	1	1
24	6	FALSE	NV	v	['U', 'J', 'V', 'M', 'W', 'E', 'Y', 'A', 'S', 'P', 'B', 'X', 'T', 'C', 'G', 'N']	[2059, 1029, 2245, 1224, 2448, 904, 2670, 697, 1731, 1456, 760, 4000, 1888, 829, 944, 1335]	12	Present	NA	NA	PRESENT	0.227431058883667	30.566092014312744	32.568291902542114	33.61871790885925	33.96842098236084	36.68570399284363	4.117412090301514	[30.586437940597534, 30.702718019485474, 31.68725609779358, 31.85416007041931, 32.60484504699707, 32.72167205810547, 32.838512897491455, 32.95511293411255, 33.0719211101532, 33.18886995315552, 33.30550289154053, 33.422423124313354, 33.53912901878357, 33.65585207939148, 33.77282905578613, 33.889626026153564, 34.00640511512756, 34.12311291694641, 34.23989510536194, 34.3567430973053, 34.47351002693176, 34.685704946517944]	[30.58183428700768, 30.698500953674348, 31.681500953674348, 31.848200953674347, 32.59820095367435, 32.71486762034102, 32.831534287007685, 32.94820095367435, 33.06486762034102, 33.181534287007686, 33.29820095367435, 33.41486762034102, 33.53153428700769, 33.648200953674355, 33.76486762034102, 33.88153428700769, 33.998200953674356, 34.11486762034102, 34.23153428700769, 34.34820095367436, 34.464867620341025, 34.69820095367436]	2021_Feb_04_1551	59.85270509196299	1	1
24	7	FALSE	NN	v	['V', 'N', 'H', 'S', 'E', 'P', 'B', 'U', 'Z', 'M', 'A', 'Y', 'R', 'J', 'G', 'C']	[2245, 1335, 986, 1731, 904, 1456, 760, 2059, 2911, 1224, 697, 2670, 1587, 1029, 944, 829]	11	Absent	NA	NA	ABSENT	0.35956287384033203	36.67212200164795	38.68455195426941	39.61801791191101	39.96847891807556	42.80206990242005	4.117517948150635	[36.69246792793274, 36.80936789512634, 37.793747901916504, 37.96058702468872, 38.727941036224365, 38.82801008224487, 38.94487500190735, 39.06174612045288, 39.17857503890991, 39.29517197608948, 39.41222405433655, 39.52882695198059, 39.64564490318298, 39.76255393028259, 39.87929105758667, 39.99613308906555, 40.112958908081055, 40.229597091674805, 40.346681118011475, 40.46312189102173, 40.58006811141968, 40.80206894874573]	[36.69820095367436, 36.814867620341026, 37.79786762034102, 37.96456762034102, 38.71456762034102, 38.83123428700769, 38.947900953674356, 39.06456762034102, 39.18123428700769, 39.29790095367436, 39.414567620341025, 39.53123428700769, 39.64790095367436, 39.764567620341026, 39.88123428700769, 39.99790095367436, 40.11456762034103, 40.231234287007695, 40.34790095367436, 40.46456762034103, 40.581234287007696, 40.81456762034103]	2021_Feb_04_1551	59.85270509196299	1	1
24	8	FALSE	NV	v	['C', 'R', 'W', 'H', 'V', 'E', 'Y', 'M', 'A', 'Z', 'G', 'X', 'N', 'P', 'U', 'K']	[829, 1587, 2448, 986, 2245, 904, 2670, 1224, 697, 2911, 944, 4000, 1335, 1456, 2059, 1122]	12	Present	NA	NA	PRESENT	0.19633913040161133	42.79538106918335	44.801023960113525	45.85115694999695	46.20126295089722	48.91843605041504	4.117412090301514	[42.81572699546814, 42.932668924331665, 43.91690802574158, 44.08384299278259, 44.834486961364746, 44.95131492614746, 45.06826090812683, 45.1848030090332, 45.30175995826721, 45.418550968170166, 45.53528094291687, 45.651901960372925, 45.76865196228027, 45.88544797897339, 46.00242590904236, 46.11911106109619, 46.23618698120117, 46.35288596153259, 46.469494104385376, 46.58649802207947, 46.70301294326782, 46.918437004089355]	[42.81456762034103, 42.9312342870077, 43.914234287007694, 44.08093428700769, 44.83093428700769, 44.94760095367436, 45.06426762034103, 45.180934287007695, 45.29760095367436, 45.41426762034103, 45.530934287007696, 45.64760095367436, 45.76426762034103, 45.8809342870077, 45.997600953674365, 46.11426762034103, 46.2309342870077, 46.347600953674366, 46.46426762034103, 46.5809342870077, 46.69760095367437, 46.9309342870077]	2021_Feb_04_1551	59.85270509196299	1	1
24	9	FALSE	VA	v	['E', 'N', 'J', 'K', 'surprise', 'A', 'M', 'X', 'U', 'V', 'H', 'P', 'C', 'T', 'G', 'W']	[904, 1335, 1029, 1122, 'stimAuditory/all_stimAuditory/115.wav', 697, 1224, 4000, 2059, 2245, 986, 1456, 829, 1888, 944, 2448]	8	Present	NA	stimVisual/all_stimVisual/100.jpg	ABSENT	0.16157293319702148	48.918606996536255	50.91722798347473	51.50092101097107	51.85097002983093	55.03480291366577	4.11757493019104	[48.93895196914673, 49.05567193031311, 50.02334189414978, 50.19016909599304, 50.958029985427856, 51.0746591091156, 51.19142293930054, 51.308022022247314, 51.40800595283508, 51.54159688949585, 51.658401012420654, 51.775245904922485, 51.892000913619995, 52.00915503501892, 52.108839988708496, 52.22566199302673, 52.34241795539856, 52.45925307273865, 52.57598805427551, 52.69270992279053, 52.80981206893921, 53.03480291366577]	[48.9309342870077, 49.04760095367437, 50.030600953674366, 50.197300953674365, 50.947300953674365, 51.06396762034103, 51.1806342870077, 51.297300953674366, 51.41396762034103, 51.5306342870077, 51.64730095367437, 51.763967620341035, 51.8806342870077, 51.99730095367437, 52.113967620341036, 52.2306342870077, 52.34730095367437, 52.46396762034104, 52.580634287007705, 52.69730095367437, 52.81396762034104, 53.04730095367437]	2021_Feb_04_1551	59.85270509196299	1	1
24	10	FALSE	NV	v	['N', 'S', 'W', 'Z', 'H', 'V', 'E', 'X', 'A', 'Y', 'P', 'M', 'T', 'K', 'G', 'R']	[1335, 1731, 2448, 2911, 986, 2245, 904, 4000, 697, 2670, 1456, 1224, 1888, 1122, 944, 1587]	8	Present	NA	NA	PRESENT	0.3820269107818603	55.02503609657288	57.03357195854187	57.61712694168091	57.967222929000854	61.15117001533508	4.117598056793213	[55.045382022857666, 55.16222310066223, 56.14660596847534, 56.313525915145874, 57.06413197517395, 57.180903911590576, 57.297796964645386, 57.41452097892761, 57.53120303153992, 57.648268938064575, 57.76510691642761, 57.881649017333984, 57.998697996139526, 58.11531209945679, 58.23224711418152, 58.34885811805725, 58.465811014175415, 58.58257293701172, 58.699233055114746, 58.81612706184387, 58.932629108428955, 59.1511709690094]	[55.04730095367437, 55.16396762034104, 56.14696762034104, 56.313667620341036, 57.063667620341036, 57.1803342870077, 57.29700095367437, 57.41366762034104, 57.530334287007705, 57.64700095367437, 57.76366762034104, 57.880334287007706, 57.99700095367437, 58.11366762034104, 58.23033428700771, 58.347000953674375, 58.46366762034104, 58.58033428700771, 58.697000953674376, 58.81366762034104, 58.93033428700771, 59.163667620341045]	2021_Feb_04_1551	59.85270509196299	1	1
24	11	FALSE	NN	v	['G', 'R', 'J', 'B', 'H', 'C', 'T', 'A', 'E', 'M', 'K', 'V', 'Y', 'N', 'P', 'W']	[944, 1587, 1029, 760, 986, 829, 1888, 697, 904, 1224, 1122, 2245, 2670, 1335, 1456, 2448]	10	Absent	NA	NA	ABSENT	0.49942803382873535	61.14854788780213	63.14988994598389	63.96692705154419	64.31681394577026	67.2675359249115	4.117645978927612	[61.16889405250549, 61.285409927368164, 62.26963710784912, 62.43672204017639, 63.187413930892944, 63.30426812171936, 63.42108702659607, 63.53771710395813, 63.65448307991028, 63.77151012420654, 63.88810205459595, 64.0050699710846, 64.12176895141602, 64.23864698410034, 64.35515093803406, 64.47206211090088, 64.58899807929993, 64.70582389831543, 64.8225839138031, 64.9393699169159, 65.03923296928406, 65.2675371170044]	[61.163667620341045, 61.28033428700771, 62.26333428700771, 62.43003428700771, 63.18003428700771, 63.296700953674375, 63.41336762034104, 63.53003428700771, 63.646700953674376, 63.76336762034104, 63.88003428700771, 63.99670095367438, 64.11336762034104, 64.2300342870077, 64.34670095367436, 64.46336762034102, 64.58003428700768, 64.69670095367434, 64.813367620341, 64.93003428700766, 65.04670095367432, 65.28003428700765]	2021_Feb_04_1551	59.85270509196299	1	1
24	12	FALSE	AA	v	['V', 'E', 'J', 'N', 'A', 'S', 'G', 'W', 'C', 'surprise', 'T', 'B', 'X', 'Y', 'H', 'Z']	[2245, 904, 1029, 1335, 697, 1731, 944, 2448, 829, 'stimAuditory/all_stimAuditory/222.wav', 1888, 760, 4000, 2670, 986, 2911]	13	Present	stimAuditory/all_stimAuditory/108.wav	stimVisual/all_stimVisual/214.jpg	ABSENT	0.7678189277648926	67.25465703010559	69.26651287078857	70.43331098556519	70.78322100639343	73.38390302658081	4.117390155792236	[67.2750039100647, 67.39174103736877, 68.3762059211731, 68.54314589500427, 69.31075811386108, 69.41075396537781, 69.5273609161377, 69.64433097839355, 69.76103091239929, 69.87770009040833, 69.99471712112427, 70.11131405830383, 70.22836089134216, 70.34525609016418, 70.46170496940613, 70.57855701446533, 70.69551205635071, 70.81226897239685, 70.92908501625061, 71.04584908485413, 71.16237807273865, 71.3839020729065]	[67.28003428700765, 67.39670095367431, 68.37970095367432, 68.54640095367432, 69.29640095367432, 69.41306762034098, 69.52973428700764, 69.6464009536743, 69.76306762034096, 69.87973428700762, 69.99640095367428, 70.11306762034094, 70.2297342870076, 70.34640095367426, 70.46306762034092, 70.57973428700758, 70.69640095367424, 70.8130676203409, 70.92973428700756, 71.04640095367422, 71.16306762034088, 71.39640095367422]	2021_Feb_04_1551	59.85270509196299	1	1
24	13	FALSE	NV	v	['V', 'M', 'C', 'J', 'Z', 'P', 'K', 'A', 'N', 'S', 'T', 'B', 'X', 'H', 'R', 'U']	[2245, 1224, 829, 1029, 2911, 1456, 1122, 697, 1335, 1731, 1888, 760, 4000, 986, 1587, 2059]	13	Present	NA	NA	PRESENT	0.6443541049957275	73.37791204452515	75.38264894485474	76.54962706565857	76.89950108528137	79.50027108192444	4.117622137069702	[73.39825892448425, 73.51488995552063, 74.49951195716858, 74.66644406318665, 75.41700291633606, 75.53388690948486, 75.65068912506104, 75.76740097999573, 75.88426303863525, 76.00117993354797, 76.11774706840515, 76.28466296195984, 76.35135698318481, 76.46836495399475, 76.58494210243225, 76.70192098617554, 76.81846690177917, 76.93559789657593, 77.05223608016968, 77.16914892196655, 77.2857460975647, 77.50026893615723]	[73.39640095367422, 73.51306762034088, 74.49606762034088, 74.66276762034089, 75.41276762034089, 75.52943428700755, 75.6461009536742, 75.76276762034087, 75.87943428700753, 75.99610095367419, 76.11276762034085, 76.2294342870075, 76.34610095367417, 76.46276762034083, 76.57943428700749, 76.69610095367415, 76.81276762034081, 76.92943428700747, 77.04610095367413, 77.16276762034079, 77.27943428700745, 77.51276762034078]	2021_Feb_04_1551	59.85270509196299	1	1
24	14	FALSE	NN	v	['V', 'S', 'K', 'M', 'C', 'U', 'H', 'Y', 'R', 'N', 'A', 'E', 'G', 'J', 'W', 'P']	[2245, 1731, 1122, 1224, 829, 2059, 986, 2670, 1587, 1335, 697, 904, 944, 1029, 2448, 1456]	11	Absent	NA	NA	ABSENT	0.4019429683685303	79.50114393234253	81.4989218711853	82.43249988555908	82.78260087966919	85.61663699150085	4.117715120315552	[79.52149605751038, 79.63820910453796, 80.60627698898315, 80.77262902259827, 81.54012298583984, 81.65717196464539, 81.7738950252533, 81.89077711105347, 82.00794005393982, 82.12435698509216, 82.22413206100464, 82.34099197387695, 82.45779800415039, 82.57455492019653, 82.69135594367981, 82.80817794799805, 82.92501401901245, 83.041827917099, 83.15848898887634, 83.27531599998474, 83.39240908622742, 83.61663603782654]	[79.51276762034078, 79.62943428700744, 80.61243428700745, 80.77913428700745, 81.52913428700745, 81.64580095367411, 81.76246762034077, 81.87913428700743, 81.99580095367409, 82.11246762034075, 82.22913428700741, 82.34580095367407, 82.46246762034073, 82.57913428700739, 82.69580095367405, 82.81246762034071, 82.92913428700737, 83.04580095367403, 83.16246762034069, 83.27913428700735, 83.39580095367401, 83.62913428700735]	2021_Feb_04_1551	59.85270509196299	1	1
24	15	FALSE	AV	v	['J', 'S', 'T', 'C', 'A', 'P', 'E', 'G', 'M', 'U', 'surprise', 'V', 'K', 'X', 'H', 'R']	[1029, 1731, 1888, 829, 697, 1456, 904, 944, 1224, 2059, 'stimAuditory/all_stimAuditory/113.wav', 2245, 1122, 4000, 986, 1587]	14	Present	stimAuditory/all_stimAuditory/115.wav	stimVisual/all_stimVisual/220.jpg	ABSENT	0.5503201484680176	85.60764408111572	87.6153359413147	88.89902687072754	89.24904799461365	91.73300290107728	4.117666959762573	[85.6279890537262, 85.7446539402008, 86.72907400131226, 86.89604997634888, 87.64677810668945, 87.76347804069519, 87.88046503067017, 87.99715089797974, 88.11410403251648, 88.23074507713318, 88.34759402275085, 88.46425104141235, 88.5811219215393, 88.6978030204773, 88.83133697509766, 88.93156290054321, 89.04827690124512, 89.16517210006714, 89.28185200691223, 89.39879393577576, 89.51555109024048, 89.73300194740295]	[85.62913428700735, 85.745800953674, 86.72880095367401, 86.89550095367402, 87.64550095367402, 87.76216762034068, 87.87883428700734, 87.995500953674, 88.11216762034066, 88.22883428700732, 88.34550095367398, 88.46216762034064, 88.5788342870073, 88.69550095367396, 88.81216762034062, 88.92883428700728, 89.04550095367394, 89.1621676203406, 89.27883428700726, 89.39550095367392, 89.51216762034058, 89.74550095367391]	2021_Feb_04_1551	59.85270509196299	1	1
24	16	FALSE	NA	v	['C', 'T', 'G', 'B', 'J', 'V', 'U', 'E', 'Y', 'M', 'S', 'X', 'R', 'N', 'H', 'K']	[829, 1888, 944, 760, 1029, 2245, 2059, 904, 2670, 1224, 1731, 4000, 1587, 1335, 986, 1122]	12	Present	NA	NA	PRESENT	0.1636221408843994	91.73082089424132	93.7319860458374	94.78252601623537	95.13229703903198	97.84937000274658	4.11738395690918	[91.75116801261902, 91.86774611473083, 92.85221791267395, 93.01930499076843, 93.76995992660522, 93.88678789138794, 94.00391793251038, 94.12039303779602, 94.2369749546051, 94.35403394699097, 94.4708640575409, 94.58759808540344, 94.70443606376648, 94.82119512557983, 94.93779301643372, 95.05469393730164, 95.17135500907898, 95.28842306137085, 95.40500593185425, 95.521812915802, 95.62184810638428, 95.84937000274658]	[91.74550095367391, 91.86216762034057, 92.84516762034058, 93.01186762034058, 93.76186762034058, 93.87853428700724, 93.9952009536739, 94.11186762034056, 94.22853428700722, 94.34520095367388, 94.46186762034054, 94.5785342870072, 94.69520095367386, 94.81186762034052, 94.92853428700718, 95.04520095367384, 95.1618676203405, 95.27853428700716, 95.39520095367382, 95.51186762034048, 95.62853428700714, 95.86186762034048]	2021_Feb_04_1551	59.85270509196299	1	1
24	17	FALSE	NA	v	['M', 'Y', 'T', 'S', 'C', 'N', 'W', 'B', 'U', 'A', 'Z', 'X', 'H', 'P', 'J', 'V']	[1224, 2670, 1888, 1731, 829, 1335, 2448, 760, 2059, 697, 2911, 4000, 986, 1456, 1029, 2245]	12	Present	NA	NA	PRESENT	0.2479848861694336	97.83732295036316	99.84816408157349	100.89833903312685	101.24849796295166	103.9657371044159	4.117573022842407	[97.85767006874084, 97.97452306747437, 98.95871591567993, 99.12582397460938, 99.87632012367249, 99.99324607849121, 100.11008906364441, 100.2267689704895, 100.34400796890259, 100.46036791801453, 100.57724404335022, 100.69397592544556, 100.81062889099121, 100.92758107185364, 101.04439902305603, 101.1612000465393, 101.27810001373291, 101.39483499526978, 101.51155805587769, 101.62844896316528, 101.745187997818, 101.9657371044159]	[97.86186762034048, 97.97853428700714, 98.96153428700714, 99.12823428700715, 99.87823428700715, 99.9949009536738, 100.11156762034047, 100.22823428700713, 100.34490095367379, 100.46156762034045, 100.5782342870071, 100.69490095367377, 100.81156762034043, 100.92823428700709, 101.04490095367375, 101.1615676203404, 101.27823428700707, 101.39490095367373, 101.51156762034039, 101.62823428700705, 101.7449009536737, 101.97823428700704]	2021_Feb_04_1551	59.85270509196299	1	1
24	18	FALSE	NA	v	['C', 'Z', 'K', 'N', 'H', 'W', 'B', 'R', 'Y', 'J', 'G', 'P', 'E', 'X', 'M', 'U']	[829, 2911, 1122, 1335, 986, 2448, 760, 1587, 2670, 1029, 944, 1456, 904, 4000, 1224, 2059]	14	Present	NA	NA	PRESENT	0.2686431407928467	103.96063899993896	105.96464896202087	107.24839091300964	107.59825992584229	110.08210301399232	4.1174540519714355	[103.98098611831665, 104.09766101837158, 105.08213400840759, 105.24893808364868, 105.99981307983398, 106.11662006378174, 106.233225107193, 106.34988689422607, 106.46692705154419, 106.58373308181763, 106.70023894309998, 106.81718611717224, 106.93402409553528, 107.05093193054199, 107.16745901107788, 107.28440403938293, 107.40106201171875, 107.51806211471558, 107.63468098640442, 107.75149297714233, 107.86848497390747, 108.08210396766663]	[103.97823428700704, 104.0949009536737, 105.0779009536737, 105.24460095367371, 105.99460095367371, 106.11126762034037, 106.22793428700703, 106.34460095367369, 106.46126762034035, 106.57793428700701, 106.69460095367367, 106.81126762034033, 106.92793428700699, 107.04460095367365, 107.16126762034031, 107.27793428700697, 107.39460095367363, 107.51126762034029, 107.62793428700695, 107.74460095367361, 107.86126762034027, 108.0946009536736]	2021_Feb_04_1551	59.85270509196299	1	1
24	19	FALSE	VA	v	['Y', 'J', 'U', 'K', 'P', 'N', 'R', 'Z', 'T', 'G', 'surprise', 'A', 'M', 'X', 'S', 'W']	[2670, 1029, 2059, 1122, 1456, 1335, 1587, 2911, 1888, 944, 'stimAuditory/all_stimAuditory/213.wav', 697, 1224, 4000, 1731, 2448]	14	Present	NA	stimVisual/all_stimVisual/115.jpg	PRESENT	0.3457779884338379	110.06692099571228	112.08093810081482	113.36462903022766	113.71441793441772	116.19847011566162	4.117532014846802	[110.08730101585388, 110.20404696464539, 111.18890309333801, 111.35519504547119, 112.12272906303406, 112.22288608551025, 112.33971691131592, 112.45633602142334, 112.57313299179077, 112.68996906280518, 112.80692410469055, 112.92351388931274, 113.0403790473938, 113.15717601776123, 113.27421498298645, 113.39081192016602, 113.50752806663513, 113.62431311607361, 113.74137806892395, 113.85809397697449, 113.97489809989929, 114.19847106933594]	[110.0946009536736, 110.21126762034027, 111.19426762034027, 111.36096762034028, 112.11096762034028, 112.22763428700694, 112.3443009536736, 112.46096762034026, 112.57763428700692, 112.69430095367358, 112.81096762034024, 112.9276342870069, 113.04430095367356, 113.16096762034022, 113.27763428700688, 113.39430095367354, 113.5109676203402, 113.62763428700686, 113.74430095367352, 113.86096762034018, 113.97763428700684, 114.21096762034017]	2021_Feb_04_1551	59.85270509196299	1	1
24	20	FALSE	NV	v	['U', 'V', 'J', 'A', 'P', 'Z', 'M', 'R', 'X', 'W', 'S', 'H', 'E', 'T', 'K', 'G']	[2059, 2245, 1029, 697, 1456, 2911, 1224, 1587, 4000, 2448, 1731, 986, 904, 1888, 1122, 944]	9	Present	NA	NA	ABSENT	0.6862809658050537	116.19017291069032	118.19711804389954	118.89801406860352	119.24766993522644	122.31483697891235	4.117718935012817	[116.210520029068, 116.32736301422119, 117.3116729259491, 117.47857999801636, 118.22935795783997, 118.34612202644348, 118.46288108825684, 118.57978010177612, 118.69655990600586, 118.81335496902466, 118.92992997169495, 119.04689192771912, 119.16370606422424, 119.28057193756104, 119.39737010002136, 119.51413106918335, 119.630784034729, 119.74773693084717, 119.86443090438843, 119.98132491111755, 120.09807395935059, 120.31483697891235]	[116.21096762034017, 116.32763428700683, 117.31063428700683, 117.47733428700684, 118.22733428700684, 118.3440009536735, 118.46066762034016, 118.57733428700682, 118.69400095367348, 118.81066762034014, 118.9273342870068, 119.04400095367346, 119.16066762034012, 119.27733428700678, 119.39400095367344, 119.5106676203401, 119.62733428700676, 119.74400095367342, 119.86066762034008, 119.97733428700674, 120.0940009536734, 120.32733428700674]	2021_Feb_04_1551	59.85270509196299	1	1
24	21	FALSE	NV	v	['H', 'V', 'J', 'S', 'G', 'C', 'R', 'X', 'N', 'Z', 'U', 'K', 'W', 'Y', 'M', 'B']	[986, 2245, 1029, 1731, 944, 829, 1587, 4000, 1335, 2911, 2059, 1122, 2448, 2670, 1224, 760]	8	Present	NA	NA	PRESENT	0.09981298446655272	122.31335210800172	124.3137879371643	124.89740204811096	125.24782395362854	128.43120312690735	4.117415189743042	[122.33369898796082, 122.45066690444946, 123.43493103981018, 123.60187101364136, 124.35255193710327, 124.4695041179657, 124.58612203598022, 124.70310306549072, 124.81962203979492, 124.93638300895691, 125.05335211753845, 125.17021989822388, 125.28700089454651, 125.40376996994019, 125.52041006088257, 125.63736605644226, 125.7539610862732, 125.87078094482422, 125.98765802383423, 126.1045069694519, 126.204519033432, 126.43120312690735]	[122.32733428700674, 122.4440009536734, 123.4270009536734, 123.5937009536734, 124.3437009536734, 124.46036762034007, 124.57703428700673, 124.69370095367339, 124.81036762034005, 124.9270342870067, 125.04370095367337, 125.16036762034003, 125.27703428700669, 125.39370095367335, 125.51036762034, 125.62703428700667, 125.74370095367333, 125.86036762033999, 125.97703428700665, 126.0937009536733, 126.21036762033997, 126.4437009536733]	2021_Feb_04_1551	59.85270509196299	1	1
24	22	FALSE	NN	v	['J', 'S', 'R', 'H', 'K', 'G', 'Z', 'B', 'Y', 'W', 'T', 'A', 'E', 'U', 'C', 'V']	[1029, 1731, 1587, 986, 1122, 944, 2911, 760, 2670, 2448, 1888, 697, 904, 2059, 829, 2245]	12	Absent	NA	NA	ABSENT	0.4323391914367676	128.41994309425354	130.42987489700317	131.48067593574524	131.83034992218018	134.54756999015808	4.117695093154907	[128.44028997421265, 128.55711197853088, 129.54148292541504, 129.70826697349548, 130.45927500724792, 130.5759139060974, 130.6927580833435, 130.8093810081482, 130.92638492584229, 131.04287695884705, 131.15969491004944, 131.27655410766602, 131.39346504211426, 131.5100600719452, 131.6267750263214, 131.74379301071167, 131.86043000221252, 131.9773371219635, 132.0941801071167, 132.21096897125244, 132.3276629447937, 132.5475709438324]	[128.4437009536733, 128.56036762033997, 129.54336762033998, 129.71006762033997, 130.46006762033997, 130.57673428700664, 130.69340095367332, 130.81006762034, 130.92673428700667, 131.04340095367334, 131.16006762034002, 131.2767342870067, 131.39340095367336, 131.51006762034004, 131.6267342870067, 131.7434009536734, 131.86006762034006, 131.97673428700674, 132.0934009536734, 132.21006762034008, 132.32673428700676, 132.56006762034008]	2021_Feb_04_1551	59.85270509196299	1	1
24	23	FALSE	AV	v	['U', 'K', 'V', 'G', 'S', 'W', 'R', 'Z', 'B', 'surprise', 'J', 'Y', 'X', 'H', 'P', 'T']	[2059, 1122, 2245, 944, 1731, 2448, 1587, 2911, 760, 'stimAuditory/all_stimAuditory/201.wav', 1029, 2670, 4000, 986, 1456, 1888]	13	Present	stimAuditory/all_stimAuditory/222.wav	stimVisual/all_stimVisual/200.jpg	PRESENT	0.12501096725463867	134.54317903518677	136.54635190963745	137.71341800689697	138.06404089927673	140.6639370918274	4.117585182189941	[134.56352496147156, 134.6801209449768, 135.6647551059723, 135.83136510849, 136.58229994773865, 136.69921898841858, 136.81579089164734, 136.93263006210327, 137.04948806762695, 137.16628789901733, 137.28297901153564, 137.39985489845276, 137.51657891273499, 137.63330101966858, 137.75013995170593, 137.8669149875641, 137.983726978302, 138.10047698020935, 138.21739602088928, 138.33403897285461, 138.45095491409302, 138.6639370918274]	[134.56006762034008, 134.67673428700675, 135.65973428700676, 135.82643428700675, 136.57643428700675, 136.69310095367342, 136.8097676203401, 136.92643428700677, 137.04310095367345, 137.15976762034012, 137.2764342870068, 137.39310095367347, 137.50976762034014, 137.62643428700682, 137.7431009536735, 137.85976762034016, 137.97643428700684, 138.0931009536735, 138.2097676203402, 138.32643428700686, 138.44310095367354, 138.67643428700686]	2021_Feb_04_1551	59.85270509196299	1	1
24	24	FALSE	NN	v	['S', 'P', 'H', 'C', 'U', 'W', 'A', 'G', 'T', 'J', 'Y', 'N', 'V', 'R', 'Z', 'B']	[1731, 1456, 986, 829, 2059, 2448, 697, 944, 1888, 1029, 2670, 1335, 2245, 1587, 2911, 760]	14	Absent	NA	NA	ABSENT	0.46628499031066895	140.64979887008667	142.6625370979309	143.94647693634033	144.29640698432922	146.7803030014038	4.1177659034729	[140.67014598846436, 140.78662490844727, 141.77096104621887, 141.93791699409485, 142.70533895492554, 142.80549597740173, 142.922189950943, 143.0390980243683, 143.1559019088745, 143.27270102500916, 143.38957405090332, 143.50615310668945, 143.62309408187866, 143.73982191085815, 143.85669112205505, 143.97348189353943, 144.09033393859863, 144.20707201957703, 144.32375502586365, 144.44072604179382, 144.5574929714203, 144.7803030014038]	[140.67643428700686, 140.79310095367353, 141.77610095367353, 141.94280095367353, 142.69280095367353, 142.8094676203402, 142.92613428700687, 143.04280095367355, 143.15946762034022, 143.2761342870069, 143.39280095367357, 143.50946762034025, 143.62613428700692, 143.7428009536736, 143.85946762034027, 143.97613428700694, 144.09280095367362, 144.2094676203403, 144.32613428700697, 144.44280095367364, 144.5594676203403, 144.79280095367363]	2021_Feb_04_1551	59.85270509196299	1	1
24	25	FALSE	NA	v	['P', 'S', 'C', 'B', 'K', 'H', 'R', 'Y', 'E', 'U', 'V', 'Z', 'M', 'X', 'N', 'G']	[1456, 1731, 829, 760, 1122, 986, 1587, 2670, 904, 2059, 2245, 2911, 1224, 4000, 1335, 944]	14	Present	NA	NA	PRESENT	0.1188650131225586	146.77284002304077	148.77915906906128	150.06290102005005	150.4128110408783	152.89667010307312	4.117511034011841	[146.79318594932556, 146.91005110740662, 147.8941628932953, 148.06127309799194, 148.81189799308777, 148.92874598503113, 149.0455310344696, 149.1624140739441, 149.27923107147217, 149.39603304862976, 149.51263403892517, 149.62951493263245, 149.74618101119995, 149.86311507225037, 149.97988104820251, 150.09665298461914, 150.21328902244568, 150.33056712150574, 150.44715189933777, 150.56385111808777, 150.68054795265198, 150.89666891098022]	[146.79280095367363, 146.9094676203403, 147.8924676203403, 148.0591676203403, 148.8091676203403, 148.92583428700698, 149.04250095367365, 149.15916762034033, 149.275834287007, 149.39250095367368, 149.50916762034035, 149.62583428700702, 149.7425009536737, 149.85916762034037, 149.97583428700705, 150.09250095367372, 150.2091676203404, 150.32583428700707, 150.44250095367374, 150.55916762034042, 150.6758342870071, 150.9091676203404]	2021_Feb_04_1551	59.85270509196299	1	1
24	26	FALSE	NV	v	['N', 'P', 'A', 'V', 'C', 'U', 'T', 'S', 'Y', 'X', 'E', 'W', 'Z', 'K', 'R', 'B']	[1335, 1456, 697, 2245, 829, 2059, 1888, 1731, 2670, 4000, 904, 2448, 2911, 1122, 1587, 760]	10	Present	NA	NA	PRESENT	0.35617589950561523	152.89586997032166	154.89548897743225	155.71239590644836	156.06367087364197	159.01303696632385	4.117547988891602	[152.91621589660645, 153.03304505348206, 154.01754808425903, 154.18452501296997, 154.93523597717285, 155.05205607414246, 155.16875195503235, 155.28562211990356, 155.40237402915955, 155.5191330909729, 155.63610291481018, 155.75273895263672, 155.86934804916382, 155.98628997802734, 156.1030650138855, 156.21988105773926, 156.3367350101471, 156.45325708389282, 156.570415019989, 156.6870059967041, 156.7871561050415, 157.01303696632385]	[152.9091676203404, 153.0258342870071, 154.0088342870071, 154.17553428700708, 154.92553428700708, 155.04220095367376, 155.15886762034043, 155.2755342870071, 155.39220095367378, 155.50886762034045, 155.62553428700713, 155.7422009536738, 155.85886762034048, 155.97553428700715, 156.09220095367382, 156.2088676203405, 156.32553428700717, 156.44220095367385, 156.55886762034052, 156.6755342870072, 156.79220095367387, 157.0255342870072]	2021_Feb_04_1551	59.85270509196299	1	1
24	27	FALSE	NV	v	['V', 'P', 'K', 'T', 'R', 'M', 'A', 'G', 'Z', 'S', 'X', 'C', 'J', 'Y', 'E', 'N']	[2245, 1456, 1122, 1888, 1587, 1224, 697, 944, 2911, 1731, 4000, 829, 1029, 2670, 904, 1335]	11	Present	NA	NA	PRESENT	0.1286609172821045	159.00251507759094	161.011785030365	161.94545793533325	162.295480966568	165.12940311431885	4.117618083953857	[159.02286195755005, 159.13954210281372, 160.12391591072083, 160.2911729812622, 161.04158091545105, 161.15848398208618, 161.27527594566345, 161.3920121192932, 161.50897693634033, 161.62574410438538, 161.74245405197144, 161.85917210578918, 161.97602796554565, 162.09279608726501, 162.20938801765442, 162.32636094093323, 162.44296407699585, 162.5599889755249, 162.67667508125305, 162.79334092140198, 162.91027688980103, 163.12940311431885]	[159.0255342870072, 159.14220095367386, 160.12520095367387, 160.29190095367386, 161.04190095367386, 161.15856762034053, 161.2752342870072, 161.39190095367388, 161.50856762034056, 161.62523428700723, 161.7419009536739, 161.85856762034058, 161.97523428700725, 162.09190095367393, 162.2085676203406, 162.32523428700728, 162.44190095367395, 162.55856762034063, 162.6752342870073, 162.79190095367397, 162.90856762034065, 163.14190095367397]	2021_Feb_04_1551	59.85270509196299	1	1
24	28	FALSE	NN	v	['S', 'A', 'M', 'Z', 'B', 'T', 'V', 'C', 'P', 'E', 'R', 'Y', 'U', 'W', 'N', 'K']	[1731, 697, 1224, 2911, 760, 1888, 2245, 829, 1456, 904, 1587, 2670, 2059, 2448, 1335, 1122]	8	Absent	NA	NA	ABSENT	0.2610800266265869	165.1256868839264	167.1281020641327	167.7120440006256	168.0622360706329	171.24576997756958	4.11766791343689	[165.14603304862976, 165.26268005371094, 166.24737095832825, 166.41384196281433, 167.16471195220947, 167.2817189693451, 167.39843606948853, 167.51524090766907, 167.63203310966492, 167.74884510040283, 167.86567306518555, 167.9825279712677, 168.0991930961609, 168.21596002578735, 168.33263897895813, 168.4494879245758, 168.56640195846558, 168.68314003944397, 168.79992604255676, 168.91664004325867, 169.03351593017578, 169.24576997756958]	[165.14190095367397, 165.25856762034064, 166.24156762034065, 166.40826762034064, 167.15826762034064, 167.2749342870073, 167.391600953674, 167.50826762034066, 167.62493428700733, 167.741600953674, 167.85826762034068, 167.97493428700736, 168.09160095367403, 168.2082676203407, 168.32493428700738, 168.44160095367405, 168.55826762034073, 168.6749342870074, 168.79160095367408, 168.90826762034075, 169.02493428700743, 169.25826762034075]	2021_Feb_04_1551	59.85270509196299	1	1
24	29	FALSE	VV	v	['S', 'M', 'A', 'P', 'surprise', 'G', 'N', 'X', 'Y', 'K', 'T', 'B', 'W', 'V', 'Z', 'U']	[1731, 1224, 697, 1456, 'stimAuditory/all_stimAuditory/111.wav', 944, 1335, 4000, 2670, 1122, 1888, 760, 2448, 2245, 2911, 2059]	8	Present	NA	stimVisual/all_stimVisual/112.jpg	PRESENT	0.8347790241241455	171.23224592208862	173.24461603164673	173.82815599441528	174.17858695983887	177.3621370792389	4.117521047592163	[171.252592086792, 171.36917209625244, 172.35364389419556, 172.52056789398193, 173.28801488876343, 173.38800191879272, 173.50477194786072, 173.6216950416565, 173.73857402801514, 173.85528707504272, 173.97196507453918, 174.08879208564758, 174.20577096939087, 174.32250595092773, 174.43906712532043, 174.55602407455444, 174.67267107963562, 174.78965497016907, 174.9062900543213, 175.02329206466675, 175.13997793197632, 175.36213612556458]	[171.25826762034075, 171.37493428700742, 172.35793428700742, 172.52463428700742, 173.27463428700742, 173.3913009536741, 173.50796762034076, 173.62463428700744, 173.7413009536741, 173.8579676203408, 173.97463428700746, 174.09130095367414, 174.2079676203408, 174.32463428700748, 174.44130095367416, 174.55796762034083, 174.6746342870075, 174.79130095367418, 174.90796762034086, 175.02463428700753, 175.1413009536742, 175.37463428700752]	2021_Feb_04_1551	59.85270509196299	1	1
24	30	FALSE	NV	v	['E', 'V', 'A', 'J', 'Z', 'P', 'N', 'R', 'M', 'W', 'T', 'X', 'H', 'G', 'K', 'B']	[904, 2245, 697, 1029, 2911, 1456, 1335, 1587, 1224, 2448, 1888, 4000, 986, 944, 1122, 760]	12	Present	NA	NA	PRESENT	0.3909950256347656	177.3553750514984	179.3609790802002	180.41130995750427	180.76122307777405	183.4785029888153	4.117523908615112	[177.37572193145752, 177.492516040802, 178.47697710990906, 178.643620967865, 179.3946259021759, 179.51136898994446, 179.62797689437866, 179.7448709011078, 179.8616099357605, 179.97856402397156, 180.0952010154724, 180.21221089363098, 180.3288540840149, 180.445739030838, 180.56233596801758, 180.67923307418823, 180.79604291915894, 180.91277694702148, 181.0297110080719, 181.14634490013123, 181.26340293884277, 181.478502035141]	[177.37463428700752, 177.4913009536742, 178.4743009536742, 178.6410009536742, 179.3910009536742, 179.50766762034087, 179.62433428700754, 179.74100095367422, 179.8576676203409, 179.97433428700757, 180.09100095367424, 180.2076676203409, 180.3243342870076, 180.44100095367426, 180.55766762034094, 180.6743342870076, 180.79100095367428, 180.90766762034096, 181.02433428700763, 181.1410009536743, 181.25766762034098, 181.4910009536743]	2021_Feb_04_1551	59.85270509196299	1	1
24	31	FALSE	NA	v	['H', 'J', 'U', 'E', 'T', 'C', 'B', 'Z', 'A', 'G', 'V', 'S', 'K', 'X', 'R', 'M']	[986, 1029, 2059, 904, 1888, 829, 760, 2911, 697, 944, 2245, 1731, 1122, 4000, 1587, 1224]	14	Present	NA	NA	PRESENT	0.13254594802856445	183.4785680770874	185.4772870540619	186.7609260082245	187.1108958721161	189.59487009048465	4.1175830364227295	[183.49891591072083, 183.61586809158325, 184.58330011367798, 184.75010895729065, 185.51788711547852, 185.63457703590393, 185.7513780593872, 185.86810493469238, 185.98503398895264, 186.10156798362732, 186.2184989452362, 186.33537912368774, 186.4521141052246, 186.56880497932434, 186.68581199645996, 186.8025290966034, 186.91924595832825, 187.01916909217834, 187.13598704338074, 187.25273990631104, 187.36970901489258, 187.59486889839172]	[183.4910009536743, 183.60766762034098, 184.59066762034098, 184.75736762034097, 185.50736762034097, 185.62403428700765, 185.74070095367432, 185.857367620341, 185.97403428700767, 186.09070095367434, 186.20736762034102, 186.3240342870077, 186.44070095367437, 186.55736762034104, 186.67403428700771, 186.7907009536744, 186.90736762034106, 187.02403428700774, 187.1407009536744, 187.25736762034109, 187.37403428700776, 187.60736762034108]	2021_Feb_04_1551	59.85270509196299	1	1
24	32	FALSE	VV	v	['P', 'U', 'B', 'C', 'S', 'surprise', 'H', 'N', 'X', 'K', 'M', 'T', 'W', 'E', 'J', 'Y']	[1456, 2059, 760, 829, 1731, 'stimAuditory/all_stimAuditory/124.wav', 986, 1335, 4000, 1122, 1224, 1888, 2448, 904, 1029, 2670]	9	Present	NA	stimVisual/all_stimVisual/113.jpg	PRESENT	0.3449578285217285	189.58512902259827	191.59376502037048	192.2943389415741	192.6438319683075	195.71123695373535	4.117471933364868	[189.60548400878906, 189.72216701507568, 190.70655393600464, 190.87355589866638, 191.6244330406189, 191.74100804328918, 191.85766005516052, 191.97459411621094, 192.09143710136414, 192.224769115448, 192.3251349925995, 192.44187712669373, 192.55856204032898, 192.67541909217834, 192.79213309288025, 192.90902400016785, 193.02560901641846, 193.1424789428711, 193.25925302505493, 193.3758580684662, 193.49288511276245, 193.71123790740967]	[189.60736762034108, 189.72403428700775, 190.70703428700776, 190.87373428700775, 191.62373428700775, 191.74040095367442, 191.8570676203411, 191.97373428700777, 192.09040095367445, 192.20706762034112, 192.3237342870078, 192.44040095367447, 192.55706762034114, 192.67373428700782, 192.7904009536745, 192.90706762034117, 193.02373428700784, 193.14040095367451, 193.2570676203412, 193.37373428700786, 193.49040095367454, 193.72373428700786]	2021_Feb_04_1551	59.85270509196299	1	1
24	33	FALSE	NN	v	['K', 'E', 'M', 'T', 'R', 'Y', 'B', 'V', 'W', 'N', 'A', 'S', 'J', 'U', 'G', 'P']	[1122, 904, 1224, 1888, 1587, 2670, 760, 2245, 2448, 1335, 697, 1731, 1029, 2059, 944, 1456]	10	Absent	NA	NA	ABSENT	0.5822510719299316	195.7080919742584	197.70975589752197	198.5270800590515	198.87690806388855	201.82760310173035	4.117847204208374	[195.7284379005432, 195.8454201221466, 196.82985591888428, 196.99670791625977, 197.7473270893097, 197.86411595344543, 197.9808850288391, 198.09790706634521, 198.2145230770111, 198.33145189285278, 198.4482979774475, 198.5650770664215, 198.68168210983276, 198.7986741065979, 198.91529393196106, 199.03220009803772, 199.14904499053955, 199.26566290855408, 199.38253712654114, 199.49964690208435, 199.59927892684937, 199.82760310173035]	[195.72373428700786, 195.84040095367453, 196.82340095367454, 196.99010095367453, 197.74010095367453, 197.8567676203412, 197.97343428700788, 198.09010095367455, 198.20676762034122, 198.3234342870079, 198.44010095367457, 198.55676762034125, 198.67343428700792, 198.7901009536746, 198.90676762034127, 199.02343428700794, 199.14010095367462, 199.2567676203413, 199.37343428700797, 199.49010095367464, 199.60676762034132, 199.84010095367464]	2021_Feb_04_1551	59.85270509196299	1	1
24	34	FALSE	NA	v	['N', 'T', 'M', 'K', 'W', 'E', 'U', 'R', 'Y', 'H', 'J', 'C', 'X', 'G', 'P', 'Z']	[1335, 1888, 1224, 1122, 2448, 904, 2059, 1587, 2670, 986, 1029, 829, 4000, 944, 1456, 2911]	13	Present	NA	NA	PRESENT	0.29093217849731445	201.81507205963135	203.8263280391693	204.99401187896729	205.34351897239685	207.94396996498108	4.117641925811768	[201.83541798591614, 201.95177006721497, 202.93624091148376, 203.1032989025116, 203.87060689926147, 203.97063398361206, 204.0872950553894, 204.20425701141357, 204.32095408439636, 204.43794798851013, 204.55478310585022, 204.67151308059692, 204.7883620262146, 204.90510511398315, 205.02174305915833, 205.13892006874084, 205.2553288936615, 205.3721239566803, 205.48887610435486, 205.60581994056702, 205.72247004508972, 205.94396996498108]	[201.84010095367464, 201.9567676203413, 202.9397676203413, 203.1064676203413, 203.8564676203413, 203.97313428700798, 204.08980095367465, 204.20646762034133, 204.323134287008, 204.43980095367468, 204.55646762034135, 204.67313428700803, 204.7898009536747, 204.90646762034137, 205.02313428700805, 205.13980095367472, 205.2564676203414, 205.37313428700807, 205.48980095367475, 205.60646762034142, 205.7231342870081, 205.9564676203414]	2021_Feb_04_1551	59.85270509196299	1	1
24	35	FALSE	NV	v	['P', 'K', 'U', 'B', 'T', 'S', 'M', 'G', 'E', 'V', 'C', 'W', 'X', 'H', 'Y', 'J']	[1456, 1122, 2059, 760, 1888, 1731, 1224, 944, 904, 2245, 829, 2448, 4000, 986, 2670, 1029]	13	Present	NA	NA	PRESENT	0.18325400352478027	207.9379529953003	209.94261002540588	211.10985708236697	211.4598469734192	214.0603370666504	4.117727041244507	[207.95830011367798, 208.0749568939209, 209.05960392951965, 209.22619605064392, 209.97696495056152, 210.0940399169922, 210.21065497398376, 210.32746696472168, 210.44431900978088, 210.56094193458557, 210.67776894569397, 210.79453897476196, 210.91140699386597, 211.02818989753723, 211.14514899253845, 211.26224899291992, 211.3786211013794, 211.49537301063538, 211.61219096183777, 211.72888207435608, 211.84579706192017, 212.06033611297607]	[207.9564676203414, 208.0731342870081, 209.0561342870081, 209.22283428700808, 209.97283428700808, 210.08950095367476, 210.20616762034143, 210.3228342870081, 210.43950095367478, 210.55616762034145, 210.67283428700813, 210.7895009536748, 210.90616762034148, 211.02283428700815, 211.13950095367483, 211.2561676203415, 211.37283428700817, 211.48950095367485, 211.60616762034152, 211.7228342870082, 211.83950095367487, 212.0728342870082]	2021_Feb_04_1551	59.85270509196299	1	1
24	36	FALSE	NV	v	['M', 'B', 'W', 'G', 'A', 'S', 'C', 'R', 'X', 'K', 'E', 'U', 'Z', 'P', 'N', 'T']	[1224, 760, 2448, 944, 697, 1731, 829, 1587, 4000, 1122, 904, 2059, 2911, 1456, 1335, 1888]	9	Present	NA	NA	PRESENT	0.23655200004577637	214.0609850883484	216.05900287628177	216.75953793525696	217.10961294174191	220.1767029762268	4.117700099945068	[214.08133101463318, 214.19837999343872, 215.16588497161865, 215.33269095420837, 216.10029006004333, 216.2170820236206, 216.33402609825134, 216.45074701309204, 216.5674650669098, 216.68434810638428, 216.80117106437683, 216.90096592903137, 217.01787996292114, 217.1345660686493, 217.25135493278503, 217.3682460784912, 217.48499512672424, 217.60179805755615, 217.7186300754547, 217.8353509902954, 217.95215797424316, 218.17670392990112]	[214.0728342870082, 214.18950095367487, 215.17250095367487, 215.33920095367486, 216.08920095367486, 216.20586762034154, 216.3225342870082, 216.43920095367488, 216.55586762034156, 216.67253428700823, 216.7892009536749, 216.90586762034158, 217.02253428700826, 217.13920095367493, 217.2558676203416, 217.37253428700828, 217.48920095367495, 217.60586762034163, 217.7225342870083, 217.83920095367498, 217.95586762034165, 218.18920095367497]	2021_Feb_04_1551	59.85270509196299	1	1
24	37	FALSE	NA	v	['V', 'M', 'C', 'Y', 'T', 'S', 'J', 'B', 'Z', 'P', 'H', 'X', 'G', 'R', 'K', 'E']	[2245, 1224, 829, 2670, 1888, 1731, 1029, 760, 2911, 1456, 986, 4000, 944, 1587, 1122, 904]	12	Present	NA	NA	PRESENT	0.3290879726409912	220.1676349639893	222.17569398880005	223.225998878479	223.57584500312805	226.29307007789612	4.117376089096069	[220.18798208236694, 220.30477690696716, 221.28927612304688, 221.45603895187378, 222.2066090106964, 222.32365489006042, 222.44038200378418, 222.557275056839, 222.6739799976349, 222.79080295562744, 222.90758395195007, 223.02437210083008, 223.14113807678223, 223.2580120563507, 223.3746531009674, 223.49142789840698, 223.60834503173828, 223.72524094581604, 223.8418869972229, 223.95877408981323, 224.07562589645386, 224.2930691242218]	[220.18920095367497, 220.30586762034164, 221.28886762034165, 221.45556762034164, 222.20556762034164, 222.3222342870083, 222.438900953675, 222.55556762034166, 222.67223428700834, 222.788900953675, 222.90556762034169, 223.02223428700836, 223.13890095367503, 223.2555676203417, 223.37223428700838, 223.48890095367506, 223.60556762034173, 223.7222342870084, 223.83890095367508, 223.95556762034175, 224.07223428700843, 224.30556762034175]	2021_Feb_04_1551	59.85270509196299	1	1
24	38	FALSE	NA	v	['M', 'U', 'C', 'T', 'N', 'P', 'V', 'S', 'B', 'Z', 'X', 'E', 'R', 'W', 'K', 'J']	[1224, 2059, 829, 1888, 1335, 1456, 2245, 1731, 760, 2911, 4000, 904, 1587, 2448, 1122, 1029]	11	Present	NA	NA	PRESENT	0.2866401672363281	226.29071307182312	228.2919180393219	229.22549390792847	229.5756869316101	232.40943694114685	4.117518901824951	[226.31108212471008, 226.42802596092224, 227.41229104995728, 227.57929801940918, 228.3299970626831, 228.4467489719391, 228.56364393234253, 228.6804280281067, 228.79707407951355, 228.91402006149292, 229.03083205223083, 229.14756393432617, 229.2644979953766, 229.38111209869385, 229.49847292900085, 229.61463809013367, 229.73157000541687, 229.8483600616455, 229.96504402160645, 230.08200693130493, 230.18172907829285, 230.40943694114685]	[226.30556762034175, 226.42223428700842, 227.40523428700843, 227.57193428700842, 228.32193428700842, 228.4386009536751, 228.55526762034177, 228.67193428700844, 228.78860095367511, 228.9052676203418, 229.02193428700846, 229.13860095367514, 229.2552676203418, 229.3719342870085, 229.48860095367516, 229.60526762034183, 229.7219342870085, 229.83860095367518, 229.95526762034186, 230.07193428700853, 230.1886009536752, 230.42193428700853]	2021_Feb_04_1551	59.85270509196299	1	1
24	39	FALSE	NA	v	['C', 'G', 'V', 'W', 'S', 'K', 'H', 'A', 'E', 'U', 'P', 'N', 'T', 'X', 'J', 'Y']	[829, 944, 2245, 2448, 1731, 1122, 986, 697, 904, 2059, 1456, 1335, 1888, 4000, 1029, 2670]	14	Present	NA	NA	PRESENT	0.3311290740966797	232.39758801460263	234.4084000587463	235.6920609474182	236.04191088676453	238.52580404281616	4.117403984069824	[232.41793489456177, 232.53428602218628, 233.51888704299927, 233.68573808670044, 234.43624305725098, 234.55332899093628, 234.6699390411377, 234.7868790626526, 234.90369606018066, 235.0206389427185, 235.13728308677673, 235.25409293174744, 235.37071800231934, 235.4876549243927, 235.60438799858093, 235.72128200531006, 235.83806896209717, 235.9547860622406, 236.0715410709381, 236.18850111961365, 236.3052179813385, 236.52580404281616]	[232.42193428700853, 232.5386009536752, 233.5216009536752, 233.6883009536752, 234.4383009536752, 234.55496762034187, 234.67163428700854, 234.78830095367522, 234.9049676203419, 235.02163428700857, 235.13830095367524, 235.25496762034192, 235.3716342870086, 235.48830095367526, 235.60496762034194, 235.7216342870086, 235.8383009536753, 235.95496762034196, 236.07163428700864, 236.1883009536753, 236.30496762034198, 236.5383009536753]	2021_Feb_04_1551	59.85270509196299	1	1
24	40	FALSE	NV	v	['A', 'B', 'M', 'Y', 'K', 'P', 'E', 'R', 'G', 'X', 'H', 'J', 'Z', 'U', 'T', 'N']	[697, 760, 1224, 2670, 1122, 1456, 904, 1587, 944, 4000, 986, 1029, 2911, 2059, 1888, 1335]	10	Present	NA	NA	PRESENT	0.31166696548461914	238.52026987075809	240.5246489048004	241.3418400287628	241.69167304039	244.64216995239255	4.117521047592163	[238.54061794281006, 238.6577160358429, 239.64207005500793, 239.8087511062622, 240.55955410003662, 240.67626810073853, 240.79314303398132, 240.90992498397827, 241.02691793441772, 241.14348006248474, 241.26037693023682, 241.37733602523804, 241.49405694007874, 241.61075592041016, 241.7277479171753, 241.84447407722473, 241.96129894256592, 242.07791090011597, 242.1948959827423, 242.31185293197632, 242.42838096618652, 242.64216899871826]	[238.5383009536753, 238.65496762034198, 239.63796762034198, 239.80466762034197, 240.55466762034197, 240.67133428700865, 240.78800095367532, 240.904667620342, 241.02133428700867, 241.13800095367534, 241.25466762034202, 241.3713342870087, 241.48800095367537, 241.60466762034204, 241.72133428700872, 241.8380009536754, 241.95466762034206, 242.07133428700874, 242.1880009536754, 242.3046676203421, 242.42133428700876, 242.65466762034208]	2021_Feb_04_1551	59.85270509196299	1	1
24	41	FALSE	NN	v	['Z', 'S', 'W', 'B', 'P', 'K', 'C', 'G', 'M', 'T', 'Y', 'V', 'J', 'U', 'R', 'N']	[2911, 1731, 2448, 760, 1456, 1122, 829, 944, 1224, 1888, 2670, 2245, 1029, 2059, 1587, 1335]	9	Absent	NA	NA	ABSENT	0.2449178695678711	244.6438000202179	246.6408290863037	247.3415699005127	247.6913459300995	250.7585370540619	4.117707967758179	[244.664146900177, 244.76404404640198, 245.74860191345215, 245.91544198989868, 246.68285393714905, 246.78281903266907, 246.8995349407196, 247.01640701293945, 247.13316106796265, 247.24997997283936, 247.36684107780457, 247.48357510566711, 247.60037398338318, 247.7171549797058, 247.8341600894928, 247.95076298713684, 248.06758499145508, 248.18433499336243, 248.30123209953308, 248.41814804077148, 248.53490209579468, 248.75853610038757]	[244.65466762034208, 244.77133428700876, 245.75433428700876, 245.92103428700875, 246.67103428700875, 246.78770095367543, 246.9043676203421, 247.02103428700877, 247.13770095367545, 247.25436762034212, 247.3710342870088, 247.48770095367547, 247.60436762034215, 247.72103428700882, 247.8377009536755, 247.95436762034217, 248.07103428700884, 248.18770095367552, 248.3043676203422, 248.42103428700887, 248.53770095367554, 248.77103428700886]	2021_Feb_04_1551	59.85270509196299	1	1
24	42	FALSE	NA	v	['Y', 'T', 'H', 'M', 'G', 'J', 'A', 'X', 'N', 'Z', 'C', 'V', 'K', 'B', 'E', 'W']	[2670, 1888, 986, 1224, 944, 1029, 697, 4000, 1335, 2911, 829, 2245, 1122, 760, 904, 2448]	8	Present	NA	NA	PRESENT	0.16135096549987793	250.75039505958557	252.75726890563965	253.34090995788577	253.69128799438477	256.8749029636383	4.117634057998657	[250.77074098587036, 250.88736295700073, 251.8717520236969, 252.03842091560364, 252.78970789909363, 252.9062659740448, 253.02301812171936, 253.13985204696655, 253.25646090507507, 253.37345099449158, 253.49012899398804, 253.6069691181183, 253.7236030101776, 253.84085893630981, 253.95728302001953, 254.07412195205688, 254.19098901748657, 254.30755591392517, 254.4244899749756, 254.54127407073975, 254.65802907943726, 254.8749029636383]	[250.77103428700886, 250.88770095367553, 251.87070095367554, 252.03740095367553, 252.78740095367553, 252.9040676203422, 253.02073428700888, 253.13740095367555, 253.25406762034223, 253.3707342870089, 253.48740095367558, 253.60406762034225, 253.72073428700892, 253.8374009536756, 253.95406762034227, 254.07073428700895, 254.18740095367562, 254.3040676203423, 254.42073428700897, 254.53740095367564, 254.65406762034232, 254.88740095367564]	2021_Feb_04_1551	59.85270509196299	1	1
24	43	FALSE	NA	v	['Z', 'A', 'V', 'K', 'J', 'S', 'H', 'X', 'M', 'Y', 'W', 'C', 'P', 'U', 'N', 'B']	[2911, 697, 2245, 1122, 1029, 1731, 986, 4000, 1224, 2670, 2448, 829, 1456, 2059, 1335, 760]	8	Present	NA	NA	PRESENT	0.2947571277618408	256.8732690811157	258.8735508918762	259.45748805999756	259.8073101043701	262.9912700653076	4.1177191734313965	[256.8936150074005, 257.0110239982605, 257.9950029850006, 258.1617810726166, 258.9126400947571, 259.02936005592346, 259.14617395401, 259.2630410194397, 259.37971806526184, 259.49704599380493, 259.61320900917053, 259.73006892204285, 259.84696197509766, 259.9637351036072, 260.0805540084839, 260.19716691970825, 260.3139989376068, 260.4308400154114, 260.5477750301361, 260.6644151210785, 260.76462411880493, 260.9912691116333]	[256.88740095367564, 257.0040676203423, 257.9870676203423, 258.1537676203423, 258.9037676203423, 259.020434287009, 259.13710095367566, 259.25376762034233, 259.370434287009, 259.4871009536757, 259.60376762034235, 259.720434287009, 259.8371009536757, 259.9537676203424, 260.07043428700905, 260.1871009536757, 260.3037676203424, 260.4204342870091, 260.53710095367575, 260.6537676203424, 260.7704342870091, 261.00376762034244]	2021_Feb_04_1551	59.85270509196299	1	1
24	44	FALSE	NA	v	['Z', 'J', 'G', 'T', 'B', 'P', 'C', 'N', 'W', 'R', 'U', 'M', 'X', 'A', 'V', 'Y']	[2911, 1029, 944, 1888, 760, 1456, 829, 1335, 2448, 1587, 2059, 1224, 4000, 697, 2245, 2670]	13	Present	NA	NA	PRESENT	0.2990231513977051	262.98010993003845	264.99002289772034	266.15710401535034	266.50706791877747	269.10763692855835	4.117614030838013	[263.0004560947418, 263.1171090602875, 264.10147500038147, 264.26832008361816, 265.0189929008484, 265.13599705696106, 265.2525930404663, 265.36942195892334, 265.48613691329956, 265.6028320789337, 265.719829082489, 265.8366301059723, 265.95335602760315, 266.0701711177826, 266.18700194358826, 266.3036758899689, 266.42057609558105, 266.53738498687744, 266.6541678905487, 266.77111196517944, 266.887815952301, 267.10763812065125]	[263.00376762034244, 263.1204342870091, 264.1034342870091, 264.2701342870091, 265.0201342870091, 265.1368009536758, 265.25346762034246, 265.37013428700914, 265.4868009536758, 265.6034676203425, 265.72013428700916, 265.83680095367583, 265.9534676203425, 266.0701342870092, 266.18680095367586, 266.30346762034253, 266.4201342870092, 266.5368009536759, 266.65346762034255, 266.7701342870092, 266.8868009536759, 267.12013428700925]	2021_Feb_04_1551	59.85270509196299	1	1
24	45	FALSE	NN	v	['Y', 'M', 'T', 'C', 'S', 'H', 'K', 'R', 'Z', 'W', 'E', 'B', 'V', 'U', 'N', 'G']	[2670, 1224, 1888, 829, 1731, 986, 1122, 1587, 2911, 2448, 904, 760, 2245, 2059, 1335, 944]	13	Absent	NA	NA	ABSENT	0.6796460151672363	269.1030569076538	271.1064040660858	272.2735929489136	272.62333703041077	275.22400403022766	4.117599964141846	[269.1234030723572, 269.240345954895, 270.2244849205017, 270.39148902893066, 271.14216589927673, 271.2591710090637, 271.37578201293945, 271.49265694618225, 271.6094739437103, 271.72632789611816, 271.84314799308777, 271.95971608161926, 272.07671189308167, 272.19330501556396, 272.3105010986328, 272.42691111564636, 272.54373598098755, 272.6605980396271, 272.7772970199585, 272.8940460681915, 273.0111029148102, 273.22400307655334]	[269.12013428700925, 269.2368009536759, 270.21980095367593, 270.3865009536759, 271.1365009536759, 271.2531676203426, 271.36983428700927, 271.48650095367594, 271.6031676203426, 271.7198342870093, 271.83650095367597, 271.95316762034264, 272.0698342870093, 272.186500953676, 272.30316762034266, 272.41983428700934, 272.536500953676, 272.6531676203427, 272.76983428700936, 272.88650095367603, 273.0031676203427, 273.23650095367606]	2021_Feb_04_1551	59.85270509196299	1	1
24	46	FALSE	NV	v	['K', 'Y', 'V', 'A', 'U', 'P', 'G', 'C', 'J', 'X', 'W', 'N', 'H', 'Z', 'B', 'M']	[1122, 2670, 2245, 697, 2059, 1456, 944, 829, 1029, 4000, 2448, 1335, 986, 2911, 760, 1224]	10	Present	NA	NA	PRESENT	0.277163028717041	275.2094519138336	277.22261095046997	278.040323972702	278.38968801498413	281.3403699398041	4.1177589893341064	[275.229798078537, 275.3465950489044, 276.33101201057434, 276.49781799316406, 277.2655529975891, 277.3654320240021, 277.4822380542755, 277.59909200668335, 277.7159790992737, 277.832612991333, 277.9495930671692, 278.06614804267883, 278.1830151081085, 278.2998960018158, 278.4166069030762, 278.53354692459106, 278.6502261161804, 278.7671549320221, 278.8838560581207, 279.0005180835724, 279.11748909950256, 279.34036898612976]	[275.23650095367606, 275.35316762034273, 276.33616762034274, 276.5028676203427, 277.2528676203427, 277.3695342870094, 277.4862009536761, 277.60286762034275, 277.7195342870094, 277.8362009536761, 277.9528676203428, 278.06953428700945, 278.1862009536761, 278.3028676203428, 278.41953428700947, 278.53620095367614, 278.6528676203428, 278.7695342870095, 278.88620095367617, 279.00286762034284, 279.1195342870095, 279.35286762034286]	2021_Feb_04_1551	59.85270509196299	1	1
24	47	FALSE	NA	v	['P', 'Y', 'Z', 'T', 'W', 'U', 'G', 'S', 'N', 'J', 'X', 'B', 'A', 'M', 'K', 'H']	[1456, 2670, 2911, 1888, 2448, 2059, 944, 1731, 1335, 1029, 4000, 760, 697, 1224, 1122, 986]	11	Present	NA	NA	PRESENT	0.04175090789794922	281.33292603492737	283.3390851020813	284.27277994155884	284.6229329109192	287.4567370414734	4.11765193939209	[281.35327196121216, 281.47012996673584, 282.4546699523926, 282.62113904953003, 283.3718729019165, 283.4888050556183, 283.60557198524475, 283.7224609851837, 283.83907198905945, 283.9559109210968, 284.07267808914185, 284.189532995224, 284.30621099472046, 284.4230659008026, 284.53989005088806, 284.65682005882263, 284.77351808547974, 284.890172958374, 285.00720405578613, 285.12393593788147, 285.2407069206238, 285.4567370414734]	[281.35286762034286, 281.46953428700954, 282.45253428700954, 282.61923428700953, 283.36923428700953, 283.4859009536762, 283.6025676203429, 283.71923428700956, 283.83590095367623, 283.9525676203429, 284.0692342870096, 284.18590095367625, 284.3025676203429, 284.4192342870096, 284.5359009536763, 284.65256762034295, 284.7692342870096, 284.8859009536763, 285.002567620343, 285.11923428700965, 285.2359009536763, 285.46923428700967]	2021_Feb_04_1551	59.85270509196299	1	1
24	48	FALSE	NV	v	['N', 'S', 'K', 'C', 'G', 'U', 'A', 'X', 'M', 'H', 'P', 'E', 'J', 'T', 'B', 'W']	[1335, 1731, 1122, 829, 944, 2059, 697, 4000, 1224, 986, 1456, 904, 1029, 1888, 760, 2448]	8	Present	NA	NA	PRESENT	0.30296802520751953	287.4561059474945	289.45534801483154	290.0393490791321	290.3891429901123	293.5731029510498	4.117754936218262	[287.4764530658722, 287.5929880142212, 288.5773649215698, 288.7444019317627, 289.4951128959656, 289.6120460033417, 289.72889399528503, 289.845577955246, 289.9624481201172, 290.0791668891907, 290.195974111557, 290.31260991096497, 290.4295790195465, 290.54614090919495, 290.663192987442, 290.7798810005188, 290.89674401283264, 291.0134460926056, 291.13009905815125, 291.24697494506836, 291.3469979763031, 291.5731029510498]	[287.46923428700967, 287.58590095367634, 288.56890095367635, 288.73560095367634, 289.48560095367634, 289.602267620343, 289.7189342870097, 289.83560095367636, 289.95226762034304, 290.0689342870097, 290.1856009536764, 290.30226762034306, 290.41893428700973, 290.5356009536764, 290.6522676203431, 290.76893428700976, 290.88560095367643, 291.0022676203431, 291.1189342870098, 291.23560095367645, 291.3522676203431, 291.5856009536765]	2021_Feb_04_1551	59.85270509196299	1	1
24	49	FALSE	NV	v	['U', 'M', 'H', 'T', 'N', 'V', 'W', 'B', 'S', 'E', 'P', 'X', 'G', 'Z', 'Y', 'R']	[2059, 1224, 986, 1888, 1335, 2245, 2448, 760, 1731, 904, 1456, 4000, 944, 2911, 2670, 1587]	12	Present	NA	NA	PRESENT	0.259552001953125	293.5628740787506	295.57170605659485	296.6222610473633	296.97221302986145	299.6894700527191	4.117763996124268	[293.5832209587097, 293.6997129917145, 294.68400502204895, 294.85088300704956, 295.60159397125244, 295.71850299835205, 295.8351800441742, 295.9520699977875, 296.0689470767975, 296.18570590019226, 296.3023500442505, 296.4192841053009, 296.5358901023865, 296.652626991272, 296.76959705352783, 296.88610911369324, 297.0031690597534, 297.1198630332947, 297.23689103126526, 297.35357308387756, 297.47038412094116, 297.68947100639343]	[293.5856009536765, 293.70226762034315, 294.68526762034315, 294.85196762034315, 295.60196762034315, 295.7186342870098, 295.8353009536765, 295.95196762034317, 296.06863428700984, 296.1853009536765, 296.3019676203432, 296.41863428700987, 296.53530095367654, 296.6519676203432, 296.7686342870099, 296.88530095367656, 297.00196762034324, 297.1186342870099, 297.2353009536766, 297.35196762034326, 297.46863428700993, 297.7019676203433]	2021_Feb_04_1551	59.85270509196299	1	1
24	50	FALSE	NN	v	['R', 'S', 'G', 'Y', 'W', 'Z', 'E', 'P', 'K', 'N', 'H', 'C', 'V', 'J', 'B', 'M']	[1587, 1731, 944, 2670, 2448, 2911, 904, 1456, 1122, 1335, 986, 829, 2245, 1029, 760, 1224]	10	Absent	NA	NA	ABSENT	0.5200719833374023	299.68565607070923	301.688353061676	302.5053060054779	302.85529589653015	305.80583691596985	4.117483854293823	[299.706001996994, 299.82283210754395, 300.8072040081024, 300.97399711608887, 301.7249119281769, 301.84157705307007, 301.95834398269653, 302.07518792152405, 302.1921799182892, 302.3088068962097, 302.42561411857605, 302.54238390922546, 302.6592400074005, 302.7760190963745, 302.892746925354, 303.0094749927521, 303.126296043396, 303.2431221008301, 303.36008405685425, 303.4765930175781, 303.59340500831604, 303.80583810806274]	[299.7019676203433, 299.81863428700996, 300.80163428700996, 300.96833428700995, 301.71833428700995, 301.8350009536766, 301.9516676203433, 302.06833428701, 302.18500095367665, 302.3016676203433, 302.41833428701, 302.5350009536767, 302.65166762034335, 302.76833428701, 302.8850009536767, 303.00166762034337, 303.11833428701004, 303.2350009536767, 303.3516676203434, 303.46833428701007, 303.58500095367674, 303.8183342870101]	2021_Feb_04_1551	59.85270509196299	1	1
24	51	FALSE	NV	v	['G', 'E', 'A', 'J', 'C', 'K', 'N', 'T', 'B', 'X', 'R', 'U', 'M', 'P', 'V', 'W']	[944, 904, 697, 1029, 829, 1122, 1335, 1888, 760, 4000, 1587, 2059, 1224, 1456, 2245, 2448]	10	Present	NA	NA	PRESENT	0.1573808193206787	305.7920320034027	307.80456805229187	308.6215829849243	308.97151494026184	311.92220401763916	4.11763596534729	[305.8123779296875, 305.9294230937958, 306.91382694244385, 307.08036708831787, 307.84818601608276, 307.94824409484863, 308.0648949146271, 308.1817350387573, 308.298485994339, 308.41543102264404, 308.53200006484985, 308.64896297454834, 308.7655780315399, 308.88253593444824, 308.9990870952606, 309.11585211753845, 309.232950925827, 309.34963607788086, 309.46647810935974, 309.58325600624084, 309.7000980377197, 309.92220401763916]	[305.8183342870101, 305.93500095367676, 306.91800095367677, 307.08470095367676, 307.83470095367676, 307.95136762034343, 308.0680342870101, 308.1847009536768, 308.30136762034346, 308.41803428701013, 308.5347009536768, 308.6513676203435, 308.76803428701015, 308.8847009536768, 309.0013676203435, 309.1180342870102, 309.23470095367685, 309.3513676203435, 309.4680342870102, 309.5847009536769, 309.70136762034355, 309.9347009536769]	2021_Feb_04_1551	59.85270509196299	1	1
24	52	FALSE	NV	v	['T', 'J', 'V', 'Z', 'G', 'R', 'K', 'C', 'N', 'X', 'Y', 'S', 'U', 'P', 'B', 'M']	[1888, 1029, 2245, 2911, 944, 1587, 1122, 829, 1335, 4000, 2670, 1731, 2059, 1456, 760, 1224]	10	Present	NA	NA	PRESENT	0.33011794090270996	311.91556096076965	313.9207899570465	314.7380950450897	315.0886330604553	318.0385699272156	4.117779970169067	[311.935907125473, 312.0525689125061, 313.0369670391083, 313.203565120697, 313.95491099357605, 314.0714199542999, 314.1881248950958, 314.30476808547974, 314.4216821193695, 314.5385859012604, 314.65531301498413, 314.7720239162445, 314.88892102241516, 315.005695104599, 315.122505903244, 315.2393009662628, 315.35600090026855, 315.4727430343628, 315.5897340774536, 315.7063899040222, 315.8233060836792, 316.0385699272156]	[311.9347009536769, 312.05136762034357, 313.0343676203436, 313.20106762034357, 313.95106762034357, 314.06773428701024, 314.1844009536769, 314.3010676203436, 314.41773428701026, 314.53440095367694, 314.6510676203436, 314.7677342870103, 314.88440095367696, 315.00106762034363, 315.1177342870103, 315.234400953677, 315.35106762034366, 315.46773428701033, 315.584400953677, 315.7010676203437, 315.81773428701035, 316.0510676203437]	2021_Feb_04_1551	59.85270509196299	1	1
24	53	FALSE	NA	v	['C', 'U', 'S', 'P', 'W', 'E', 'V', 'Y', 'G', 'T', 'Z', 'X', 'N', 'B', 'R', 'A']	[829, 2059, 1731, 1456, 2448, 904, 2245, 2670, 944, 1888, 2911, 4000, 1335, 760, 1587, 697]	12	Present	NA	NA	PRESENT	0.17511510848999023	318.03871488571167	320.0374059677124	321.0879030227661	321.4389660358429	324.1549370288849	4.117531061172485	[318.05906200408936, 318.1756389141083, 319.14328598976135, 319.3100280761719, 320.0777530670166, 320.19458293914795, 320.311439037323, 320.4280729293823, 320.5450351238251, 320.661808013916, 320.77838706970215, 320.8953709602356, 321.01204204559326, 321.1288409233093, 321.2288360595703, 321.3624999523163, 321.4792730808258, 321.57923007011414, 321.6960530281067, 321.81281900405884, 321.92973494529724, 322.1549370288849]	[318.0510676203437, 318.1677342870104, 319.1507342870104, 319.31743428701037, 320.06743428701037, 320.18410095367705, 320.3007676203437, 320.4174342870104, 320.53410095367707, 320.65076762034374, 320.7674342870104, 320.8841009536771, 321.00076762034377, 321.11743428701044, 321.2341009536771, 321.3507676203438, 321.46743428701046, 321.58410095367714, 321.7007676203438, 321.8174342870105, 321.93410095367716, 322.1674342870105]	2021_Feb_04_1551	59.85270509196299	1	1
24	54	FALSE	NV	v	['U', 'J', 'V', 'K', 'A', 'N', 'R', 'C', 'W', 'X', 'P', 'B', 'T', 'Y', 'H', 'Z']	[2059, 1029, 2245, 1122, 697, 1335, 1587, 829, 2448, 4000, 1456, 760, 1888, 2670, 986, 2911]	10	Present	NA	NA	PRESENT	0.17976999282836914	324.145339012146	326.15357089042664	326.9706790447235	327.32081604003906	330.2713029384613	4.117732048034668	[324.165687084198, 324.28223609924316, 325.2665739059448, 325.4334909915924, 326.1841399669647, 326.30106592178345, 326.4176230430603, 326.53468203544617, 326.6512379646301, 326.76832604408264, 326.88505697250366, 327.00176310539246, 327.11869192123413, 327.2354140281677, 327.35225200653076, 327.46883392333984, 327.5856809616089, 327.70252299308777, 327.8191831111908, 327.93604493141174, 328.05296993255615, 328.2713029384613]	[324.1674342870105, 324.2841009536772, 325.2671009536772, 325.4338009536772, 326.1838009536772, 326.30046762034385, 326.4171342870105, 326.5338009536772, 326.6504676203439, 326.76713428701055, 326.8838009536772, 327.0004676203439, 327.1171342870106, 327.23380095367725, 327.3504676203439, 327.4671342870106, 327.58380095367727, 327.70046762034394, 327.8171342870106, 327.9338009536773, 328.05046762034397, 328.2838009536773]	2021_Feb_04_1551	59.85270509196299	1	1
24	55	FALSE	NA	v	['W', 'V', 'A', 'P', 'E', 'M', 'T', 'G', 'Z', 'K', 'R', 'N', 'X', 'C', 'B', 'H']	[2448, 2245, 697, 1456, 904, 1224, 1888, 944, 2911, 1122, 1587, 1335, 4000, 829, 760, 986]	13	Present	NA	NA	PRESENT	0.3052690029144287	330.2681999206543	332.27014994621277	333.4370610713959	333.7871398925781	336.3876700401306	4.117520093917847	[330.288547039032, 330.40530800819397, 331.38955998420715, 331.55651593208313, 332.30746507644653, 332.42405796051025, 332.5408639907837, 332.65770506858826, 332.7746820449829, 332.89135789871216, 333.00823307037354, 333.125009059906, 333.24174189567566, 333.35873889923096, 333.4753019809723, 333.5920789241791, 333.7088129520416, 333.8259460926056, 333.9423770904541, 334.0592589378357, 334.1592299938202, 334.38767099380493]	[330.2838009536773, 330.400467620344, 331.383467620344, 331.550167620344, 332.300167620344, 332.41683428701066, 332.53350095367733, 332.650167620344, 332.7668342870107, 332.88350095367736, 333.00016762034403, 333.1168342870107, 333.2335009536774, 333.35016762034405, 333.4668342870107, 333.5835009536774, 333.7001676203441, 333.81683428701075, 333.9335009536774, 334.0501676203441, 334.1668342870108, 334.4001676203441]	2021_Feb_04_1551	59.85270509196299	1	1
24	56	FALSE	NA	v	['U', 'V', 'C', 'Z', 'G', 'R', 'P', 'T', 'K', 'B', 'E', 'N', 'X', 'W', 'J', 'A']	[2059, 2245, 829, 2911, 944, 1587, 1456, 1888, 1122, 760, 904, 1335, 4000, 2448, 1029, 697]	13	Present	NA	NA	PRESENT	0.24578499794006348	336.3748619556427	338.3863480091095	339.55349802970886	339.90333104133606	342.50403690338135	4.117688894271851	[336.39520812034607, 336.51171112060547, 337.49629497528076, 337.6629240512848, 338.4308400154114, 338.53078603744507, 338.64735198020935, 338.7641410827637, 338.8809859752655, 338.99772000312805, 339.1145770549774, 339.2314829826355, 339.3483340740204, 339.4649600982666, 339.581857919693, 339.6986880302429, 339.8154470920563, 339.9322819709778, 340.04908895492554, 340.16572999954224, 340.28268694877625, 340.50403809547424]	[336.4001676203441, 336.5168342870108, 337.4998342870108, 337.6665342870108, 338.4165342870108, 338.53320095367746, 338.64986762034414, 338.7665342870108, 338.8832009536775, 338.99986762034416, 339.11653428701084, 339.2332009536775, 339.3498676203442, 339.46653428701086, 339.58320095367753, 339.6998676203442, 339.8165342870109, 339.93320095367756, 340.04986762034423, 340.1665342870109, 340.2832009536776, 340.5165342870109]	2021_Feb_04_1551	59.85270509196299	1	1
24	57	FALSE	NN	v	['S', 'E', 'U', 'N', 'Z', 'C', 'G', 'Y', 'R', 'W', 'M', 'B', 'T', 'V', 'A', 'H']	[1731, 904, 2059, 1335, 2911, 829, 944, 2670, 1587, 2448, 1224, 760, 1888, 2245, 697, 986]	9	Absent	NA	NA	ABSENT	1.0105340480804443	342.49820494651794	344.5029489994049	345.20314288139343	345.55316495895386	348.62040400505066	4.117455005645752	[342.51855206489563, 342.6351509094238, 343.61986207962036, 343.7861521244049, 344.5370759963989, 344.653785943985, 344.7705430984497, 344.8876030445099, 345.004380941391, 345.12123107910156, 345.2379479408264, 345.3547580242157, 345.47144293785095, 345.5883469581604, 345.7050271034241, 345.82165598869324, 345.9387550354004, 346.0554130077362, 346.17243099212646, 346.2889211177826, 346.40566992759705, 346.62040400505066]	[342.5165342870109, 342.6332009536776, 343.6162009536776, 343.7829009536776, 344.5329009536776, 344.64956762034427, 344.76623428701095, 344.8829009536776, 344.9995676203443, 345.11623428701097, 345.23290095367764, 345.3495676203443, 345.466234287011, 345.58290095367767, 345.69956762034434, 345.816234287011, 345.9329009536777, 346.04956762034436, 346.16623428701104, 346.2829009536777, 346.3995676203444, 346.63290095367773]	2021_Feb_04_1551	59.85270509196299	1	1
24	58	FALSE	NA	v	['V', 'S', 'Z', 'U', 'N', 'A', 'E', 'P', 'K', 'M', 'X', 'W', 'B', 'J', 'R', 'C']	[2245, 1731, 2911, 2059, 1335, 697, 904, 1456, 1122, 1224, 4000, 2448, 760, 1029, 1587, 829]	11	Present	NA	NA	PRESENT	0.22347092628479004	348.6211450099945	350.6190619468689	351.5530951023102	351.903028011322	354.7367699146271	4.117707967758179	[348.6414909362793, 348.7582049369812, 349.7258069515228, 349.89271092414856, 350.6602029800415, 350.7771260738373, 350.8939039707184, 351.01078701019287, 351.12747502326965, 351.24426198005676, 351.3441689014435, 351.4609999656677, 351.57787704467773, 351.6946439743042, 351.8114368915558, 351.928160905838, 352.0449550151825, 352.16177201271057, 352.2785339355469, 352.3953309059143, 352.5122809410095, 352.7367699146271]	[348.63290095367773, 348.7495676203444, 349.7325676203444, 349.8992676203444, 350.6492676203444, 350.7659342870111, 350.88260095367775, 350.9992676203444, 351.1159342870111, 351.2326009536778, 351.34926762034445, 351.4659342870111, 351.5826009536778, 351.6992676203445, 351.81593428701115, 351.9326009536778, 352.0492676203445, 352.16593428701117, 352.28260095367784, 352.3992676203445, 352.5159342870112, 352.74926762034454]	2021_Feb_04_1551	59.85270509196299	1	1
24	59	FALSE	VA	v	['H', 'V', 'G', 'T', 'surprise', 'U', 'B', 'X', 'N', 'R', 'Z', 'K', 'Y', 'W', 'J', 'A']	[986, 2245, 944, 1888, 'stimAuditory/all_stimAuditory/123.wav', 2059, 760, 4000, 1335, 1587, 2911, 1122, 2670, 2448, 1029, 697]	8	Present	NA	stimVisual/all_stimVisual/106.jpg	ABSENT	0.4921300411224365	354.7278380393982	356.7353060245514	357.3192720413208	357.6694059371948	360.8531370162964	4.117830991744995	[354.7481849193573, 354.86493492126465, 355.8493130207062, 356.0159900188446, 356.76671600341797, 356.8836040496826, 357.0005829334259, 357.11711502075195, 357.2339839935303, 357.3505868911743, 357.4677450656891, 357.58434009552, 357.7010691165924, 357.8179130554199, 357.9348258972168, 358.05147194862366, 358.1684260368347, 358.2851800918579, 358.4017128944397, 358.5185971260071, 358.63544607162476, 358.85313606262207]	[354.74926762034454, 354.8659342870112, 355.8489342870112, 356.0156342870112, 356.7656342870112, 356.8823009536779, 356.99896762034456, 357.11563428701123, 357.2323009536779, 357.3489676203446, 357.46563428701126, 357.58230095367793, 357.6989676203446, 357.8156342870113, 357.93230095367795, 358.0489676203446, 358.1656342870113, 358.282300953678, 358.39896762034465, 358.5156342870113, 358.632300953678, 358.86563428701135]	2021_Feb_04_1551	59.85270509196299	1	1
24	60	FALSE	NN	v	['K', 'E', 'Z', 'G', 'Y', 'B', 'A', 'J', 'U', 'N', 'W', 'V', 'M', 'H', 'P', 'R']	[1122, 904, 2911, 944, 2670, 760, 697, 1029, 2059, 1335, 2448, 2245, 1224, 986, 1456, 1587]	13	Absent	NA	NA	ABSENT	1.0413219928741455	360.8508470058441	362.8517920970917	364.0192530155182	364.3691220283508	366.9695029258728	4.117710828781128	[360.8711941242218, 360.9881730079651, 361.9724180698395, 362.1391499042511, 362.88981890678406, 363.0071589946747, 363.12345790863037, 363.2405219078064, 363.35706210136414, 363.47392106056213, 363.59078311920166, 363.70754408836365, 363.8243169784546, 363.9409999847412, 364.0580880641937, 364.1746361255646, 364.29182600975037, 364.4083468914032, 364.5249869823456, 364.6418011188507, 364.7420279979706, 364.9695019721985]	[360.86563428701135, 360.982300953678, 361.965300953678, 362.132000953678, 362.882000953678, 362.9986676203447, 363.11533428701136, 363.23200095367804, 363.3486676203447, 363.4653342870114, 363.58200095367806, 363.69866762034474, 363.8153342870114, 363.9320009536781, 364.04866762034476, 364.16533428701143, 364.2820009536781, 364.3986676203448, 364.51533428701146, 364.63200095367813, 364.7486676203448, 364.98200095367815]	2021_Feb_04_1551	59.85270509196299	1	1
24	61	FALSE	NA	v	['A', 'S', 'B', 'U', 'V', 'M', 'R', 'J', 'X', 'Z', 'P', 'N', 'H', 'C', 'E', 'T']	[697, 1731, 760, 2059, 2245, 1224, 1587, 1029, 4000, 2911, 1456, 1335, 986, 829, 904, 1888]	9	Present	NA	NA	PRESENT	0.18991804122924805	366.9573640823364	368.96793007850647	369.66874289512634	370.0187718868256	373.0858700275421	4.1179399490356445	[366.97771096229553, 367.09453296661377, 368.07916498184204, 368.24556398391724, 368.99644804000854, 369.1131410598755, 369.2300729751587, 369.34670901298523, 369.463730096817, 369.58056807518005, 369.69723200798035, 369.8141920566559, 369.9306900501251, 370.04754304885864, 370.1645450592041, 370.28105998039246, 370.39790296554565, 370.51455211639404, 370.63146591186523, 370.7483561038971, 370.8650550842285, 371.0858700275421]	[366.98200095367815, 367.0986676203448, 368.08166762034483, 368.2483676203448, 368.9983676203448, 369.1150342870115, 369.23170095367817, 369.34836762034485, 369.4650342870115, 369.5817009536782, 369.69836762034487, 369.81503428701154, 369.9317009536782, 370.0483676203449, 370.16503428701157, 370.28170095367824, 370.3983676203449, 370.5150342870116, 370.63170095367826, 370.74836762034494, 370.8650342870116, 371.09836762034496]	2021_Feb_04_1551	59.85270509196299	1	1
24	62	FALSE	NV	v	['C', 'S', 'K', 'J', 'Y', 'B', 'G', 'E', 'R', 'Z', 'W', 'U', 'T', 'X', 'A', 'H']	[829, 1731, 1122, 1029, 2670, 760, 944, 904, 1587, 2911, 2448, 2059, 1888, 4000, 697, 986]	14	Present	NA	NA	PRESENT	0.40247201919555664	373.0805099010467	375.0849390029907	376.3685369491577	376.718435049057	379.2022368907929	4.117297887802124	[373.1008560657501, 373.217581987381, 374.2019829750061, 374.36919593811035, 375.1196999549866, 375.236300945282, 375.3532679080963, 375.46995997428894, 375.58697605133057, 375.70356011390686, 375.82049894332886, 375.93707299232483, 376.0543179512024, 376.1708838939667, 376.28763794898987, 376.4044198989868, 376.5211260318756, 376.63800597190857, 376.75466799736023, 376.87153911590576, 376.98835492134094, 377.20223593711853]	[373.09836762034496, 373.21503428701163, 374.19803428701164, 374.36473428701163, 375.11473428701163, 375.2314009536783, 375.348067620345, 375.46473428701165, 375.5814009536783, 375.698067620345, 375.8147342870117, 375.93140095367835, 376.048067620345, 376.1647342870117, 376.28140095367837, 376.39806762034505, 376.5147342870117, 376.6314009536784, 376.74806762034507, 376.86473428701174, 376.9814009536784, 377.21473428701177]	2021_Feb_04_1551	59.85270509196299	1	1
24	63	FALSE	NN	v	['J', 'V', 'T', 'U', 'R', 'M', 'K', 'Y', 'E', 'A', 'B', 'S', 'W', 'P', 'N', 'C']	[1029, 2245, 1888, 2059, 1587, 1224, 1122, 2670, 904, 697, 760, 1731, 2448, 1456, 1335, 829]	12	Absent	NA	NA	ABSENT	0.34366416931152344	379.20372200012207	381.2010760307312	382.2513659000397	382.6015958786011	385.31860399246216	4.117527961730957	[379.22406911849976, 379.3240280151367, 380.30859899520874, 380.47544598579407, 381.2428951263428, 381.3428120613098, 381.45959305763245, 381.5763781070709, 381.69321489334106, 381.81003499031067, 381.9267439842224, 382.0436260700226, 382.160444021225, 382.2771649360657, 382.3939919471741, 382.5107080936432, 382.62778902053833, 382.7443759441376, 382.8612949848175, 382.97790598869324, 383.09482407569885, 383.31860399246216]	[379.21473428701177, 379.33140095367844, 380.31440095367844, 380.48110095367844, 381.23110095367844, 381.3477676203451, 381.4644342870118, 381.58110095367846, 381.69776762034513, 381.8144342870118, 381.9311009536785, 382.04776762034516, 382.16443428701183, 382.2811009536785, 382.3977676203452, 382.51443428701185, 382.6311009536785, 382.7477676203452, 382.8644342870119, 382.98110095367855, 383.0977676203452, 383.3311009536786]	2021_Feb_04_1551	59.85270509196299	1	1
24	64	FALSE	NA	v	['R', 'M', 'E', 'C', 'U', 'J', 'A', 'T', 'W', 'B', 'Y', 'V', 'G', 'X', 'K', 'H']	[1587, 1224, 904, 829, 2059, 1029, 697, 1888, 2448, 760, 2670, 2245, 944, 4000, 1122, 986]	14	Present	NA	NA	PRESENT	0.2763671875	385.3105330467224	387.31728291511536	388.60119104385376	388.95122504234314	391.4349699020386	4.117686986923218	[385.3308789730072, 385.4474380016327, 386.43178510665894, 386.5986669063568, 387.34938311576843, 387.46627712249756, 387.5829689502716, 387.6999430656433, 387.81658911705017, 387.9332890510559, 388.05025005340576, 388.16696310043335, 388.2839000225067, 388.400484085083, 388.5173170566559, 388.63406801223755, 388.7510061264038, 388.86767196655273, 388.9842801094055, 389.10131311416626, 389.2178990840912, 389.4349699020386]	[385.3311009536786, 385.44776762034525, 386.43076762034525, 386.59746762034524, 387.34746762034524, 387.4641342870119, 387.5808009536786, 387.69746762034526, 387.81413428701194, 387.9308009536786, 388.0474676203453, 388.16413428701196, 388.28080095367864, 388.3974676203453, 388.514134287012, 388.63080095367866, 388.74746762034533, 388.864134287012, 388.9808009536787, 389.09746762034536, 389.21413428701203, 389.4474676203454]	2021_Feb_04_1551	59.85270509196299	1	1
24	65	FALSE	NA	v	['Z', 'P', 'K', 'N', 'H', 'Y', 'M', 'X', 'W', 'J', 'B', 'U', 'G', 'T', 'A', 'S']	[2911, 1456, 1122, 1335, 986, 2670, 1224, 4000, 2448, 1029, 760, 2059, 944, 1888, 697, 1731]	8	Present	NA	NA	PRESENT	0.3295159339904785	391.4334089756012	393.4335799217224	394.017520904541	394.3676929473877	397.5513370037079	4.117757081985474	[391.4537560939789, 391.57062792778015, 392.55496406555176, 392.7219181060791, 393.47252011299133, 393.5892479419708, 393.7060101032257, 393.8230290412903, 393.93973302841187, 394.05668592453003, 394.17341804504395, 394.29019498825073, 394.40694093704224, 394.5237729549408, 394.640615940094, 394.75737595558167, 394.87409591674805, 394.99102091789246, 395.1076080799103, 395.22429609298706, 395.3248550891876, 395.55133605003357]	[391.4474676203454, 391.56413428701205, 392.54713428701206, 392.71383428701205, 393.46383428701205, 393.5805009536787, 393.6971676203454, 393.81383428701207, 393.93050095367875, 394.0471676203454, 394.1638342870121, 394.28050095367877, 394.39716762034544, 394.5138342870121, 394.6305009536788, 394.74716762034546, 394.86383428701214, 394.9805009536788, 395.0971676203455, 395.21383428701216, 395.33050095367884, 395.5638342870122]	2021_Feb_04_1551	59.85270509196299	1	1
24	66	FALSE	NN	v	['J', 'Z', 'E', 'B', 'M', 'N', 'P', 'K', 'R', 'U', 'V', 'H', 'S', 'T', 'Y', 'A']	[1029, 2911, 904, 760, 1224, 1335, 1456, 1122, 1587, 2059, 2245, 986, 1731, 1888, 2670, 697]	14	Absent	NA	NA	ABSENT	0.22214603424072263	397.5398268699646	399.5501170158386	400.83406710624695	401.1838080883026	403.6677029132843	4.117585897445679	[397.56017303466797, 397.6769630908966, 398.66149401664734, 398.82835698127747, 399.5789120197296, 399.6958339214325, 399.8127250671387, 399.92953395843506, 400.04638504981995, 400.16291904449463, 400.27990889549255, 400.3965730667114, 400.5135109424591, 400.6301770210266, 400.74716305732727, 400.86376690864563, 400.9807081222534, 401.0973720550537, 401.2142798900604, 401.3309540748596, 401.44758701324463, 401.6677029132843]	[397.5638342870122, 397.68050095367886, 398.66350095367886, 398.83020095367885, 399.58020095367885, 399.69686762034553, 399.8135342870122, 399.9302009536789, 400.04686762034555, 400.1635342870122, 400.2802009536789, 400.3968676203456, 400.51353428701225, 400.6302009536789, 400.7468676203456, 400.86353428701227, 400.98020095367895, 401.0968676203456, 401.2135342870123, 401.33020095367897, 401.44686762034564, 401.680200953679]	2021_Feb_04_1551	59.85270509196299	1	1
24	67	FALSE	NN	v	['N', 'Z', 'E', 'S', 'T', 'A', 'J', 'Y', 'G', 'V', 'M', 'K', 'H', 'R', 'U', 'C']	[1335, 2911, 904, 1731, 1888, 697, 1029, 2670, 944, 2245, 1224, 1122, 986, 1587, 2059, 829]	12	Absent	NA	NA	ABSENT	0.22673797607421875	403.6632730960846	405.6663570404053	406.71680188179016	407.0669338703155	409.7840700149536	4.11771297454834	[403.6836199760437, 403.80030393600464, 404.7845959663391, 404.95163106918335, 405.70260310173035, 405.8191659450531, 405.93573212623596, 406.0527939796448, 406.1694850921631, 406.28645610809326, 406.4030051231384, 406.5199360847473, 406.63649892807007, 406.75332403182983, 406.8703501224518, 406.98708295822144, 407.1037139892578, 407.2206799983978, 407.33743500709534, 407.4543459415436, 407.57094407081604, 407.7840690612793]	[403.680200953679, 403.79686762034567, 404.77986762034567, 404.94656762034566, 405.69656762034566, 405.81323428701234, 405.929900953679, 406.0465676203457, 406.16323428701236, 406.27990095367903, 406.3965676203457, 406.5132342870124, 406.62990095367905, 406.74656762034573, 406.8632342870124, 406.9799009536791, 407.09656762034575, 407.2132342870124, 407.3299009536791, 407.4465676203458, 407.56323428701245, 407.7965676203458]	2021_Feb_04_1551	59.85270509196299	1	1
24	68	FALSE	AV	v	['S', 'Z', 'J', 'B', 'G', 'Y', 'U', 'C', 'surprise', 'H', 'K', 'X', 'M', 'V', 'A', 'N']	[1731, 2911, 1029, 760, 944, 2670, 2059, 829, 'stimAuditory/all_stimAuditory/212.wav', 986, 1122, 4000, 1224, 2245, 697, 1335]	12	Present	stimAuditory/all_stimAuditory/113.wav	stimVisual/all_stimVisual/118.jpg	PRESENT	0.17596912384033203	409.7694990634918	411.78280091285706	412.8331749439239	413.1831729412079	415.9004371166229	4.117636203765869	[409.7898449897766, 409.90663599967957, 410.8912019729614, 411.05788707733154, 411.8252820968628, 411.9254629611969, 412.04219102859497, 412.1590750217438, 412.2759540081024, 412.3926100730896, 412.5094530582428, 412.62615299224854, 412.7431490421295, 412.859797000885, 412.97679710388184, 413.0936179161072, 413.21038794517517, 413.3270010948181, 413.44405007362366, 413.56062602996826, 413.6775770187378, 413.9004371166229]	[409.7965676203458, 409.9132342870125, 410.8962342870125, 411.06293428701247, 411.81293428701247, 411.92960095367914, 412.0462676203458, 412.1629342870125, 412.27960095367916, 412.39626762034584, 412.5129342870125, 412.6296009536792, 412.74626762034586, 412.86293428701254, 412.9796009536792, 413.0962676203459, 413.21293428701256, 413.32960095367923, 413.4462676203459, 413.5629342870126, 413.67960095367926, 413.9129342870126]	2021_Feb_04_1551	59.85270509196299	1	1
24	69	FALSE	NA	v	['Y', 'E', 'U', 'W', 'A', 'H', 'Z', 'G', 'T', 'P', 'X', 'R', 'B', 'K', 'M', 'S']	[2670, 904, 2059, 2448, 697, 986, 2911, 944, 1888, 1456, 4000, 1587, 760, 1122, 1224, 1731]	11	Present	NA	NA	ABSENT	0.86869215965271	415.8930490016937	417.8993949890137	418.8328289985657	419.1829059123993	422.01680397987366	4.117408990859985	[415.9133961200714, 416.0297999382019, 417.01438093185425, 417.18131399154663, 417.9318790435791, 418.04862093925476, 418.16552901268005, 418.282418012619, 418.3991119861603, 418.51577401161194, 418.63286805152893, 418.74959897994995, 418.8663680553436, 418.9831340312958, 419.1000289916992, 419.2167329788208, 419.33354902267456, 419.4504339694977, 419.56697607040405, 419.6838629245758, 419.80048990249634, 420.016802072525]	[415.9129342870126, 416.0296009536793, 417.0126009536793, 417.1793009536793, 417.9293009536793, 418.04596762034595, 418.1626342870126, 418.2793009536793, 418.39596762034597, 418.51263428701265, 418.6293009536793, 418.745967620346, 418.86263428701267, 418.97930095367934, 419.095967620346, 419.2126342870127, 419.32930095367936, 419.44596762034604, 419.5626342870127, 419.6793009536794, 419.79596762034606, 420.0293009536794]	2021_Feb_04_1551	59.85270509196299	1	1
24	70	FALSE	NV	v	['B', 'S', 'M', 'E', 'H', 'R', 'T', 'X', 'C', 'J', 'U', 'N', 'Z', 'G', 'P', 'K']	[760, 1731, 1224, 904, 986, 1587, 1888, 4000, 829, 1029, 2059, 1335, 2911, 944, 1456, 1122]	8	Present	NA	NA	PRESENT	0.10602283477783205	422.01597905159	424.01549196243286	424.599426984787	424.9492800235748	428.1331698894501	4.117677927017212	[422.03632712364197, 422.15307211875916, 423.1377010345459, 423.3044970035553, 424.0550630092621, 424.17195200920105, 424.288654088974, 424.40563702583313, 424.5223879814148, 424.63911509513855, 424.75595903396606, 424.87273502349854, 424.9895370006561, 425.10614490509033, 425.22295093536377, 425.3401551246643, 425.4565501213074, 425.57355189323425, 425.6904020309448, 425.8069579601288, 425.90732407569885, 426.1331698894501]	[422.0293009536794, 422.1459676203461, 423.1289676203461, 423.2956676203461, 424.0456676203461, 424.16233428701275, 424.27900095367943, 424.3956676203461, 424.5123342870128, 424.62900095367945, 424.7456676203461, 424.8623342870128, 424.9790009536795, 425.09566762034615, 425.2123342870128, 425.3290009536795, 425.44566762034617, 425.56233428701285, 425.6790009536795, 425.7956676203462, 425.91233428701287, 426.1456676203462]	2021_Feb_04_1551	59.85270509196299	1	1
24	71	FALSE	NV	v	['N', 'K', 'R', 'P', 'H', 'T', 'Z', 'B', 'X', 'G', 'S', 'W', 'C', 'U', 'V', 'Y']	[1335, 1122, 1587, 1456, 986, 1888, 2911, 760, 4000, 944, 1731, 2448, 829, 2059, 2245, 2670]	9	Present	NA	NA	PRESENT	0.8782079219818115	428.1225459575653	430.13166308403015	430.832426071167	431.1825170516968	434.2495369911194	4.117873907089233	[428.1428940296173, 428.2596290111542, 429.2441349029541, 429.4109010696411, 430.1616361141205, 430.27856707572937, 430.3952639102936, 430.5119209289551, 430.6288890838623, 430.745521068573, 430.86248111724854, 430.9794819355011, 431.09608697891235, 431.21269607543945, 431.3296449184418, 431.4464089870453, 431.56314396858215, 431.6799919605255, 431.79662895202637, 431.9134519100189, 432.030385017395, 432.2495369911194]	[428.1456676203462, 428.2623342870129, 429.2453342870129, 429.4120342870129, 430.1620342870129, 430.27870095367956, 430.39536762034624, 430.5120342870129, 430.6287009536796, 430.74536762034626, 430.86203428701293, 430.9787009536796, 431.0953676203463, 431.21203428701295, 431.32870095367963, 431.4453676203463, 431.562034287013, 431.67870095367965, 431.7953676203463, 431.912034287013, 432.0287009536797, 432.262034287013]	2021_Feb_04_1551	59.85270509196299	1	1
24	72	FALSE	NN	v	['W', 'T', 'B', 'J', 'K', 'P', 'C', 'M', 'E', 'G', 'Y', 'U', 'R', 'V', 'H', 'S']	[2448, 1888, 760, 1029, 1122, 1456, 829, 1224, 904, 944, 2670, 2059, 1587, 2245, 986, 1731]	12	Absent	NA	NA	ABSENT	0.5468239784240723	434.24581599235535	436.2483520507813	437.2987868785858	437.64890599250793	440.3659029006958	4.117550849914551	[434.26616311073303, 434.3829369544983, 435.3675560951233, 435.5341229438782, 436.28502893447876, 436.4017639160156, 436.51835799217224, 436.6352880001068, 436.7519769668579, 436.8687810897827, 436.98552107810974, 437.1023631095886, 437.21927094459534, 437.3361179828644, 437.45271706581116, 437.569669008255, 437.6863520145416, 437.80300998687744, 437.9200510978699, 438.03677701950073, 438.1534540653229, 438.3659019470215]	[434.262034287013, 434.3787009536797, 435.3617009536797, 435.5284009536797, 436.2784009536797, 436.39506762034637, 436.51173428701304, 436.6284009536797, 436.7450676203464, 436.86173428701306, 436.97840095367974, 437.0950676203464, 437.2117342870131, 437.32840095367976, 437.44506762034644, 437.5617342870131, 437.6784009536798, 437.79506762034646, 437.91173428701313, 438.0284009536798, 438.1450676203465, 438.37840095367983]	2021_Feb_04_1551	59.85270509196299	1	1
24	73	FALSE	NV	v	['U', 'A', 'B', 'Z', 'J', 'K', 'T', 'E', 'G', 'X', 'W', 'N', 'P', 'M', 'H', 'V']	[2059, 697, 760, 2911, 1029, 1122, 1888, 904, 944, 4000, 2448, 1335, 1456, 1224, 986, 2245]	10	Present	NA	NA	PRESENT	0.39154696464538574	440.352087020874	442.3645570278168	443.181694984436	443.5317249298096	446.4822700023651	4.11771297454834	[440.37243390083313, 440.4891800880432, 441.4738669395447, 441.64047598838806, 442.4082770347595, 442.5081100463867, 442.624794960022, 442.7418611049652, 442.8585751056671, 442.97534108161926, 443.0921289920807, 443.2088670730591, 443.32577991485596, 443.44250106811523, 443.5593419075012, 443.6762230396271, 443.792906999588, 443.9096119403839, 444.02624893188477, 444.1432020664215, 444.2601499557495, 444.4822690486908]	[440.37840095367983, 440.4950676203465, 441.4780676203465, 441.6447676203465, 442.3947676203465, 442.5114342870132, 442.62810095367985, 442.7447676203465, 442.8614342870132, 442.97810095367987, 443.09476762034654, 443.2114342870132, 443.3281009536799, 443.44476762034657, 443.56143428701324, 443.6781009536799, 443.7947676203466, 443.91143428701326, 444.02810095367994, 444.1447676203466, 444.2614342870133, 444.49476762034664]	2021_Feb_04_1551	59.85270509196299	1	1
24	74	FALSE	VN	v	['T', 'Z', 'E', 'A', 'Y', 'G', 'V', 'N', 'surprise', 'H', 'P', 'K', 'J', 'R', 'M', 'U']	[1888, 2911, 904, 697, 2670, 944, 2245, 1335, 'stimAuditory/all_stimAuditory/224.wav', 986, 1456, 1122, 1029, 1587, 1224, 2059]	12	Absent	NA	stimVisual/all_stimVisual/207.jpg	ABSENT	0.10085582733154295	446.4758739471435	448.4810950756073	449.531378030777	449.88175106048584	452.5986371040344	4.117542028427124	[446.49622106552124, 446.612685918808, 447.5967810153961, 447.76388692855835, 448.51454997062683, 448.631383895874, 448.7482330799103, 448.8648929595947, 448.981586933136, 449.09855008125305, 449.2151930332184, 449.3321759700775, 449.44880199432373, 449.56573510169983, 449.6824281215668, 449.79925298690796, 449.9160280227661, 450.03281712532043, 450.1495819091797, 450.26650309562683, 450.38333201408386, 450.5986359119415]	[446.49476762034664, 446.6114342870133, 447.5944342870133, 447.7611342870133, 448.5111342870133, 448.62780095368, 448.74446762034665, 448.86113428701333, 448.97780095368, 449.0944676203467, 449.21113428701335, 449.32780095368, 449.4444676203467, 449.5611342870134, 449.67780095368005, 449.7944676203467, 449.9111342870134, 450.02780095368007, 450.14446762034675, 450.2611342870134, 450.3778009536801, 450.61113428701344]	2021_Feb_04_1551	59.85270509196299	1	1
24	75	FALSE	NV	v	['K', 'G', 'S', 'W', 'A', 'E', 'R', 'V', 'P', 'X', 'U', 'J', 'T', 'H', 'Z', 'N']	[1122, 944, 1731, 2448, 697, 904, 1587, 2245, 1456, 4000, 2059, 1029, 1888, 986, 2911, 1335]	10	Present	NA	NA	PRESENT	0.3940930366516114	452.59854102134705	454.5973300933838	455.41437792778015	455.76440501213074	458.7150030136109	4.117672920227051	[452.61888909339905, 452.7357349395752, 453.7198839187622, 453.87008810043335, 454.6377320289612, 454.75472807884216, 454.8712589740753, 454.98893189430237, 455.1047339439392, 455.2217299938202, 455.33847308158875, 455.455148935318, 455.57212495803833, 455.6889419555664, 455.8056991100311, 455.9055230617523, 456.02231097221375, 456.13917112350464, 456.2562119960785, 456.37278604507446, 456.48987007141113, 456.7150020599365]	[452.61113428701344, 452.7278009536801, 453.7108009536801, 453.8775009536801, 454.6275009536801, 454.7441676203468, 454.86083428701346, 454.97750095368013, 455.0941676203468, 455.2108342870135, 455.32750095368016, 455.44416762034683, 455.5608342870135, 455.6775009536802, 455.79416762034685, 455.91083428701353, 456.0275009536802, 456.1441676203469, 456.26083428701355, 456.3775009536802, 456.4941676203469, 456.72750095368025]	2021_Feb_04_1551	59.85270509196299	1	1
24	76	FALSE	NA	v	['W', 'J', 'M', 'A', 'G', 'V', 'K', 'Z', 'C', 'T', 'P', 'E', 'X', 'B', 'N', 'U']	[2448, 1029, 1224, 697, 944, 2245, 1122, 2911, 829, 1888, 1456, 904, 4000, 760, 1335, 2059]	13	Present	NA	NA	ABSENT	0.3267490863800049	458.7051250934601	460.7135410308838	461.8808720111847	462.2308700084686	464.83137106895447	4.117830038070679	[458.7254729270935, 458.8421320915222, 459.8267140388489, 459.99339389801025, 460.7442729473114, 460.8610339164734, 460.9779999256134, 461.0945830345154, 461.2114291191101, 461.32811093330383, 461.44498801231384, 461.5617780685425, 461.6786060333252, 461.79534912109375, 461.91197299957275, 462.0288989543915, 462.1458930969238, 462.26238894462585, 462.3793029785156, 462.49618697166443, 462.6130440235138, 462.83136892318726]	[458.72750095368025, 458.8441676203469, 459.8271676203469, 459.9938676203469, 460.7438676203469, 460.8605342870136, 460.97720095368027, 461.09386762034694, 461.2105342870136, 461.3272009536803, 461.44386762034696, 461.56053428701364, 461.6772009536803, 461.793867620347, 461.91053428701366, 462.02720095368034, 462.143867620347, 462.2605342870137, 462.37720095368036, 462.49386762034703, 462.6105342870137, 462.84386762034705]	2021_Feb_04_1551	59.85270509196299	1	1
24	77	FALSE	VV	v	['Z', 'M', 'T', 'V', 'surprise', 'S', 'N', 'X', 'C', 'E', 'A', 'P', 'B', 'R', 'W', 'K']	[2911, 1224, 1888, 2245, 'stimAuditory/all_stimAuditory/209.wav', 1731, 1335, 4000, 829, 904, 697, 1456, 760, 1587, 2448, 1122]	8	Present	NA	stimVisual/all_stimVisual/208.jpg	PRESENT	0.20410490036010745	464.82828187942505	466.82993507385254	467.4140908718109	467.7638750076294	470.9477369785309	4.117801904678345	[464.84862899780273, 464.96536111831665, 465.94976806640625, 466.1165859699249, 466.86773705482483, 466.9842839241028, 467.1010570526123, 467.2177519798279, 467.33462500572205, 467.4515058994293, 467.5680890083313, 467.6849889755249, 467.8018009662628, 467.9185891151428, 468.035218000412, 468.15205812454224, 468.2688250541687, 468.3857409954071, 468.50281405448914, 468.6190650463104, 468.7193419933319, 468.9477369785309]	[464.84386762034705, 464.96053428701373, 465.94353428701373, 466.1102342870137, 466.8602342870137, 466.9769009536804, 467.0935676203471, 467.21023428701375, 467.3269009536804, 467.4435676203471, 467.56023428701377, 467.67690095368044, 467.7935676203471, 467.9102342870138, 468.02690095368047, 468.14356762034714, 468.2602342870138, 468.3769009536805, 468.49356762034716, 468.61023428701384, 468.7269009536805, 468.96023428701386]	2021_Feb_04_1551	59.85270509196299	1	1
24	78	FALSE	NN	v	['M', 'T', 'V', 'B', 'J', 'A', 'N', 'Y', 'G', 'E', 'C', 'K', 'U', 'S', 'R', 'Z']	[1224, 1888, 2245, 760, 1029, 697, 1335, 2670, 944, 904, 829, 1122, 2059, 1731, 1587, 2911]	13	Absent	NA	NA	ABSENT	0.3765718936920166	470.9347789287567	472.94651198387146	474.113667011261	474.4634339809418	477.0641031265259	4.117591142654419	[470.9551260471344, 471.0719950199127, 472.05637311935425, 472.22333097457886, 472.99051094055176, 473.0907869338989, 473.20764207839966, 473.3242130279541, 473.4410090446472, 473.55786395072937, 473.67471289634705, 473.791384935379, 473.9081220626831, 474.0249481201172, 474.14190793037415, 474.258572101593, 474.3755040168762, 474.49222707748413, 474.6090590953827, 474.7258141040802, 474.84248995780945, 475.064101934433]	[470.96023428701386, 471.07690095368054, 472.05990095368054, 472.22660095368053, 472.97660095368053, 473.0932676203472, 473.2099342870139, 473.32660095368055, 473.4432676203472, 473.5599342870139, 473.6766009536806, 473.79326762034725, 473.9099342870139, 474.0266009536806, 474.1432676203473, 474.25993428701395, 474.3766009536806, 474.4932676203473, 474.60993428701397, 474.72660095368065, 474.8432676203473, 475.07660095368067]	2021_Feb_04_1551	59.85270509196299	1	1
24	79	FALSE	NN	v	['U', 'G', 'Z', 'W', 'R', 'A', 'K', 'V', 'M', 'J', 'B', 'S', 'P', 'Y', 'T', 'H']	[2059, 944, 2911, 2448, 1587, 697, 1122, 2245, 1224, 1029, 760, 1731, 1456, 2670, 1888, 986]	10	Absent	NA	NA	ABSENT	0.3412330150604248	477.05835008621216	479.06268787384033	479.8798530101776	480.2300069332123	483.1804699897766	4.117782115936279	[477.07869696617126, 477.19510793685913, 478.1795210838318, 478.3461790084839, 479.0971870422363, 479.21404099464417, 479.33075308799744, 479.44754910469055, 479.56444001197815, 479.68119597435, 479.797837972641, 479.9147570133209, 480.0314431190491, 480.14838695526123, 480.26490592956543, 480.38171792030334, 480.49871706962585, 480.6155309677124, 480.73216795921326, 480.8490889072418, 480.965882062912, 481.1804709434509]	[477.07660095368067, 477.19326762034734, 478.17626762034735, 478.34296762034734, 479.09296762034734, 479.209634287014, 479.3263009536807, 479.44296762034736, 479.55963428701403, 479.6763009536807, 479.7929676203474, 479.90963428701406, 480.02630095368073, 480.1429676203474, 480.2596342870141, 480.37630095368075, 480.49296762034743, 480.6096342870141, 480.7263009536808, 480.84296762034745, 480.9596342870141, 481.1929676203475]	2021_Feb_04_1551	59.85270509196299	1	1
