participant	trial_num	practice	task	condition	RSVP	RAP	probePos	probe_presence	surprise_sound	surprise_img	probe_response	probe_resp_time	first_fixation_time	trial_start_time	surprise_start_time	probe_start_time	trial_end_time	trial_duration	actualEventTimes	plannedEventTimes	date	framerate	marker_vol	RAP_vol
13	1	FALSE	NA	a	['N', 'J', 'B', 'A', 'H', 'R', 'Y', 'V', 'U', 'G', 'W', 'E', 'T', 'X', 'Z', 'C']	[1335, 1029, 760, 697, 986, 1587, 2670, 2245, 2059, 944, 2448, 904, 1888, 4000, 2911, 829]	14	Present	NA	NA	PRESENT	0.22152304649353027	3.0994415283203125e-6	1.999783992767334	3.283127339607656	3.6331282932619726	6.1038689613342285	4.1040849685668945	[0.009986162185668945, 0.1097099781036377, 1.08719801902771, 1.261152982711792, 2.028486967086792, 2.128648042678833, 2.24562406539917, 2.362257957458496, 2.479192018508911, 2.5958409309387207, 2.7125561237335205, 2.829411029815674, 2.9461171627044678, 3.063076972961426, 3.1799211502075195, 3.2966179847717285, 3.413527011871338, 3.530266046524048, 3.6469640731811523, 3.763918161392212, 3.8805510997772217, 4.1038689613342285]	[9.5367431640625e-07, 0.11666762033431641, 1.0996676203343163, 1.2663676203343164, 2.016367620334316, 2.133034286994316, 2.249700953654316, 2.3663676203143162, 2.4830342869743163, 2.5997009536343163, 2.7163676202943163, 2.8330342869543164, 2.9497009536143164, 3.0663676202743164, 3.1830342869343164, 3.2997009535943165, 3.4163676202543165, 3.5330342869143165, 3.6497009535743166, 3.7663676202343166, 3.8830342868943166, 4.11636762022765]	2021_Jan_28_1722	59.98083726836691	1	0.375
13	2	FALSE	NA	a	['V', 'B', 'Z', 'S', 'R', 'H', 'A', 'N', 'C', 'U', 'M', 'P', 'X', 'K', 'T', 'Y']	[2245, 760, 2911, 1731, 1587, 986, 697, 1335, 829, 2059, 1224, 1456, 4000, 1122, 1888, 2670]	13	Present	NA	NA	PRESENT	0.06580805778503418	6.106285095214844	8.113072156906128	9.27974573764492	9.62974669129924	12.220237016677856	4.1071648597717285	[6.116266965866089, 6.23294997215271, 7.20356011390686, 7.384425163269043, 8.135065078735352, 8.25189208984375, 8.368535041809082, 8.485491037368774, 8.60213303565979, 8.718999147415161, 8.836022138595581, 8.952697038650513, 9.069431066513062, 9.18622899055481, 9.30296015739441, 9.419683933258057, 9.536776065826416, 9.653450012207031, 9.770142078399658, 9.886857032775879, 10.003921031951904, 10.22023606300354]	[6.11636762022765, 6.23303428688765, 7.216034286887649, 7.382734286887649, 8.132734286887649, 8.24940095354765, 8.36606762020765, 8.48273428686765, 8.59940095352765, 8.716067620187651, 8.832734286847652, 8.949400953507652, 9.066067620167653, 9.182734286827653, 9.299400953487654, 9.416067620147654, 9.532734286807655, 9.649400953467655, 9.766067620127656, 9.882734286787656, 9.999400953447656, 10.232734286780989]	2021_Jan_28_1722	59.98083726836691	1	0.375
13	3	FALSE	NV	a	['N', 'V', 'R', 'T', 'J', 'P', 'A', 'Y', 'B', 'Z', 'H', 'K', 'X', 'M', 'S', 'U']	[1335, 2245, 1587, 1888, 1029, 1456, 697, 2670, 760, 2911, 986, 1122, 4000, 1224, 1731, 2059]	13	Present	NA	NA	PRESENT	0.47936010360717773	12.229449033737184	14.229329109191896	15.396002689930688	15.746005789352218	18.336601972579956	4.1072728633880615	[12.239431142807007, 12.356235980987549, 13.31992506980896, 13.507478952407837, 14.258172035217285, 14.358190059661865, 14.47497296333313, 14.591747045516968, 14.70864200592041, 14.825387954711914, 14.942155122756958, 15.058979988098145, 15.17571496963501, 15.292633056640625, 15.409358024597168, 15.526132106781006, 15.643013954162598, 15.759919166564941, 15.876785039901733, 15.993546962738037, 16.110177993774414, 16.33660316467285]	[12.232734286780989, 12.34940095344099, 13.33240095344099, 13.49910095344099, 14.24910095344099, 14.365767620100991, 14.482434286760991, 14.599100953420992, 14.715767620080992, 14.832434286740993, 14.949100953400993, 15.065767620060994, 15.182434286720994, 15.299100953380995, 15.415767620040995, 15.532434286700996, 15.649100953360996, 15.765767620020997, 15.882434286680997, 15.999100953340998, 16.115767620000998, 16.349100953334332]	2021_Jan_28_1722	59.98083726836691	1	0.375
13	4	FALSE	NN	a	['H', 'A', 'C', 'S', 'W', 'Y', 'K', 'P', 'B', 'V', 'E', 'G', 'R', 'M', 'J', 'T']	[986, 697, 829, 1731, 2448, 2670, 1122, 1456, 760, 2245, 904, 944, 1587, 1224, 1029, 1888]	9	Absent	NA	NA	ABSENT	0.18796610832214355	18.335986137390137	20.345590114593502	21.045597982366615	21.395600128113827	24.452969074249268	4.107378959655762	[18.34597897529602, 18.46262502670288, 19.436290979385376, 19.614200115203857, 20.36473798751831, 20.481600999832153, 20.598217964172363, 20.715054035186768, 20.83183193206787, 20.948650121688843, 21.065372943878174, 21.1822669506073, 21.29899001121521, 21.415889024734497, 21.532644987106323, 21.649523973464966, 21.766152143478394, 21.883056163787842, 21.999799013137817, 22.11661696434021, 22.233421087265015, 22.452969074249268]	[18.349100953334332, 18.46576761999433, 19.44876761999433, 19.61546761999433, 20.36546761999433, 20.48213428665433, 20.598800953314328, 20.715467619974326, 20.832134286634325, 20.948800953294324, 21.065467619954322, 21.18213428661432, 21.29880095327432, 21.41546761993432, 21.532134286594317, 21.648800953254316, 21.765467619914315, 21.882134286574313, 21.998800953234312, 22.11546761989431, 22.23213428655431, 22.465467619887644]	2021_Jan_28_1722	59.98083726836691	1	0.375
13	5	FALSE	VV	a	['J', 'S', 'W', 'T', 'surprise', 'R', 'A', 'X', 'B', 'G', 'Y', 'V', 'N', 'E', 'P', 'U']	[1029, 1731, 2448, 1888, 'stimAuditory/all_stimAuditory/101.wav', 1587, 697, 4000, 760, 944, 2670, 2245, 1335, 904, 1456, 2059]	8	Present	NA	NA	ABSENT	0.5442800521850586	24.45910096168518	26.46183705329895	27.04517825441206	27.395180400159273	30.5693359375	4.10749888420105	[24.46908211708069, 24.58585500717163, 25.55265712738037, 25.737221002578735, 26.48792314529419, 26.604764938354492, 26.721578121185303, 26.838266134262085, 26.95517897605896, 27.07191514968872, 27.18879199028015, 27.305495977401733, 27.42237615585327, 27.53893208503723, 27.656002044677734, 27.772573947906494, 27.889410972595215, 28.00624704360962, 28.12300395965576, 28.2396719455719, 28.35667395591736, 28.569337129592896]	[24.465467619887644, 24.582134286547642, 25.565134286547643, 25.73183428654764, 26.48183428654764, 26.59850095320764, 26.71516761986764, 26.831834286527638, 26.948500953187636, 27.065167619847635, 27.181834286507634, 27.298500953167633, 27.41516761982763, 27.53183428648763, 27.64850095314763, 27.765167619807627, 27.881834286467626, 27.998500953127625, 28.115167619787623, 28.231834286447622, 28.34850095310762, 28.581834286440955]	2021_Jan_28_1722	59.98083726836691	1	0.375
13	6	FALSE	NV	a	['R', 'G', 'Y', 'B', 'A', 'S', 'M', 'E', 'N', 'K', 'X', 'C', 'H', 'Z', 'P', 'T']	[1587, 944, 2670, 760, 697, 1731, 1224, 904, 1335, 1122, 4000, 829, 986, 2911, 1456, 1888]	11	Present	NA	NA	PRESENT	0.6136059761047363	30.56585192680359	32.578330993652344	33.51167147948971	33.86167338681835	36.685702085494995	4.107371091842651	[30.575833082199097, 30.692389011383057, 31.669026136398315, 31.84376096725464, 32.59446597099304, 32.71120595932007, 32.827895164489746, 32.944642066955566, 33.06160807609558, 33.178401947021484, 33.29522705078125, 33.41188097000122, 33.52863001823425, 33.64561700820923, 33.76236009597778, 33.87922406196594, 33.9958701133728, 34.112792015075684, 34.22945594787598, 34.346359968185425, 34.463062047958374, 34.68570303916931]	[30.581834286440955, 30.698500953100954, 31.681500953100954, 31.848200953100953, 32.59820095310096, 32.71486761976096, 32.83153428642096, 32.94820095308096, 33.064867619740966, 33.18153428640097, 33.29820095306097, 33.41486761972097, 33.531534286380975, 33.64820095304098, 33.76486761970098, 33.88153428636098, 33.998200953020984, 34.114867619680986, 34.23153428634099, 34.34820095300099, 34.46486761966099, 34.69820095299433]	2021_Jan_28_1722	59.98083726836691	1	0.375
13	7	FALSE	NA	a	['J', 'H', 'B', 'V', 'Z', 'S', 'Y', 'C', 'E', 'A', 'X', 'G', 'N', 'M', 'T', 'W']	[1029, 986, 760, 2245, 2911, 1731, 2670, 829, 904, 697, 4000, 944, 1335, 1224, 1888, 2448]	11	Present	NA	NA	PRESENT	0.01821494102478027	36.68894696235657	38.69488906860352	39.62823026969662	39.97823241544384	42.80206894874573	4.107179880142212	[36.698928117752075, 36.815606117248535, 37.785393953323364, 37.966663122177124, 38.71756315231323, 38.834470987319946, 38.95112705230713, 39.06805205345154, 39.18473410606384, 39.30162310600281, 39.41838216781616, 39.535048961639404, 39.65191602706909, 39.76863193511963, 39.88540816307068, 40.002156019210815, 40.1192581653595, 40.23581504821777, 40.35264301300049, 40.46939015388489, 40.58663010597229, 40.80206894874573]	[36.69820095299433, 36.81486761965433, 37.797867619654326, 37.964567619654325, 38.714567619654325, 38.83123428631433, 38.94790095297433, 39.06456761963433, 39.181234286294334, 39.297900952954336, 39.41456761961434, 39.53123428627434, 39.64790095293434, 39.764567619594345, 39.88123428625435, 39.99790095291435, 40.11456761957435, 40.231234286234354, 40.347900952894356, 40.46456761955436, 40.58123428621436, 40.814567619547695]	2021_Jan_28_1722	59.98083726836691	1	0.375
13	8	FALSE	NA	a	['C', 'S', 'W', 'A', 'E', 'V', 'B', 'G', 'Y', 'X', 'T', 'J', 'R', 'P', 'M', 'K']	[829, 1731, 2448, 697, 904, 2245, 760, 944, 2670, 4000, 1888, 1029, 1587, 1456, 1224, 1122]	10	Present	NA	NA	PRESENT	0.10368013381958008	42.81204605102539	44.81125998497009	45.62793380414747	45.977936665150416	48.91843605041504	4.107176065444946	[42.82202696800232, 42.938804149627686, 43.90176010131836, 44.073168992996216, 44.840705156326294, 44.940850019454956, 45.05756902694702, 45.17428708076477, 45.291064977645874, 45.40786409378052, 45.524686098098755, 45.64141511917114, 45.75825500488281, 45.875203132629395, 45.99189496040344, 46.10884404182434, 46.22550702095032, 46.342337131500244, 46.45926809310913, 46.57595205307007, 46.69265699386597, 46.91843605041504]	[42.814567619547695, 42.9312342862077, 43.914234286207694, 44.08093428620769, 44.83093428620769, 44.947600952867695, 45.0642676195277, 45.1809342861877, 45.2976009528477, 45.414267619507704, 45.53093428616771, 45.64760095282771, 45.76426761948771, 45.88093428614771, 45.997600952807716, 46.11426761946772, 46.23093428612772, 46.34760095278772, 46.464267619447725, 46.58093428610773, 46.69760095276773, 46.93093428610106]	2021_Jan_28_1722	59.98083726836691	1	0.375
13	9	FALSE	NN	a	['E', 'K', 'A', 'Y', 'T', 'Z', 'U', 'H', 'N', 'V', 'G', 'R', 'W', 'B', 'S', 'C']	[904, 1122, 697, 2670, 1888, 2911, 2059, 986, 1335, 2245, 944, 1587, 2448, 760, 1731, 829]	12	Absent	NA	NA	ABSENT	0.10795307159423828	48.91859006881714	50.927271127700806	51.977278995453915	52.32728114120113	55.03480315208435	4.107532024383545	[48.92857098579407, 49.045166969299316, 50.01812410354614, 50.19657516479492, 50.94762301445007, 51.06414008140564, 51.18074107170105, 51.29758310317993, 51.41427993774414, 51.53107404708862, 51.64783716201782, 51.76481509208679, 51.88142013549805, 51.998347997665405, 52.11502003669739, 52.2319221496582, 52.34870004653931, 52.46538710594177, 52.58227205276489, 52.69927716255188, 52.81596612930298, 53.03480315208435]	[48.93093428610106, 49.047600952761066, 50.03060095276106, 50.19730095276106, 50.94730095276106, 51.063967619421064, 51.180634286081066, 51.29730095274107, 51.41396761940107, 51.53063428606107, 51.647300952721075, 51.76396761938108, 51.88063428604108, 51.99730095270108, 52.113967619361084, 52.230634286021086, 52.34730095268109, 52.46396761934109, 52.58063428600109, 52.697300952661095, 52.8139676193211, 53.04730095265443]	2021_Jan_28_1722	59.98083726836691	1	0.375
13	10	FALSE	AA	a	['G', 'K', 'E', 'V', 'C', 'R', 'surprise', 'P', 'B', 'X', 'H', 'A', 'M', 'T', 'S', 'N']	[944, 1122, 904, 2245, 829, 1587, 'stimAuditory/all_stimAuditory/121.wav', 1456, 760, 4000, 986, 697, 1224, 1888, 1731, 1335]	10	Present	stimAuditory/all_stimAuditory/101.wav	NA	PRESENT	0.11346721649169922	55.04168701171875	57.0437490940094	57.860422674768195	58.210424820515406	61.15117001533508	4.107420921325684	[55.051669120788574, 55.168450117111206, 56.13449215888977, 56.31969594955444, 57.070454120635986, 57.18742299079895, 57.30411100387573, 57.42094111442566, 57.537704944610596, 57.654170989990234, 57.7711660861969, 57.887797117233276, 58.00467610359192, 58.12146496772766, 58.238346099853516, 58.35508704185486, 58.4719979763031, 58.588916063308716, 58.70554709434509, 58.8223021030426, 58.93919014930725, 59.15116906166077]	[55.04730095265443, 55.163967619314434, 56.14696761931443, 56.31366761931443, 57.06366761931443, 57.18033428597443, 57.297000952634434, 57.413667619294436, 57.53033428595444, 57.64700095261444, 57.76366761927444, 57.880334285934445, 57.99700095259445, 58.11366761925445, 58.23033428591445, 58.347000952574454, 58.46366761923446, 58.58033428589446, 58.69700095255446, 58.81366761921446, 58.930334285874466, 59.1636676192078]	2021_Jan_28_1722	59.98083726836691	1	0.375
13	11	FALSE	NA	a	['K', 'A', 'B', 'E', 'N', 'W', 'M', 'S', 'Y', 'C', 'X', 'V', 'U', 'T', 'H', 'P']	[1122, 697, 760, 904, 1335, 2448, 1224, 1731, 2670, 829, 4000, 2245, 2059, 1888, 986, 1456]	11	Present	NA	NA	PRESENT	0.03783106803894043	61.14835000038147	63.160102128982544	64.09344237640134	64.44344428372997	67.2675371170044	4.107434988021851	[61.15833115577698, 61.274781942367554, 62.25085997581482, 62.42620015144348, 63.17685008049011, 63.29372596740723, 63.41041898727417, 63.52735614776611, 63.64397597312927, 63.76087498664856, 63.8774471282959, 63.99451994895935, 64.11125206947327, 64.22811913490295, 64.34474802017212, 64.46162605285645, 64.57834911346436, 64.69522595405579, 64.81190204620361, 64.92879915237427, 65.04551601409912, 65.2675371170044]	[61.1636676192078, 61.2803342858678, 62.2633342858678, 62.4300342858678, 63.1800342858678, 63.2967009525278, 63.4133676191878, 63.530034285847805, 63.64670095250781, 63.76336761916781, 63.88003428582781, 63.996700952487814, 64.11336761914781, 64.2300342858078, 64.3467009524678, 64.4633676191278, 64.58003428578779, 64.69670095244778, 64.81336761910778, 64.93003428576777, 65.04670095242777, 65.2800342857611]	2021_Jan_28_1722	59.98083726836691	1	0.375
13	12	FALSE	NA	a	['K', 'U', 'G', 'R', 'V', 'E', 'N', 'X', 'Y', 'T', 'P', 'S', 'C', 'J', 'W', 'A']	[1122, 2059, 944, 1587, 2245, 904, 1335, 4000, 2670, 1888, 1456, 1731, 829, 1029, 2448, 697]	8	Present	NA	NA	PRESENT	0.04244613647460937	67.27115797996521	69.27661395072937	69.85995539026106	70.2099572975897	73.38390302658081	4.10728907585144	[67.28113913536072, 67.39807796478271, 68.36722493171692, 68.5493540763855, 69.3000431060791, 69.41693711280823, 69.53382396697998, 69.65055513381958, 69.76720094680786, 69.88399195671082, 70.0006959438324, 70.11757898330688, 70.23450207710266, 70.35106110572815, 70.46808409690857, 70.58508014678955, 70.70147395133972, 70.81829810142517, 70.93527007102966, 71.05187916755676, 71.16882801055908, 71.38390302658081]	[67.2800342857611, 67.3967009524211, 68.3797009524211, 68.54640095242111, 69.29640095242111, 69.4130676190811, 69.5297342857411, 69.6464009524011, 69.76306761906109, 69.87973428572109, 69.99640095238108, 70.11306761904108, 70.22973428570107, 70.34640095236107, 70.46306761902106, 70.57973428568106, 70.69640095234105, 70.81306761900105, 70.92973428566104, 71.04640095232104, 71.16306761898103, 71.39640095231437]	2021_Jan_28_1722	59.98083726836691	1	0.375
13	13	FALSE	AV	a	['B', 'E', 'Z', 'N', 'W', 'U', 'K', 'T', 'H', 'surprise', 'M', 'P', 'X', 'V', 'R', 'J']	[760, 904, 2911, 1335, 2448, 2059, 1122, 1888, 986, 'stimAuditory/all_stimAuditory/106.wav', 1224, 1456, 4000, 2245, 1587, 1029]	13	Present	stimAuditory/all_stimAuditory/121.wav	NA	PRESENT	0.20778298377990723	73.39463806152344	75.39274907112122	76.55942360553432	76.90942575128153	79.50027012825012	4.107521057128906	[73.40461993217468, 73.52116203308105, 74.48359394073486, 74.65573811531067, 75.42315101623535, 75.52339315414429, 75.64010000228882, 75.7569191455841, 75.87381410598755, 75.99064111709595, 76.10736298561096, 76.22414803504944, 76.34087109565735, 76.45767211914062, 76.57436394691467, 76.69123601913452, 76.80788993835449, 76.92489409446716, 77.0416431427002, 77.15843200683594, 77.2752001285553, 77.50027012825012]	[73.39640095231437, 73.51306761897436, 74.49606761897437, 74.66276761897437, 75.41276761897437, 75.52943428563437, 75.64610095229436, 75.76276761895436, 75.87943428561435, 75.99610095227435, 76.11276761893434, 76.22943428559434, 76.34610095225433, 76.46276761891433, 76.57943428557432, 76.69610095223432, 76.81276761889431, 76.92943428555431, 77.0461009522143, 77.1627676188743, 77.2794342855343, 77.51276761886763]	2021_Jan_28_1722	59.98083726836691	1	0.375
13	14	FALSE	NN	a	['E', 'R', 'J', 'V', 'P', 'N', 'W', 'Z', 'G', 'B', 'M', 'C', 'K', 'S', 'A', 'U']	[904, 1587, 1029, 2245, 1456, 1335, 2448, 2911, 944, 760, 1224, 829, 1122, 1731, 697, 2059]	9	Absent	NA	NA	ABSENT	0.2603468894958496	79.50106406211853	81.5093240737915	82.20933194156461	82.55933408731183	85.61663603782654	4.107311964035034	[79.51104593276978, 79.62777614593506, 80.59996008872986, 80.77926111221313, 81.52965211868286, 81.64655709266663, 81.76323103904724, 81.88017416000366, 81.99682998657227, 82.11378216743469, 82.23062801361084, 82.34718894958496, 82.46399307250977, 82.58073401451111, 82.69756412506104, 82.81452512741089, 82.93127512931824, 83.04785895347595, 83.16477513313293, 83.28169298171997, 83.39848613739014, 83.61663603782654]	[79.51276761886763, 79.62943428552762, 80.61243428552763, 80.77913428552763, 81.52913428552763, 81.64580095218763, 81.76246761884762, 81.87913428550762, 81.99580095216761, 82.11246761882761, 82.2291342854876, 82.3458009521476, 82.4624676188076, 82.57913428546759, 82.69580095212758, 82.81246761878758, 82.92913428544757, 83.04580095210757, 83.16246761876756, 83.27913428542756, 83.39580095208755, 83.62913428542089]	2021_Jan_28_1722	59.98083726836691	1	0.375
13	15	FALSE	NV	a	['U', 'K', 'J', 'N', 'E', 'A', 'Z', 'T', 'C', 'G', 'P', 'H', 'X', 'B', 'R', 'S']	[2059, 1122, 1029, 1335, 904, 697, 2911, 1888, 829, 944, 1456, 986, 4000, 760, 1587, 1731]	13	Present	NA	NA	PRESENT	1.2569870948791504	85.62425804138184	87.62563300132751	88.79230872783351	89.14231063516215	91.73300313949584	4.107370138168335	[85.63424015045166, 85.75093102455139, 86.71632599830627, 86.9019889831543, 87.65283107757568, 87.76960515975952, 87.88658213615417, 88.00325512886047, 88.1200840473175, 88.23684406280518, 88.35377907752991, 88.47039914131165, 88.58725905418396, 88.70405507087708, 88.82088303565979, 88.93766498565674, 89.05448913574219, 89.15448093414307, 89.27118396759033, 89.38802099227905, 89.50477504730225, 89.73300313949585]	[85.62913428542089, 85.74580095208088, 86.72880095208089, 86.8955009520809, 87.6455009520809, 87.76216761874089, 87.87883428540088, 87.99550095206088, 88.11216761872087, 88.22883428538087, 88.34550095204087, 88.46216761870086, 88.57883428536086, 88.69550095202085, 88.81216761868085, 88.92883428534084, 89.04550095200084, 89.16216761866083, 89.27883428532083, 89.39550095198082, 89.51216761864082, 89.74550095197415]	2021_Jan_28_1722	59.98083726836691	1	0.375
13	16	FALSE	NN	a	['E', 'Z', 'S', 'C', 'G', 'R', 'A', 'V', 'U', 'P', 'N', 'B', 'M', 'T', 'J', 'Y']	[904, 2911, 1731, 829, 944, 1587, 697, 2245, 2059, 1456, 1335, 760, 1224, 1888, 1029, 2670]	11	Absent	NA	NA	ABSENT	0.2381749153137207	91.73060894012453	93.74208402633668	94.67542546584836	95.025427373177	97.84937000274658	4.107285976409912	[91.74059104919434, 91.85740208625793, 92.83269309997559, 93.00870203971863, 93.75924897193909, 93.87629199028015, 93.99295496940613, 94.10985112190247, 94.22654294967651, 94.34341096878052, 94.46005415916443, 94.57708811759949, 94.69361901283264, 94.81062912940979, 94.92722296714783, 95.044114112854, 95.16096901893616, 95.27778005599976, 95.39446115493774, 95.51125693321228, 95.62812399864197, 95.84936904907227]	[91.74550095197415, 91.86216761863415, 92.84516761863415, 93.01186761863416, 93.76186761863416, 93.87853428529415, 93.99520095195415, 94.11186761861414, 94.22853428527414, 94.34520095193413, 94.46186761859413, 94.57853428525412, 94.69520095191412, 94.81186761857411, 94.92853428523411, 95.0452009518941, 95.1618676185541, 95.27853428521409, 95.39520095187409, 95.51186761853408, 95.62853428519408, 95.86186761852741]	2021_Jan_28_1722	59.98083726836691	1	0.375
13	17	FALSE	VA	a	['J', 'M', 'E', 'G', 'H', 'Y', 'S', 'K', 'T', 'C', 'surprise', 'V', 'N', 'X', 'U', 'B']	[1029, 1224, 904, 944, 986, 2670, 1731, 1122, 1888, 829, 'stimAuditory/all_stimAuditory/223.wav', 2245, 1335, 4000, 2059, 760]	14	Present	NA	NA	ABSENT	0.2988870143890381	97.85383200645448	99.85822105407716	101.14156225515026	101.49156440089747	103.9657371044159	4.107516050338745	[97.86381316184998, 97.98056101799011, 98.949059009552, 99.1317150592804, 99.8824360370636, 99.99945998191833, 100.11608409881592, 100.23296308517456, 100.3498649597168, 100.46659207344055, 100.58371210098267, 100.69999814033508, 100.81701016426086, 100.93354105949402, 101.05055594444275, 101.1673059463501, 101.28412413597107, 101.40079998970032, 101.5177390575409, 101.63438415527344, 101.75124311447144, 101.96573615074158]	[97.86186761852741, 97.97853428518741, 98.96153428518741, 99.12823428518742, 99.87823428518742, 99.99490095184741, 100.11156761850741, 100.2282342851674, 100.3449009518274, 100.4615676184874, 100.57823428514739, 100.69490095180738, 100.81156761846738, 100.92823428512737, 101.04490095178737, 101.16156761844736, 101.27823428510736, 101.39490095176735, 101.51156761842735, 101.62823428508734, 101.74490095174734, 101.97823428508067]	2021_Jan_28_1722	59.98083726836691	1	0.375
13	18	FALSE	NV	a	['U', 'K', 'Z', 'J', 'B', 'M', 'N', 'S', 'H', 'T', 'Y', 'E', 'X', 'R', 'W', 'A']	[2059, 1122, 2911, 1029, 760, 1224, 1335, 1731, 986, 1888, 2670, 904, 4000, 1587, 2448, 697]	13	Present	NA	NA	PRESENT	0.11990809440612792	103.97693514823914	105.9747850894928	107.1414586702316	107.4914608159788	110.08210301399232	4.107317924499512	[103.98691701889038, 104.0868980884552, 105.06542706489563, 105.23807406425476, 106.00589203834534, 106.10593914985657, 106.2225730419159, 106.33938503265381, 106.45632696151733, 106.57304811477661, 106.68973016738892, 106.80667209625244, 106.92332315444946, 107.04027915000916, 107.15688610076904, 107.273854970932, 107.39043807983398, 107.50738906860352, 107.62410306930542, 107.74100613594055, 107.85773301124573, 108.082102060318]	[103.97823428508067, 104.09490095174067, 105.07790095174067, 105.24460095174068, 105.99460095174068, 106.11126761840067, 106.22793428506067, 106.34460095172066, 106.46126761838066, 106.57793428504066, 106.69460095170065, 106.81126761836065, 106.92793428502064, 107.04460095168064, 107.16126761834063, 107.27793428500063, 107.39460095166062, 107.51126761832062, 107.62793428498061, 107.7446009516406, 107.8612676183006, 108.09460095163394]	2021_Jan_28_1722	59.98083726836691	1	0.375
13	19	FALSE	NV	a	['S', 'W', 'P', 'M', 'H', 'N', 'V', 'T', 'X', 'Y', 'R', 'E', 'C', 'B', 'G', 'J']	[1731, 2448, 1456, 1224, 986, 1335, 2245, 1888, 4000, 2670, 1587, 904, 829, 760, 944, 1029]	9	Present	NA	NA	PRESENT	0.02048206329345703	110.08333492279051	112.09137606620789	112.79138298030668	113.14138512605388	116.1984691619873	4.107093095779419	[110.09331703186035, 110.21025609970093, 111.18179416656494, 111.36168909072876, 112.1122829914093, 112.22914004325867, 112.34574699401855, 112.46266007423401, 112.57949495315552, 112.69616603851318, 112.81301498413086, 112.92972803115845, 113.04658603668213, 113.16327714920044, 113.28023099899292, 113.39681315422058, 113.51367402076721, 113.63056015968323, 113.74730110168457, 113.86416816711426, 113.98098397254944, 114.1984691619873]	[110.09460095163394, 110.21126761829393, 111.19426761829394, 111.36096761829394, 112.11096761829394, 112.22763428495394, 112.34430095161393, 112.46096761827393, 112.57763428493392, 112.69430095159392, 112.81096761825391, 112.9276342849139, 113.0443009515739, 113.1609676182339, 113.27763428489389, 113.39430095155389, 113.51096761821388, 113.62763428487388, 113.74430095153387, 113.86096761819387, 113.97763428485386, 114.2109676181872]	2021_Jan_28_1722	59.98083726836691	1	0.375
13	20	FALSE	NV	a	['M', 'V', 'K', 'R', 'G', 'U', 'W', 'B', 'J', 'X', 'A', 'Y', 'E', 'H', 'S', 'C']	[1224, 2245, 1122, 1587, 944, 2059, 2448, 760, 1029, 4000, 697, 2670, 904, 986, 1731, 829]	10	Present	NA	NA	PRESENT	0.00983405113220214	116.20674300193788	118.20762300491332	119.024297777765	119.37429968509365	122.31483697891235	4.107213973999023	[116.21672511100769, 116.33353614807129, 117.29816007614136, 117.48463606834412, 118.23537302017212, 118.3523280620575, 118.46906614303589, 118.58573412895203, 118.70267009735107, 118.8194329738617, 118.93608093261719, 119.03611707687378, 119.15304613113403, 119.26972198486328, 119.38653898239136, 119.50330305099487, 119.62005710601807, 119.73687505722046, 119.85363793373108, 119.97041416168213, 120.08720898628235, 120.31483697891235]	[116.2109676181872, 116.32763428484719, 117.3106342848472, 117.4773342848472, 118.2273342848472, 118.3440009515072, 118.4606676181672, 118.57733428482719, 118.69400095148718, 118.81066761814718, 118.92733428480717, 119.04400095146717, 119.16066761812716, 119.27733428478716, 119.39400095144715, 119.51066761810715, 119.62733428476714, 119.74400095142714, 119.86066761808713, 119.97733428474713, 120.09400095140712, 120.32733428474046]	2021_Jan_28_1722	59.98083726836691	1	0.375
13	21	FALSE	NA	a	['K', 'W', 'Y', 'B', 'P', 'G', 'Z', 'R', 'A', 'J', 'M', 'X', 'S', 'H', 'E', 'T']	[1122, 2448, 2670, 760, 1456, 944, 2911, 1587, 697, 1029, 1224, 4000, 1731, 986, 904, 1888]	12	Present	NA	NA	PRESENT	0.0863809585571289	122.31334805488586	124.32419514656068	125.37420206063946	125.7242049216424	128.43120312690735	4.10700798034668	[122.32333111763, 122.43992114067078, 123.41452693939209, 123.59101700782776, 124.34188199043274, 124.4587950706482, 124.57543206214905, 124.69229412078857, 124.80904412269592, 124.925940990448, 125.04269909858704, 125.15944194793701, 125.27628993988037, 125.39304494857788, 125.5098659992218, 125.6266860961914, 125.74342012405396, 125.86008810997009, 125.97697615623474, 126.09387016296387, 126.21049904823303, 126.43120098114014]	[122.32733428474046, 122.44400095140045, 123.42700095140046, 123.59370095140046, 124.34370095140046, 124.46036761806046, 124.57703428472045, 124.69370095138045, 124.81036761804044, 124.92703428470044, 125.04370095136044, 125.16036761802043, 125.27703428468043, 125.39370095134042, 125.51036761800042, 125.62703428466041, 125.7437009513204, 125.8603676179804, 125.9770342846404, 126.09370095130039, 126.21036761796039, 126.44370095129372]	2021_Jan_28_1722	59.98083726836691	1	0.375
13	22	FALSE	NA	a	['H', 'S', 'A', 'B', 'Y', 'N', 'U', 'T', 'X', 'K', 'P', 'C', 'Z', 'E', 'G', 'M']	[986, 1731, 697, 760, 2670, 1335, 2059, 1888, 4000, 1122, 1456, 829, 2911, 904, 944, 1224]	9	Present	NA	NA	PRESENT	0.28302001953125	128.43618297576904	130.44010996818542	131.1401171207028	131.49011902803144	134.54756903648376	4.10745906829834	[128.44616603851318, 128.5630841255188, 129.53089094161987, 129.71443104743958, 130.4650571346283, 130.58194303512573, 130.6987111568451, 130.8152949810028, 130.9323229789734, 131.049152135849, 131.16609501838684, 131.2827489376068, 131.39948797225952, 131.51608514785767, 131.63337993621826, 131.7497091293335, 131.8665931224823, 131.98326897621155, 132.1002299785614, 132.21699213981628, 132.3336911201477, 132.54756808280945]	[128.44370095129372, 128.56036761795372, 129.54336761795372, 129.7100676179537, 130.4600676179537, 130.5767342846137, 130.6934009512737, 130.8100676179337, 130.9267342845937, 131.0434009512537, 131.16006761791368, 131.27673428457368, 131.39340095123367, 131.51006761789367, 131.62673428455366, 131.74340095121366, 131.86006761787365, 131.97673428453365, 132.09340095119364, 132.21006761785364, 132.32673428451363, 132.56006761784695]	2021_Jan_28_1722	59.98083726836691	1	0.375
13	23	FALSE	NV	a	['A', 'Z', 'K', 'Y', 'V', 'P', 'E', 'R', 'J', 'T', 'B', 'U', 'X', 'N', 'S', 'C']	[697, 2911, 1122, 2670, 2245, 1456, 904, 1587, 1029, 1888, 760, 2059, 4000, 1335, 1731, 829]	13	Present	NA	NA	PRESENT	0.17595791816711426	134.5595030784607	136.55677604675293	137.72344962749173	138.07345177323893	140.66393613815308	4.1071600914001465	[134.56948614120483, 134.669429063797, 135.6472589969635, 135.82066893577576, 136.57136416435242, 136.68836498260498, 136.80498504638672, 136.92205810546875, 137.0386221408844, 137.1554660797119, 137.2722270488739, 137.38919711112976, 137.50579500198364, 137.622642993927, 137.73949599266052, 137.8562250137329, 137.97307515144348, 138.08973908424377, 138.20655393600464, 138.3234441280365, 138.44018006324768, 138.66393613815308]	[134.56006761784695, 134.67673428450695, 135.65973428450695, 135.82643428450695, 136.57643428450695, 136.69310095116694, 136.80976761782694, 136.92643428448693, 137.04310095114693, 137.15976761780692, 137.27643428446692, 137.3931009511269, 137.5097676177869, 137.6264342844469, 137.7431009511069, 137.8597676177669, 137.9764342844269, 138.09310095108688, 138.20976761774688, 138.32643428440687, 138.44310095106687, 138.6764342844002]	2021_Jan_28_1722	59.98083726836691	1	0.375
13	24	FALSE	NN	a	['R', 'P', 'Y', 'M', 'Z', 'H', 'A', 'U', 'E', 'J', 'N', 'V', 'T', 'C', 'W', 'S']	[1587, 1456, 2670, 1224, 2911, 986, 697, 2059, 904, 1029, 1335, 2245, 1888, 829, 2448, 1731]	14	Absent	NA	NA	ABSENT	0.2607460021972656	140.6658320426941	142.6730260848999	143.95636728597302	144.3063694317202	146.7803030014038	4.107276916503906	[140.67581510543823, 140.79287004470825, 141.76362800598145, 141.9443380832672, 142.6948230266571, 142.81154704093933, 142.9283721446991, 143.04506301879883, 143.1619040966034, 143.2787630558014, 143.3955271244049, 143.51217699050903, 143.62902808189392, 143.7457480430603, 143.86277413368225, 143.97959208488464, 144.09628915786743, 144.21312499046326, 144.32981896400452, 144.44654893875122, 144.56335616111755, 144.7803030014038]	[140.6764342844002, 140.79310095106018, 141.7761009510602, 141.94280095106018, 142.69280095106018, 142.80946761772017, 142.92613428438017, 143.04280095104016, 143.15946761770016, 143.27613428436015, 143.39280095102015, 143.50946761768014, 143.62613428434014, 143.74280095100013, 143.85946761766013, 143.97613428432012, 144.09280095098012, 144.20946761764012, 144.3261342843001, 144.4428009509601, 144.5594676176201, 144.79280095095342]	2021_Jan_28_1722	59.98083726836691	1	0.375
13	25	FALSE	NV	a	['U', 'B', 'V', 'G', 'R', 'C', 'A', 'N', 'K', 'X', 'W', 'T', 'Z', 'H', 'P', 'J']	[2059, 760, 2245, 944, 1587, 829, 697, 1335, 1122, 4000, 2448, 1888, 2911, 986, 1456, 1029]	10	Present	NA	NA	PRESENT	0.13804984092712402	146.7889449596405	148.78929114341736	149.60596472417615	149.9559666315048	152.89667010307312	4.107378959655762	[146.79892706871033, 146.9158811569214, 147.87999200820923, 148.06710696220398, 148.81780910491943, 148.9179229736328, 149.03469610214233, 149.15154910087585, 149.26824808120728, 149.38511300086975, 149.50185298919678, 149.61864113807678, 149.7354381084442, 149.85218906402588, 149.96908402442932, 150.0858120918274, 150.20261406898499, 150.31960010528564, 150.4362051486969, 150.55315494537354, 150.66983914375305, 150.8966691493988]	[146.79280095095342, 146.90946761761342, 147.89246761761342, 148.0591676176134, 148.8091676176134, 148.9258342842734, 149.0425009509334, 149.1591676175934, 149.2758342842534, 149.3925009509134, 149.50916761757338, 149.62583428423338, 149.74250095089337, 149.85916761755337, 149.97583428421336, 150.09250095087336, 150.20916761753335, 150.32583428419335, 150.44250095085334, 150.55916761751334, 150.67583428417333, 150.90916761750665]	2021_Jan_28_1722	59.98083726836691	1	0.375
13	26	FALSE	NN	a	['V', 'S', 'P', 'H', 'U', 'W', 'Y', 'Z', 'R', 'J', 'B', 'N', 'C', 'E', 'G', 'M']	[2245, 1731, 1456, 986, 2059, 2448, 2670, 2911, 1587, 1029, 760, 1335, 829, 904, 944, 1224]	14	Absent	NA	NA	ABSENT	0.22269701957702637	152.89575815200806	154.90575695037842	156.1890974361958	156.5390993435244	159.01303696632385	4.107280015945435	[152.9057400226593, 153.02250814437866, 153.99636101722717, 154.17369294166565, 154.92431902885437, 155.04122495651245, 155.15785193443298, 155.27465200424194, 155.3916471004486, 155.50837898254395, 155.62509608268738, 155.74205803871155, 155.85873198509216, 155.97540307044983, 156.09230399131775, 156.20919013023376, 156.32603812217712, 156.4426040649414, 156.55967593193054, 156.67610716819763, 156.79313397407532, 157.01303601264954]	[152.90916761750665, 153.02583428416665, 154.00883428416665, 154.17553428416664, 154.92553428416664, 155.04220095082664, 155.15886761748664, 155.27553428414663, 155.39220095080663, 155.50886761746662, 155.62553428412662, 155.7422009507866, 155.8588676174466, 155.9755342841066, 156.0922009507666, 156.2088676174266, 156.3255342840866, 156.44220095074658, 156.55886761740658, 156.67553428406657, 156.79220095072657, 157.0255342840599]	2021_Jan_28_1722	59.98083726836691	1	0.375
13	27	FALSE	NV	a	['S', 'V', 'G', 'R', 'K', 'A', 'W', 'B', 'P', 'J', 'M', 'X', 'C', 'T', 'N', 'Z']	[1731, 2245, 944, 1587, 1122, 697, 2448, 760, 1456, 1029, 1224, 4000, 829, 1888, 1335, 2911]	12	Present	NA	NA	PRESENT	0.10728788375854492	159.01855993270874	161.0222101211548	162.0722179889079	162.4222201346551	165.12940311431885	4.1071929931640625	[159.02854108810425, 159.14562010765076, 160.1127290725708, 160.29678416252136, 161.0474841594696, 161.1644229888916, 161.28123116493225, 161.39787411689758, 161.51468706130981, 161.63162398338318, 161.74845099449158, 161.86511516571045, 161.98204493522644, 162.09866499900818, 162.21559500694275, 162.33230805397034, 162.44893598556519, 162.56608510017395, 162.6827609539032, 162.79942297935486, 162.91627311706543, 163.12940216064453]	[159.0255342840599, 159.14220095071988, 160.1252009507199, 160.29190095071988, 161.04190095071988, 161.15856761737987, 161.27523428403987, 161.39190095069986, 161.50856761735986, 161.62523428401985, 161.74190095067985, 161.85856761733984, 161.97523428399984, 162.09190095065983, 162.20856761731983, 162.32523428397982, 162.44190095063982, 162.55856761729981, 162.6752342839598, 162.7919009506198, 162.9085676172798, 163.14190095061312]	2021_Jan_28_1722	59.98083726836691	1	0.375
13	28	FALSE	NV	a	['Y', 'N', 'J', 'P', 'G', 'V', 'A', 'X', 'K', 'Z', 'C', 'S', 'T', 'M', 'U', 'W']	[2670, 1335, 1029, 1456, 944, 2245, 697, 4000, 1122, 2911, 829, 1731, 1888, 1224, 2059, 2448]	8	Present	NA	NA	PRESENT	0.07240080833435059	165.1251721382141	167.1387219429016	167.72206528978194	168.07206838920345	171.24576902389526	4.107047080993652	[165.13515305519104, 165.25188612937927, 166.2290940284729, 166.4034321308136, 167.1539340019226, 167.2708649635315, 167.38753700256348, 167.50448513031006, 167.62119007110596, 167.73796010017395, 167.85476112365723, 167.97152304649353, 168.08832001686096, 168.20512413978577, 168.3219771385193, 168.43875694274902, 168.55558609962463, 168.67226004600525, 168.78919410705566, 168.90603804588318, 169.02276015281677, 169.24576997756958]	[165.14190095061312, 165.25856761727312, 166.24156761727312, 166.4082676172731, 167.1582676172731, 167.2749342839331, 167.3916009505931, 167.5082676172531, 167.6249342839131, 167.7416009505731, 167.85826761723308, 167.97493428389308, 168.09160095055307, 168.20826761721307, 168.32493428387306, 168.44160095053306, 168.55826761719305, 168.67493428385305, 168.79160095051304, 168.90826761717304, 169.02493428383303, 169.25826761716635]	2021_Jan_28_1722	59.98083726836691	1	0.375
13	29	FALSE	NN	a	['A', 'C', 'H', 'T', 'M', 'V', 'U', 'K', 'J', 'N', 'S', 'E', 'Z', 'P', 'W', 'R']	[697, 829, 986, 1888, 1224, 2245, 2059, 1122, 1029, 1335, 1731, 904, 2911, 1456, 2448, 1587]	12	Absent	NA	NA	ABSENT	0.2692229747772217	171.2483730316162	173.25463104248047	174.30463795655928	174.6546410559808	177.3621370792389	4.107506036758423	[171.25835514068604, 171.37525916099548, 172.34545993804932, 172.52653408050537, 173.27743816375732, 173.39411902427673, 173.51083302497864, 173.6274881362915, 173.74453806877136, 173.86106705665588, 173.97788000106812, 174.0948829650879, 174.2116379737854, 174.32825899124146, 174.4451961517334, 174.56195497512817, 174.6787121295929, 174.79567098617554, 174.91241812705994, 175.02909016609192, 175.14607095718384, 175.3621370792389]	[171.25826761716635, 171.37493428382635, 172.35793428382635, 172.52463428382634, 173.27463428382634, 173.39130095048634, 173.50796761714633, 173.62463428380633, 173.74130095046633, 173.85796761712632, 173.97463428378632, 174.0913009504463, 174.2079676171063, 174.3246342837663, 174.4413009504263, 174.5579676170863, 174.6746342837463, 174.79130095040628, 174.90796761706628, 175.02463428372627, 175.14130095038627, 175.3746342837196]	2021_Jan_28_1722	59.98083726836691	1	0.375
13	30	FALSE	AV	a	['N', 'K', 'E', 'A', 'Y', 'G', 'C', 'J', 'surprise', 'U', 'H', 'X', 'R', 'W', 'P', 'Z']	[1335, 1122, 904, 697, 2670, 944, 829, 1029, 'stimAuditory/all_stimAuditory/110.wav', 2059, 986, 4000, 1587, 2448, 1456, 2911]	12	Present	stimAuditory/all_stimAuditory/106.wav	NA	PRESENT	0.13033795356750488	177.37177395820618	179.3708930015564	180.4209011077281	180.77090301505672	183.4785029888153	4.107609987258911	[177.381756067276, 177.49826908111572, 178.46182703971863, 178.64992594718933, 179.40033411979675, 179.50040411949158, 179.61710596084595, 179.73402309417725, 179.8507740497589, 179.96766114234924, 180.0842890739441, 180.20129299163818, 180.3178780078888, 180.4349000453949, 180.55160403251648, 180.6686601638794, 180.78525614738464, 180.90201997756958, 181.01881504058838, 181.13563203811646, 181.25243711471558, 181.478502035141]	[177.3746342837196, 177.49130095037958, 178.4743009503796, 178.64100095037958, 179.39100095037958, 179.50766761703957, 179.62433428369957, 179.74100095035956, 179.85766761701956, 179.97433428367955, 180.09100095033955, 180.20766761699954, 180.32433428365954, 180.44100095031953, 180.55766761697953, 180.67433428363952, 180.79100095029952, 180.90766761695951, 181.0243342836195, 181.1410009502795, 181.2576676169395, 181.49100095027282]	2021_Jan_28_1722	59.98083726836691	1	0.375
13	31	FALSE	NA	a	['E', 'Z', 'R', 'K', 'N', 'P', 'Y', 'T', 'C', 'S', 'X', 'A', 'M', 'J', 'U', 'G']	[904, 2911, 1587, 1122, 1335, 1456, 2670, 1888, 829, 1731, 4000, 697, 1224, 1029, 2059, 944]	11	Present	NA	NA	PRESENT	0.18288016319274905	183.4784390926361	185.48739314079285	186.42073338821163	186.77073529554028	189.5948691368103	4.107475996017456	[183.48842215538025, 183.6047921180725, 184.5781900882721, 184.7560429573059, 185.50689506530762, 185.62352514266968, 185.7404179573059, 185.85733103752136, 185.97412395477295, 186.09082508087158, 186.20777416229248, 186.32436895370483, 186.44122004508972, 186.5579550266266, 186.67525911331177, 186.7914650440216, 186.90838408470154, 187.0252721309662, 187.1419279575348, 187.25881910324097, 187.37544202804565, 187.5948691368103]	[183.49100095027282, 183.60766761693282, 184.59066761693282, 184.7573676169328, 185.5073676169328, 185.6240342835928, 185.7407009502528, 185.8573676169128, 185.9740342835728, 186.0907009502328, 186.20736761689278, 186.32403428355278, 186.44070095021277, 186.55736761687277, 186.67403428353276, 186.79070095019276, 186.90736761685275, 187.02403428351275, 187.14070095017274, 187.25736761683274, 187.37403428349273, 187.60736761682605]	2021_Jan_28_1722	59.98083726836691	1	0.375
13	32	FALSE	NV	a	['Y', 'J', 'N', 'T', 'A', 'W', 'G', 'S', 'U', 'C', 'K', 'X', 'R', 'E', 'V', 'B']	[2670, 1029, 1335, 1888, 697, 2448, 944, 1731, 2059, 829, 1122, 4000, 1587, 904, 2245, 760]	12	Present	NA	NA	PRESENT	0.09143280982971191	189.6012089252472	191.60402297973633	192.65403108590803	193.00403299323665	195.71123695373535	4.107213973999023	[189.61119103431702, 189.72805309295654, 190.69456100463867, 190.87934708595276, 191.63018107414246, 191.74693393707275, 191.8637080192566, 191.98028206825256, 192.09732294082642, 192.2139220237732, 192.3308970928192, 192.44756507873535, 192.5647051334381, 192.68131113052368, 192.79805493354797, 192.91477704048157, 193.0315899848938, 193.1483769416809, 193.26529693603516, 193.3820230960846, 193.49869203567505, 193.71123695373535]	[189.60736761682605, 189.72403428348605, 190.70703428348605, 190.87373428348604, 191.62373428348604, 191.74040095014604, 191.85706761680603, 191.97373428346603, 192.09040095012602, 192.20706761678602, 192.32373428344602, 192.440400950106, 192.557067616766, 192.673734283426, 192.790400950086, 192.907067616746, 193.023734283406, 193.14040095006598, 193.25706761672598, 193.37373428338597, 193.49040095004597, 193.7237342833793]	2021_Jan_28_1722	59.98083726836691	1	0.375
13	33	FALSE	VA	a	['S', 'H', 'V', 'P', 'E', 'M', 'W', 'surprise', 'Z', 'B', 'X', 'J', 'R', 'U', 'G', 'N']	[1731, 986, 2245, 1456, 904, 1224, 2448, 'stimAuditory/all_stimAuditory/218.wav', 2911, 760, 4000, 1029, 1587, 2059, 944, 1335]	11	Present	NA	NA	ABSENT	0.15272998809814453	195.7077419757843	197.7202730178833	198.65361326530208	199.0036154110493	201.82760214805603	4.1073291301727295	[195.7177231311798, 195.83465099334717, 196.81092715263367, 196.98567295074463, 197.73649907112122, 197.85352206230164, 197.97017812728882, 198.08702397346497, 198.20373606681824, 198.3205280303955, 198.43730998039246, 198.55402207374573, 198.67085099220276, 198.78767609596252, 198.90436601638794, 199.02125096321106, 199.13803911209106, 199.25511693954468, 199.3717761039734, 199.48838114738464, 199.6053590774536, 199.82760310173035]	[195.7237342833793, 195.84040095003928, 196.8234009500393, 196.99010095003928, 197.74010095003928, 197.85676761669927, 197.97343428335927, 198.09010095001926, 198.20676761667926, 198.32343428333925, 198.44010094999925, 198.55676761665924, 198.67343428331924, 198.79010094997923, 198.90676761663923, 199.02343428329922, 199.14010094995922, 199.25676761661921, 199.3734342832792, 199.4901009499392, 199.6067676165992, 199.84010094993252]	2021_Jan_28_1722	59.98083726836691	1	0.375
13	34	FALSE	NA	a	['Z', 'W', 'H', 'V', 'T', 'U', 'A', 'C', 'K', 'N', 'X', 'G', 'E', 'J', 'B', 'R']	[2911, 2448, 986, 2245, 1888, 2059, 697, 829, 1122, 1335, 4000, 944, 904, 1029, 760, 1587]	11	Present	NA	NA	PRESENT	0.06139993667602539	201.8309960365295	203.83669805526733	204.77003925636043	205.1200414021077	207.94396996498108	4.107271909713745	[201.84097814559937, 201.9575901031494, 202.92729306221008, 203.10930013656616, 203.85977005958557, 203.9765341281891, 204.09346103668213, 204.2099540233612, 204.32695198059082, 204.4435329437256, 204.56045293807983, 204.6771240234375, 204.79402112960815, 204.91076493263245, 205.02757215499878, 205.1444821357727, 205.26136112213135, 205.37792897224426, 205.49498200416565, 205.61165809631348, 205.72852396965027, 205.94396996498108]	[201.84010094993252, 201.95676761659251, 202.93976761659252, 203.1064676165925, 203.8564676165925, 203.9731342832525, 204.0898009499125, 204.2064676165725, 204.3231342832325, 204.4398009498925, 204.55646761655248, 204.67313428321248, 204.78980094987247, 204.90646761653247, 205.02313428319246, 205.13980094985246, 205.25646761651245, 205.37313428317245, 205.48980094983244, 205.60646761649244, 205.72313428315243, 205.95646761648575]	2021_Jan_28_1722	59.98083726836691	1	0.375
13	35	FALSE	NV	a	['J', 'V', 'M', 'T', 'B', 'H', 'P', 'N', 'Y', 'A', 'R', 'X', 'C', 'G', 'W', 'Z']	[1029, 2245, 1224, 1888, 760, 986, 1456, 1335, 2670, 697, 1587, 4000, 829, 944, 2448, 2911]	12	Present	NA	NA	PRESENT	0.09070801734924316	207.95427107810977	209.9528610706329	211.00286798471177	211.35287013045897	214.06033611297607	4.10747504234314	[207.964252948761, 208.08087801933289, 209.0436611175537, 209.21536111831665, 209.98299193382263, 210.08312606811523, 210.199716091156, 210.3166949748993, 210.43318104743958, 210.55017113685608, 210.66681694984436, 210.78364896774292, 210.90054416656494, 211.01733994483948, 211.13421201705933, 211.2508089542389, 211.36773014068604, 211.48463797569275, 211.60131406784058, 211.7180290222168, 211.83496594429016, 212.06033897399902]	[207.95646761648575, 208.07313428314575, 209.05613428314575, 209.22283428314574, 209.97283428314574, 210.08950094980574, 210.20616761646573, 210.32283428312573, 210.43950094978572, 210.55616761644572, 210.67283428310571, 210.7895009497657, 210.9061676164257, 211.0228342830857, 211.1395009497457, 211.2561676164057, 211.37283428306569, 211.48950094972568, 211.60616761638568, 211.72283428304567, 211.83950094970567, 212.072834283039]	2021_Jan_28_1722	59.98083726836691	1	0.375
13	36	FALSE	NV	a	['U', 'K', 'Z', 'C', 'H', 'G', 'W', 'X', 'A', 'M', 'J', 'T', 'P', 'E', 'N', 'R']	[2059, 1122, 2911, 829, 986, 944, 2448, 4000, 697, 1224, 1029, 1888, 1456, 904, 1335, 1587]	8	Present	NA	NA	PRESENT	0.1912670135498047	214.06096410751343	216.06949710845947	216.6528383095726	217.0028392632269	220.1767029762268	4.107205867767334	[214.07094597816467, 214.18725204467773, 215.16002893447876, 215.3385910987854, 216.08946895599365, 216.20616793632507, 216.32306814193726, 216.43990111351013, 216.55650115013123, 216.6731641292572, 216.79016995429993, 216.9068591594696, 217.02383995056152, 217.1404139995575, 217.257257938385, 217.3740701675415, 217.49073314666748, 217.60762214660645, 217.724543094635, 217.84128403663635, 217.95812511444092, 218.1767029762268]	[214.072834283039, 214.18950094969898, 215.17250094969899, 215.33920094969898, 216.08920094969898, 216.20586761635897, 216.32253428301897, 216.43920094967896, 216.55586761633896, 216.67253428299895, 216.78920094965895, 216.90586761631894, 217.02253428297894, 217.13920094963893, 217.25586761629893, 217.37253428295892, 217.48920094961892, 217.6058676162789, 217.7225342829389, 217.8392009495989, 217.9558676162589, 218.18920094959222]	2021_Jan_28_1722	59.98083726836691	1	0.375
13	37	FALSE	NV	a	['P', 'A', 'V', 'B', 'T', 'G', 'E', 'W', 'K', 'Z', 'J', 'X', 'Y', 'R', 'C', 'H']	[1456, 697, 2245, 760, 1888, 944, 904, 2448, 1122, 2911, 1029, 4000, 2670, 1587, 829, 986]	12	Present	NA	NA	PRESENT	0.18868803977966309	220.18402099609375	222.18569612503052	223.23570303910932	223.58570613853084	226.29307007789612	4.107373952865601	[220.19400310516357, 220.3104829788208, 221.2763910293579, 221.4617841243744, 222.21264505386353, 222.3293421268463, 222.44627904891968, 222.56300616264343, 222.67977499961853, 222.7964961528778, 222.9132981300354, 223.02999997138977, 223.14709615707397, 223.26380109786987, 223.38039898872375, 223.49738812446594, 223.61432003974915, 223.73096108436584, 223.84773206710815, 223.94760513305664, 224.06445598602295, 224.29307103157043]	[220.18920094959222, 220.30586761625221, 221.28886761625222, 221.4555676162522, 222.2055676162522, 222.3222342829122, 222.4389009495722, 222.5555676162322, 222.6722342828922, 222.7889009495522, 222.90556761621218, 223.02223428287218, 223.13890094953217, 223.25556761619217, 223.37223428285216, 223.48890094951216, 223.60556761617215, 223.72223428283215, 223.83890094949214, 223.95556761615214, 224.07223428281213, 224.30556761614545]	2021_Jan_28_1722	59.98083726836691	1	0.375
13	38	FALSE	NV	a	['K', 'U', 'A', 'S', 'M', 'R', 'P', 'X', 'H', 'N', 'J', 'Y', 'W', 'E', 'Z', 'V']	[1122, 2059, 697, 1731, 1224, 1587, 1456, 4000, 986, 1335, 1029, 2670, 2448, 904, 2911, 2245]	8	Present	NA	NA	PRESENT	0.9770960807800292	226.29018998146057	228.30214715003967	228.88548739747847	229.2354893048071	232.40943694114685	4.107289791107178	[226.3001730442047, 226.41711807250977, 227.39276003837585, 227.5683331489563, 228.31900310516357, 228.43574714660645, 228.55261707305908, 228.66930294036865, 228.78628396987915, 228.902841091156, 229.01981496810913, 229.13645911216736, 229.2533540725708, 229.3700931072235, 229.4870960712433, 229.60368299484253, 229.72070908546448, 229.83731412887573, 229.95418906211853, 230.0709309577942, 230.18773698806763, 230.40943598747253]	[226.30556761614545, 226.42223428280545, 227.40523428280545, 227.57193428280544, 228.32193428280544, 228.43860094946544, 228.55526761612543, 228.67193428278543, 228.78860094944542, 228.90526761610542, 229.02193428276541, 229.1386009494254, 229.2552676160854, 229.3719342827454, 229.4886009494054, 229.6052676160654, 229.72193428272539, 229.83860094938538, 229.95526761604538, 230.07193428270537, 230.18860094936537, 230.4219342826987]	2021_Jan_28_1722	59.98083726836691	1	0.375
13	39	FALSE	NV	a	['H', 'U', 'J', 'A', 'G', 'K', 'P', 'R', 'W', 'M', 'N', 'X', 'E', 'S', 'T', 'C']	[986, 2059, 1029, 697, 944, 1122, 1456, 1587, 2448, 1224, 1335, 4000, 904, 1731, 1888, 829]	12	Present	NA	NA	PRESENT	0.269603967666626	232.41334915161133	234.41840505599976	235.46841197007856	235.81841411582576	238.52580404281616	4.107398986816406	[232.4233319759369, 232.5401930809021, 233.50912714004517, 233.69166803359985, 234.4422390460968, 234.55887913703918, 234.67584109306335, 234.7925910949707, 234.90948104858398, 235.02612614631653, 235.1430950164795, 235.25970196723938, 235.37668204307556, 235.4933741092682, 235.61011004447937, 235.7269070148468, 235.8436300754547, 235.96063804626465, 236.0772910118103, 236.19418907165527, 236.31094002723694, 236.52580308914185]	[232.4219342826987, 232.53860094935868, 233.52160094935869, 233.68830094935868, 234.43830094935868, 234.55496761601867, 234.67163428267867, 234.78830094933866, 234.90496761599866, 235.02163428265865, 235.13830094931865, 235.25496761597864, 235.37163428263864, 235.48830094929863, 235.60496761595863, 235.72163428261862, 235.83830094927862, 235.9549676159386, 236.0716342825986, 236.1883009492586, 236.3049676159186, 236.53830094925192]	2021_Jan_28_1722	59.98083726836691	1	0.375
13	40	FALSE	NA	a	['Z', 'R', 'V', 'U', 'G', 'P', 'J', 'M', 'W', 'H', 'X', 'E', 'Y', 'N', 'S', 'C']	[2911, 1587, 2245, 2059, 944, 1456, 1029, 1224, 2448, 986, 4000, 904, 2670, 1335, 1731, 829]	11	Present	NA	NA	PRESENT	0.27474403381347656	238.53661108016968	240.5350720882416	241.46841328933468	241.81841638875625	244.64216995239255	4.107097864151001	[238.54659295082092, 238.66329312324524, 239.62549304962158, 239.79783606529236, 240.56532216072083, 240.6654930114746, 240.78229594230652, 240.89900016784668, 241.01587915420532, 241.13258504867554, 241.2494740486145, 241.3663821220398, 241.48299098014832, 241.59982895851135, 241.7166759967804, 241.83331894874573, 241.9502410888672, 242.0668420791626, 242.1839029788971, 242.30047011375427, 242.4173891544342, 242.64216899871826]	[238.53830094925192, 238.65496761591191, 239.63796761591192, 239.8046676159119, 240.5546676159119, 240.6713342825719, 240.7880009492319, 240.9046676158919, 241.0213342825519, 241.1380009492119, 241.25466761587188, 241.37133428253188, 241.48800094919187, 241.60466761585187, 241.72133428251186, 241.83800094917186, 241.95466761583185, 242.07133428249185, 242.18800094915184, 242.30466761581184, 242.42133428247183, 242.65466761580515]	2021_Jan_28_1722	59.98083726836691	1	0.375
13	41	FALSE	NN	a	['J', 'G', 'K', 'S', 'A', 'W', 'R', 'Z', 'T', 'U', 'P', 'N', 'H', 'Y', 'E', 'V']	[1029, 944, 1122, 1731, 697, 2448, 1587, 2911, 1888, 2059, 1456, 1335, 986, 2670, 904, 2245]	10	Absent	NA	NA	ABSENT	0.31157898902893066	244.6435179710388	246.65107202529907	247.46774679815076	247.8177477518051	250.7585370540619	4.107465028762817	[244.65350008010864, 244.77002716064453, 245.74185800552368, 245.92104506492615, 246.67181611061096, 246.78863906860352, 246.90550899505615, 247.0222761631012, 247.13909912109375, 247.25586414337158, 247.37275505065918, 247.48932909965515, 247.606055021286, 247.72293400764465, 247.8398060798645, 247.95667600631714, 248.07341814041138, 248.1902151107788, 248.3068311214447, 248.42378401756287, 248.54068899154663, 248.75853610038757]	[244.65466761580515, 244.77133428246515, 245.75433428246515, 245.92103428246514, 246.67103428246514, 246.78770094912514, 246.90436761578513, 247.02103428244513, 247.13770094910512, 247.25436761576512, 247.37103428242511, 247.4877009490851, 247.6043676157451, 247.7210342824051, 247.8377009490651, 247.9543676157251, 248.07103428238509, 248.18770094904508, 248.30436761570508, 248.42103428236507, 248.53770094902507, 248.77103428235839]	2021_Jan_28_1722	59.98083726836691	1	0.375
13	42	FALSE	VA	a	['H', 'M', 'N', 'J', 'T', 'surprise', 'V', 'K', 'X', 'P', 'R', 'Y', 'C', 'E', 'G', 'B']	[986, 1224, 1335, 1029, 1888, 'stimAuditory/all_stimAuditory/117.wav', 2245, 1122, 4000, 1456, 1587, 2670, 829, 904, 944, 760]	9	Present	NA	NA	PRESENT	0.07697296142578125	250.766371011734	252.76766300201416	253.46767110820585	253.8176730155345	256.8749029636383	4.1072399616241455	[250.77635216712952, 250.89303708076477, 251.8582260608673, 252.04419612884521, 252.79520797729492, 252.91178393363953, 253.02864003181458, 253.14539194107056, 253.2622470855713, 253.37928009033203, 253.4959671497345, 253.6127769947052, 253.72937607765198, 253.84626507759094, 253.94603514671326, 254.0628740787506, 254.17974209785461, 254.2965109348297, 254.4133050441742, 254.5303750038147, 254.64690613746643, 254.874902009964]	[250.77103428235839, 250.88770094901838, 251.87070094901839, 252.03740094901838, 252.78740094901838, 252.90406761567837, 253.02073428233837, 253.13740094899836, 253.25406761565836, 253.37073428231835, 253.48740094897835, 253.60406761563834, 253.72073428229834, 253.83740094895833, 253.95406761561833, 254.07073428227832, 254.18740094893832, 254.3040676155983, 254.4207342822583, 254.5374009489183, 254.6540676155783, 254.88740094891162]	2021_Jan_28_1722	59.98083726836691	1	0.375
13	43	FALSE	NA	a	['B', 'V', 'W', 'M', 'Z', 'P', 'T', 'H', 'A', 'S', 'X', 'Y', 'K', 'G', 'R', 'U']	[760, 2245, 2448, 1224, 2911, 1456, 1888, 986, 697, 1731, 4000, 2670, 1122, 944, 1587, 2059]	11	Present	NA	NA	PRESENT	0.15322184562683103	256.87268805503845	258.8838040828705	259.8171452839636	260.1671474297108	262.9912700653076	4.107465982437134	[256.8826711177826, 256.99961709976196, 257.9745931625366, 258.1507661342621, 258.90155005455017, 259.0182349681854, 259.1351261138916, 259.2518529891968, 259.3688189983368, 259.48539900779724, 259.6024720668793, 259.71913409233093, 259.8360540866852, 259.9526629447937, 260.0695469379425, 260.1862030029297, 260.30300307273865, 260.41976594924927, 260.53666400909424, 260.65330696105957, 260.7701470851898, 260.9912700653076]	[256.8874009489116, 257.0040676155716, 257.9870676155716, 258.1537676155716, 258.9037676155716, 259.02043428223163, 259.13710094889166, 259.2537676155517, 259.3704342822117, 259.4871009488717, 259.60376761553175, 259.7204342821918, 259.8371009488518, 259.9537676155118, 260.07043428217185, 260.18710094883187, 260.3037676154919, 260.4204342821519, 260.53710094881194, 260.65376761547196, 260.770434282132, 261.00376761546534]	2021_Jan_28_1722	59.98083726836691	1	0.375
13	44	FALSE	NA	a	['P', 'M', 'K', 'U', 'R', 'Z', 'N', 'X', 'B', 'W', 'H', 'V', 'G', 'E', 'T', 'J']	[1456, 1224, 1122, 2059, 1587, 2911, 1335, 4000, 760, 2448, 986, 2245, 944, 904, 1888, 1029]	8	Present	NA	NA	ABSENT	0.2058858871459961	262.9960401058197	265.0003559589386	265.5836983521446	265.93370025947326	269.10763716697693	4.10728120803833	[263.00602293014526, 263.12265610694885, 264.0909581184387, 264.2740671634674, 265.0250771045685, 265.14156007766724, 265.25850796699524, 265.37513494491577, 265.4920320510864, 265.60877203941345, 265.7254710197449, 265.8424451351166, 265.95897793769836, 266.0760769844055, 266.19267201423645, 266.30933904647827, 266.42626094818115, 266.54291009902954, 266.6596701145172, 266.77666997909546, 266.89342308044434, 267.10763716697693]	[263.00376761546534, 263.12043428212536, 264.10343428212536, 264.27013428212535, 265.02013428212535, 265.1368009487854, 265.2534676154454, 265.3701342821054, 265.48680094876545, 265.6034676154255, 265.7201342820855, 265.8368009487455, 265.95346761540554, 266.07013428206557, 266.1868009487256, 266.3034676153856, 266.42013428204564, 266.53680094870566, 266.6534676153657, 266.7701342820257, 266.88680094868573, 267.1201342820191]	2021_Jan_28_1722	59.98083726836691	1	0.375
13	45	FALSE	NN	a	['M', 'J', 'Y', 'Z', 'K', 'N', 'G', 'B', 'T', 'H', 'U', 'R', 'A', 'W', 'E', 'S']	[1224, 1029, 2670, 2911, 1122, 1335, 944, 760, 1888, 986, 2059, 1587, 697, 2448, 904, 1731]	10	Absent	NA	NA	ABSENT	0.13109898567199707	269.1189820766449	271.1167299747467	271.93340379392407	272.2834057012527	275.22400403022766	4.107274055480957	[269.1289629936218, 269.22913813591003, 270.20732712745667, 270.38028597831726, 271.1479730606079, 271.2481219768524, 271.3648610115051, 271.48166704177856, 271.5983901023865, 271.7152359485626, 271.83205699920654, 271.9486770629883, 272.0656740665436, 272.18240213394165, 272.2992789745331, 272.41577100753784, 272.53264808654785, 272.64938402175903, 272.7663400173187, 272.8830361366272, 272.99997305870056, 273.22400403022766]	[269.1201342820191, 269.2368009486791, 270.2198009486791, 270.3865009486791, 271.1365009486791, 271.2531676153391, 271.36983428199915, 271.48650094865917, 271.6031676153192, 271.7198342819792, 271.83650094863924, 271.95316761529926, 272.0698342819593, 272.1865009486193, 272.30316761527934, 272.41983428193936, 272.5365009485994, 272.6531676152594, 272.76983428191943, 272.88650094857945, 273.0031676152395, 273.2365009485728]	2021_Jan_28_1722	59.98083726836691	1	0.375
13	46	FALSE	NA	a	['E', 'K', 'S', 'A', 'U', 'Y', 'Z', 'C', 'H', 'J', 'X', 'R', 'V', 'M', 'T', 'N']	[904, 1122, 1731, 697, 2059, 2670, 2911, 829, 986, 1029, 4000, 1587, 2245, 1224, 1888, 1335]	11	Present	NA	NA	PRESENT	0.08779096603393555	275.22600293159485	277.23323106765747	278.1665722687506	278.51657441449777	281.3403699398041	4.1071388721466064	[275.2359850406647, 275.3522710800171, 276.32369112968445, 276.50359201431274, 277.2543480396271, 277.3711769580841, 277.4880449771881, 277.60469913482666, 277.72167015075684, 277.8384020328522, 277.95518016815186, 278.0718500614166, 278.18871307373047, 278.30548214912415, 278.4224500656128, 278.53912901878357, 278.6558620929718, 278.7726860046387, 278.8893871307373, 279.0063371658325, 279.123006105423, 279.3403699398041]	[275.2365009485728, 275.35316761523285, 276.33616761523285, 276.50286761523284, 277.25286761523284, 277.36953428189287, 277.4862009485529, 277.6028676152129, 277.71953428187294, 277.83620094853296, 277.952867615193, 278.069534281853, 278.18620094851303, 278.30286761517306, 278.4195342818331, 278.5362009484931, 278.6528676151531, 278.76953428181315, 278.8862009484732, 279.0028676151332, 279.1195342817932, 279.35286761512657]	2021_Jan_28_1722	59.98083726836691	1	0.375
13	47	FALSE	NV	a	['M', 'W', 'K', 'Y', 'J', 'S', 'B', 'X', 'G', 'N', 'A', 'C', 'R', 'E', 'P', 'H']	[1224, 2448, 1122, 2670, 1029, 1731, 760, 4000, 944, 1335, 697, 829, 1587, 904, 1456, 986]	8	Present	NA	NA	PRESENT	0.1730518341064453	281.3488259315491	283.349426984787	283.93276747064436	284.282769377973	287.4567360877991	4.107309103012085	[281.3588080406189, 281.47547602653503, 282.4400601387024, 282.6269130706787, 283.3774869441986, 283.4943940639496, 283.61129808425903, 283.7278311252594, 283.827840089798, 283.96160316467285, 284.0614869594574, 284.17830514907837, 284.2951669692993, 284.41194915771484, 284.5290410518646, 284.6456129550934, 284.76222014427185, 284.87905502319336, 284.99584197998047, 285.11259293556213, 285.22938895225525, 285.4567360877991]	[281.35286761512657, 281.4695342817866, 282.4525342817866, 282.6192342817866, 283.3692342817866, 283.4859009484466, 283.60256761510664, 283.71923428176666, 283.8359009484267, 283.9525676150867, 284.06923428174673, 284.18590094840675, 284.3025676150668, 284.4192342817268, 284.5359009483868, 284.65256761504685, 284.7692342817069, 284.8859009483669, 285.0025676150269, 285.11923428168694, 285.23590094834697, 285.4692342816803]	2021_Jan_28_1722	59.98083726836691	1	0.375
13	48	FALSE	NN	a	['W', 'N', 'S', 'V', 'B', 'G', 'R', 'K', 'E', 'H', 'J', 'Z', 'M', 'C', 'P', 'T']	[2448, 1335, 1731, 2245, 760, 944, 1587, 1122, 904, 986, 1029, 2911, 1224, 829, 1456, 1888]	9	Absent	NA	NA	ABSENT	0.22585296630859375	287.4552581310272	289.4656751155853	290.16568298335847	290.51568512910563	293.5731029510498	4.1074278354644775	[287.46524000167847, 287.5821211338043, 288.5564250946045, 288.7333869934082, 289.48399901390076, 289.60078501701355, 289.71778106689453, 289.8343839645386, 289.9513261318207, 290.06798005104065, 290.1849229335785, 290.30173206329346, 290.4185531139374, 290.53525710105896, 290.6521141529083, 290.7687110900879, 290.8856620788574, 291.0022611618042, 291.11899399757385, 291.23594403266907, 291.35255312919617, 291.5731019973755]	[287.4692342816803, 287.58590094834034, 288.56890094834034, 288.73560094834033, 289.48560094834033, 289.60226761500036, 289.7189342816604, 289.8356009483204, 289.9522676149804, 290.06893428164045, 290.1856009483005, 290.3022676149605, 290.4189342816205, 290.53560094828055, 290.65226761494057, 290.7689342816006, 290.8856009482606, 291.00226761492064, 291.11893428158066, 291.2356009482407, 291.3522676149007, 291.58560094823406]	2021_Jan_28_1722	59.98083726836691	1	0.375
13	49	FALSE	NV	a	['B', 'P', 'K', 'H', 'W', 'N', 'A', 'X', 'V', 'G', 'C', 'J', 'E', 'S', 'Y', 'M']	[760, 1456, 1122, 986, 2448, 1335, 697, 4000, 2245, 944, 829, 1029, 904, 1731, 2670, 1224]	8	Present	NA	NA	PRESENT	0.10210585594177246	293.57839703559875	295.5820150375366	296.1653564770683	296.51535743072264	299.6894700527191	4.107455015182495	[293.5883779525757, 293.70527815818787, 294.6727931499481, 294.85680413246155, 295.60706615448, 295.72412395477295, 295.8408420085907, 295.95761013031006, 296.0743420124054, 296.19124007225037, 296.30800914764404, 296.42481112480164, 296.54162311553955, 296.6583409309387, 296.7752809524536, 296.8920249938965, 297.00874495506287, 297.1256740093231, 297.24225211143494, 297.35902094841003, 297.47590804100037, 297.6894690990448]	[293.58560094823406, 293.7022676148941, 294.6852676148941, 294.8519676148941, 295.6019676148941, 295.7186342815541, 295.8353009482141, 295.95196761487415, 296.0686342815342, 296.1853009481942, 296.3019676148542, 296.41863428151424, 296.53530094817427, 296.6519676148343, 296.7686342814943, 296.88530094815434, 297.00196761481436, 297.1186342814744, 297.2353009481344, 297.35196761479443, 297.46863428145446, 297.7019676147878]	2021_Jan_28_1722	59.98083726836691	1	0.375
13	50	FALSE	NN	a	['C', 'B', 'G', 'U', 'Z', 'W', 'E', 'T', 'H', 'P', 'A', 'R', 'N', 'J', 'K', 'S']	[829, 760, 944, 2059, 2911, 2448, 904, 1888, 986, 1456, 697, 1587, 1335, 1029, 1122, 1731]	9	Absent	NA	NA	ABSENT	0.08333086967468262	299.70155692100525	301.69864106178284	302.398648929556	302.74865107530314	305.8058371543884	4.107196092605591	[299.7115390300751, 299.811576128006, 300.7891581058502, 300.9629080295563, 301.713515996933, 301.83038806915283, 301.94739413261414, 302.06398606300354, 302.1808350086212, 302.2975640296936, 302.4145390987396, 302.53124499320984, 302.64809107780457, 302.76482105255127, 302.8817400932312, 302.9983811378479, 303.11532497406006, 303.2320590019226, 303.3487000465393, 303.46558809280396, 303.58228397369385, 303.8058371543884]	[299.7019676147878, 299.8186342814478, 300.80163428144783, 300.9683342814478, 301.7183342814478, 301.83500094810785, 301.95166761476787, 302.0683342814279, 302.1850009480879, 302.30166761474794, 302.41833428140797, 302.535000948068, 302.651667614728, 302.76833428138804, 302.88500094804806, 303.0016676147081, 303.1183342813681, 303.23500094802813, 303.35166761468815, 303.4683342813482, 303.5850009480082, 303.81833428134155]	2021_Jan_28_1722	59.98083726836691	1	0.375
13	51	FALSE	VN	a	['S', 'C', 'Z', 'W', 'Y', 'P', 'G', 'surprise', 'H', 'V', 'K', 'A', 'N', 'R', 'M', 'E']	[1731, 829, 2911, 2448, 2670, 1456, 944, 'stimAuditory/all_stimAuditory/203.wav', 986, 2245, 1122, 697, 1335, 1587, 1224, 904]	11	Absent	NA	NA	ABSENT	0.12784695625305176	305.8084599971771	307.81494402885437	308.7482842762732	309.09828642202035	311.92220306396484	4.107259035110474	[305.81844210624695, 305.93479895591736, 306.90552711486816, 307.0861780643463, 307.8368549346924, 307.9535319805145, 308.070335149765, 308.187224149704, 308.3042080402374, 308.4208810329437, 308.5377380847931, 308.65442299842834, 308.771183013916, 308.8879120349884, 309.0047299861908, 309.12169194221497, 309.2382881641388, 309.35536313056946, 309.4720661640167, 309.58879494667053, 309.70545506477356, 309.9222021102905]	[305.81833428134155, 305.9350009480016, 306.9180009480016, 307.08470094800157, 307.83470094800157, 307.9513676146616, 308.0680342813216, 308.18470094798164, 308.30136761464166, 308.4180342813017, 308.5347009479617, 308.65136761462173, 308.76803428128176, 308.8847009479418, 309.0013676146018, 309.1180342812618, 309.23470094792185, 309.3513676145819, 309.4680342812419, 309.5847009479019, 309.70136761456195, 309.9347009478953]	2021_Jan_28_1722	59.98083726836691	1	0.375
13	52	FALSE	NV	a	['C', 'B', 'H', 'K', 'M', 'W', 'G', 'A', 'N', 'R', 'U', 'X', 'P', 'T', 'Y', 'Z']	[829, 760, 986, 1122, 1224, 2448, 944, 697, 1335, 1587, 2059, 4000, 1456, 1888, 2670, 2911]	12	Present	NA	NA	PRESENT	0.07736802101135254	311.931095123291	313.9311430454254	314.9811499595042	315.3311521052514	318.03857016563416	4.10742712020874	[311.94107699394226, 312.0580451488495, 313.02189207077026, 313.20929503440857, 313.96008110046387, 314.0599811077118, 314.1768081188202, 314.29358315467834, 314.4104640483856, 314.52719712257385, 314.64410305023193, 314.7608470916748, 314.87763714790344, 314.99436593055725, 315.1114001274109, 315.22793197631836, 315.34481716156006, 315.4615800380707, 315.5788469314575, 315.6951460838318, 315.81200098991394, 316.03856897354126]	[311.9347009478953, 312.0513676145553, 313.0343676145553, 313.2010676145553, 313.9510676145553, 314.06773428121534, 314.18440094787536, 314.3010676145354, 314.4177342811954, 314.53440094785543, 314.65106761451545, 314.7677342811755, 314.8844009478355, 315.0010676144955, 315.11773428115555, 315.2344009478156, 315.3510676144756, 315.4677342811356, 315.58440094779564, 315.70106761445567, 315.8177342811157, 316.05106761444904]	2021_Jan_28_1722	59.98083726836691	1	0.375
13	53	FALSE	NV	a	['V', 'B', 'W', 'M', 'N', 'Y', 'K', 'A', 'J', 'Z', 'T', 'P', 'U', 'X', 'C', 'E']	[2245, 760, 2448, 1224, 1335, 2670, 1122, 697, 1029, 2911, 1888, 1456, 2059, 4000, 829, 904]	14	Present	NA	NA	PRESENT	0.30579090118408203	318.0377531051636	320.04763197898865	321.3309734184803	321.68097532580896	324.1549370288849	4.10730504989624	[318.0477361679077, 318.16455006599426, 319.13825511932373, 319.315819978714, 320.06656098365784, 320.18324303627014, 320.3001971244812, 320.41687297821045, 320.5338079929352, 320.65042996406555, 320.7674009799957, 320.884073972702, 321.0009081363678, 321.1176950931549, 321.23449516296387, 321.351331949234, 321.4679231643677, 321.584920167923, 321.70159912109375, 321.81852412223816, 321.93512511253357, 322.1549370288849]	[318.05106761444904, 318.16773428110906, 319.15073428110907, 319.31743428110906, 320.06743428110906, 320.1841009477691, 320.3007676144291, 320.41743428108913, 320.53410094774915, 320.6507676144092, 320.7674342810692, 320.8841009477292, 321.00076761438925, 321.11743428104927, 321.2341009477093, 321.3507676143693, 321.46743428102934, 321.58410094768936, 321.7007676143494, 321.8174342810094, 321.93410094766944, 322.1674342810028]	2021_Jan_28_1722	59.98083726836691	1	0.375
13	54	FALSE	NN	a	['H', 'V', 'G', 'M', 'Y', 'K', 'Z', 'N', 'A', 'E', 'W', 'R', 'P', 'C', 'T', 'J']	[986, 2245, 944, 1224, 2670, 1122, 2911, 1335, 697, 904, 2448, 1587, 1456, 829, 1888, 1029]	12	Absent	NA	NA	ABSENT	0.17420291900634766	324.16093492507935	326.1641321182251	327.2141390323039	327.5641409396325	330.271301984787	4.10716986656189	[324.1709179878235, 324.2876510620117, 325.2546260356903, 325.43893814086914, 326.18986201286316, 326.3066620826721, 326.42314410209656, 326.5400769710541, 326.65695309638977, 326.77367305755615, 326.8904640674591, 327.00735998153687, 327.1240530014038, 327.240816116333, 327.35772609710693, 327.47452902793884, 327.5912230014801, 327.7081489562988, 327.82490706443787, 327.9416220188141, 328.05828309059143, 328.2713029384613]	[324.1674342810028, 324.2841009476628, 325.2671009476628, 325.4338009476628, 326.1838009476628, 326.3004676143228, 326.41713428098285, 326.5338009476429, 326.6504676143029, 326.7671342809629, 326.88380094762294, 327.00046761428297, 327.117134280943, 327.233800947603, 327.35046761426304, 327.46713428092306, 327.5838009475831, 327.7004676142431, 327.81713428090313, 327.93380094756316, 328.0504676142232, 328.28380094755653]	2021_Jan_28_1722	59.98083726836691	1	0.375
13	55	FALSE	NV	a	['B', 'T', 'E', 'N', 'P', 'S', 'Y', 'H', 'K', 'W', 'C', 'G', 'X', 'V', 'R', 'Z']	[760, 1888, 904, 1335, 1456, 1731, 2670, 986, 1122, 2448, 829, 944, 4000, 2245, 1587, 2911]	13	Present	NA	NA	PRESENT	0.0996549129486084	330.2673079967499	332.2803740501404	333.4470488229721	333.79705168397504	336.3876700401306	4.107295989990234	[330.2772891521454, 330.3942539691925, 331.37099409103394, 331.54549193382263, 332.29601311683655, 332.41285610198975, 332.52984499931335, 332.6464810371399, 332.76343393325806, 332.88004207611084, 332.9970660209656, 333.11369800567627, 333.23066902160645, 333.3473720550537, 333.4640619754791, 333.58097195625305, 333.69782614707947, 333.8145589828491, 333.9313471317291, 334.0480489730835, 334.1647479534149, 334.3876690864563]	[330.28380094755653, 330.40046761421655, 331.38346761421656, 331.55016761421655, 332.30016761421655, 332.41683428087657, 332.5335009475366, 332.6501676141966, 332.76683428085664, 332.88350094751667, 333.0001676141767, 333.1168342808367, 333.23350094749674, 333.35016761415676, 333.4668342808168, 333.5835009474768, 333.70016761413683, 333.81683428079685, 333.9335009474569, 334.0501676141169, 334.1668342807769, 334.4001676141103]	2021_Jan_28_1722	59.98083726836691	1	0.375
13	56	FALSE	NA	a	['P', 'S', 'G', 'V', 'Z', 'W', 'U', 'K', 'C', 'X', 'T', 'R', 'A', 'E', 'H', 'Y']	[1456, 1731, 944, 2245, 2911, 2448, 2059, 1122, 829, 4000, 1888, 1587, 697, 904, 986, 2670]	10	Present	NA	NA	PRESENT	0.1520180702209473	336.3910870552063	338.3967270851135	339.2134006658723	339.56340281161954	342.50403594970703	4.107308864593506	[336.4010691642761, 336.5172610282898, 337.4873580932617, 337.6685609817505, 338.41944313049316, 338.53619503974915, 338.6529541015625, 338.76970911026, 338.8866331577301, 339.0034120082855, 339.1200611591339, 339.2370150089264, 339.3535499572754, 339.4707601070404, 339.5873689651489, 339.704087972641, 339.82076597213745, 339.93772411346436, 340.0544481277466, 340.1711730957031, 340.2881090641022, 340.5040349960327]	[336.4001676141103, 336.5168342807703, 337.4998342807703, 337.6665342807703, 338.4165342807703, 338.5332009474303, 338.64986761409034, 338.76653428075036, 338.8832009474104, 338.9998676140704, 339.11653428073043, 339.23320094739046, 339.3498676140505, 339.4665342807105, 339.5832009473705, 339.69986761403055, 339.8165342806906, 339.9332009473506, 340.0498676140106, 340.16653428067065, 340.28320094733067, 340.516534280664]	2021_Jan_28_1722	59.98083726836691	1	0.375
13	57	FALSE	AA	a	['M', 'U', 'P', 'A', 'V', 'S', 'B', 'surprise', 'R', 'W', 'X', 'N', 'T', 'E', 'K', 'C']	[1224, 2059, 1456, 697, 2245, 1731, 760, 'stimAuditory/all_stimAuditory/220.wav', 1587, 2448, 4000, 1335, 1888, 904, 1122, 829]	11	Present	stimAuditory/all_stimAuditory/223.wav	NA	PRESENT	0.20542097091674805	342.513708114624	344.51288509368896	345.4462253411078	345.79622748685495	348.620402097702	4.1075170040130615	[342.52368998527527, 342.6409161090851, 343.60372614860535, 343.77487897872925, 344.54242396354675, 344.642783164978, 344.75934195518494, 344.87605810165405, 344.99321007728577, 345.10966205596924, 345.22670912742615, 345.34327602386475, 345.460284948349, 345.577162027359, 345.6938681602478, 345.8104600906372, 345.9273941516876, 346.044086933136, 346.1608581542969, 346.27775406837463, 346.3944580554962, 346.620402097702]	[342.516534280664, 342.63320094732404, 343.61620094732405, 343.78290094732404, 344.53290094732404, 344.64956761398406, 344.7662342806441, 344.8829009473041, 344.99956761396413, 345.11623428062416, 345.2329009472842, 345.3495676139442, 345.4662342806042, 345.58290094726425, 345.6995676139243, 345.8162342805843, 345.9329009472443, 346.04956761390434, 346.16623428056437, 346.2829009472244, 346.3995676138844, 346.63290094721776]	2021_Jan_28_1722	59.98083726836691	1	0.375
13	58	FALSE	NA	a	['K', 'G', 'Z', 'E', 'S', 'N', 'U', 'C', 'J', 'W', 'Y', 'X', 'M', 'V', 'A', 'H']	[1122, 944, 2911, 904, 1731, 1335, 2059, 829, 1029, 2448, 2670, 4000, 1224, 2245, 697, 986]	12	Present	NA	NA	PRESENT	0.05798482894897461	348.6203660964966	350.62958002090454	351.6795869349833	352.02958908073055	354.73677015304565	4.107190132141113	[348.6303491592407, 348.74711203575134, 349.7200930118561, 349.89817094802856, 350.6490571498871, 350.76582193374634, 350.8825981616974, 350.99942994117737, 351.1161789894104, 351.23299407958984, 351.3497769832611, 351.4665541648865, 351.5833230018616, 351.7002160549164, 351.81686902046204, 351.93381810188293, 352.0504901409149, 352.167356967926, 352.28406405448914, 352.4010691642761, 352.5176479816437, 352.73677015304565]	[348.63290094721776, 348.7495676138778, 349.7325676138778, 349.8992676138778, 350.6492676138778, 350.7659342805378, 350.88260094719783, 350.99926761385785, 351.1159342805179, 351.2326009471779, 351.3492676138379, 351.46593428049795, 351.58260094715797, 351.699267613818, 351.815934280478, 351.93260094713804, 352.04926761379807, 352.1659342804581, 352.2826009471181, 352.39926761377814, 352.51593428043816, 352.7492676137715]	2021_Jan_28_1722	59.98083726836691	1	0.375
13	59	FALSE	NA	a	['H', 'K', 'S', 'B', 'R', 'U', 'M', 'C', 'W', 'Y', 'N', 'X', 'Z', 'P', 'V', 'T']	[986, 1122, 1731, 760, 1587, 2059, 1224, 829, 2448, 2670, 1335, 4000, 2911, 1456, 2245, 1888]	12	Present	NA	NA	PRESENT	0.06264781951904297	354.7435510158539	356.7459020614624	357.7959089755412	358.1459120749627	360.8531370162964	4.107234954833984	[354.7535319328308, 354.8702931404114, 355.83645701408386, 356.02171301841736, 356.7722101211548, 356.8891589641571, 357.0058090686798, 357.12265515327454, 357.2393341064453, 357.35604310035706, 357.47304797172546, 357.5898621082306, 357.7064869403839, 357.82350516319275, 357.94012093544006, 358.0570340156555, 358.1737940311432, 358.29039001464844, 358.4074110984802, 358.52424001693726, 358.64113211631775, 358.8531370162964]	[354.7492676137715, 354.86593428043153, 355.84893428043154, 356.0156342804315, 356.7656342804315, 356.88230094709155, 356.9989676137516, 357.1156342804116, 357.2323009470716, 357.34896761373165, 357.46563428039167, 357.5823009470517, 357.6989676137117, 357.81563428037174, 357.93230094703176, 358.0489676136918, 358.1656342803518, 358.28230094701183, 358.39896761367186, 358.5156342803319, 358.6323009469919, 358.86563428032525]	2021_Jan_28_1722	59.98083726836691	1	0.375
13	60	FALSE	NA	a	['S', 'V', 'M', 'J', 'H', 'G', 'Y', 'X', 'E', 'B', 'U', 'A', 'T', 'N', 'R', 'K']	[1731, 2245, 1224, 1029, 986, 944, 2670, 4000, 904, 760, 2059, 697, 1888, 1335, 1587, 1122]	8	Present	NA	NA	PRESENT	0.6026220321655273	360.8497920036316	362.8620879650116	363.445428450869	363.7954303581976	366.9695019721985	4.10741400718689	[360.8597731590271, 360.9766149520874, 361.9528241157532, 362.1279339790344, 362.8786971569061, 362.9954831600189, 363.1124629974365, 363.22913098335266, 363.34581112861633, 363.46264004707336, 363.5795199871063, 363.6961600780487, 363.8131310939789, 363.9297649860382, 364.0467200279236, 364.16347002983093, 364.2800259590149, 364.3970220088959, 364.513808965683, 364.63065695762634, 364.74733901023865, 364.9695031642914]	[360.86563428032525, 360.9823009469853, 361.9653009469853, 362.1320009469853, 362.8820009469853, 362.9986676136453, 363.1153342803053, 363.23200094696534, 363.34866761362537, 363.4653342802854, 363.5820009469454, 363.69866761360544, 363.81533428026546, 363.9320009469255, 364.0486676135855, 364.16533428024553, 364.28200094690555, 364.3986676135656, 364.5153342802256, 364.6320009468856, 364.74866761354565, 364.982000946879]	2021_Jan_28_1722	59.98083726836691	1	0.375
13	61	FALSE	NA	a	['N', 'V', 'C', 'J', 'Z', 'R', 'W', 'K', 'M', 'B', 'P', 'X', 'Y', 'S', 'H', 'G']	[1335, 2245, 829, 1029, 2911, 1587, 2448, 1122, 1224, 760, 1456, 4000, 2670, 1731, 986, 944]	12	Present	NA	NA	PRESENT	0.22441601753234863	366.9730880260467	368.9785859584808	370.0285940646525	370.3785959719811	373.0858700275421	4.107284069061279	[366.98308205604553, 367.09990096092224, 368.0691931247711, 368.25119614601135, 369.001827955246, 369.1187689304352, 369.23565793037415, 369.35224509239197, 369.46912813186646, 369.5858600139618, 369.70255494117737, 369.8194570541382, 369.9361960887909, 370.05300307273865, 370.16989398002625, 370.28671407699585, 370.40339612960815, 370.52034401893616, 370.63701605796814, 370.7538161277771, 370.87064909935, 371.0858690738678]	[366.982000946879, 367.098667613539, 368.081667613539, 368.248367613539, 368.998367613539, 369.11503428019904, 369.23170094685906, 369.3483676135191, 369.4650342801791, 369.58170094683913, 369.69836761349916, 369.8150342801592, 369.9317009468192, 370.04836761347923, 370.16503428013925, 370.2817009467993, 370.3983676134593, 370.5150342801193, 370.63170094677935, 370.74836761343937, 370.8650342800994, 371.09836761343274]	2021_Jan_28_1722	59.98083726836691	1	0.375
13	62	FALSE	NV	a	['A', 'H', 'B', 'S', 'P', 'W', 'J', 'U', 'T', 'X', 'N', 'G', 'V', 'C', 'E', 'Y']	[697, 986, 760, 1731, 1456, 2448, 1029, 2059, 1888, 4000, 1335, 944, 2245, 829, 904, 2670]	10	Present	NA	NA	PRESENT	0.13368487358093262	373.0961689949035	375.0947170257568	375.9113906065156	376.2613937059372	379.2022371292114	4.10752010345459	[373.1061511039734, 373.22307896614075, 374.18555998802185, 374.35740900039673, 375.125128030777, 375.22506403923035, 375.3418941497803, 375.45872616767883, 375.5758249759674, 375.6921010017395, 375.8089201450348, 375.9257221221924, 376.04276299476624, 376.15939116477966, 376.27616000175476, 376.3930079936981, 376.5097351074219, 376.6266360282898, 376.7434151172638, 376.86035799980164, 376.9769151210785, 377.2022371292114]	[373.09836761343274, 373.21503428009277, 374.19803428009277, 374.36473428009276, 375.11473428009276, 375.2314009467528, 375.3480676134128, 375.46473428007283, 375.58140094673286, 375.6980676133929, 375.8147342800529, 375.9314009467129, 376.04806761337295, 376.164734280033, 376.281400946693, 376.398067613353, 376.51473428001304, 376.63140094667307, 376.7480676133331, 376.8647342799931, 376.98140094665314, 377.2147342799865]	2021_Jan_28_1722	59.98083726836691	1	0.375
13	63	FALSE	NA	a	['J', 'T', 'Z', 'B', 'V', 'H', 'U', 'E', 'C', 'G', 'X', 'S', 'M', 'R', 'P', 'N']	[1029, 1888, 2911, 760, 2245, 986, 2059, 904, 829, 944, 4000, 1731, 1224, 1587, 1456, 1335]	11	Present	NA	NA	PRESENT	0.14636588096618652	379.2028300762177	381.21129608154297	382.1446372826361	382.49463942838327	385.31860303878784	4.107306957244873	[379.2128109931946, 379.3296010494232, 380.30192494392395, 380.48064398765564, 381.23154306411743, 381.3483250141144, 381.46520805358887, 381.5819001197815, 381.6988799571991, 381.81555008888245, 381.9323830604553, 382.0491349697113, 382.16571497917175, 382.2827751636505, 382.3993740081787, 382.51617312431335, 382.63308906555176, 382.7498879432678, 382.8667080402374, 382.9833950996399, 383.1001081466675, 383.31860303878784]	[379.2147342799865, 379.3314009466465, 380.3144009466465, 380.4811009466465, 381.2311009466465, 381.34776761330653, 381.46443427996655, 381.5811009466266, 381.6977676132866, 381.8144342799466, 381.93110094660665, 382.04776761326667, 382.1644342799267, 382.2811009465867, 382.39776761324674, 382.51443427990677, 382.6311009465668, 382.7477676132268, 382.86443427988684, 382.98110094654686, 383.0977676132069, 383.33110094654023]	2021_Jan_28_1722	59.98083726836691	1	0.375
13	64	FALSE	NN	a	['Z', 'C', 'K', 'R', 'G', 'M', 'W', 'T', 'Y', 'V', 'J', 'P', 'B', 'E', 'H', 'A']	[2911, 829, 1122, 1587, 944, 1224, 2448, 1888, 2670, 2245, 1029, 1456, 760, 904, 986, 697]	13	Absent	NA	NA	ABSENT	0.40770888328552246	385.3259811401367	387.3277759552002	388.4944497743576	388.8444516816862	391.4349701404571	4.107194185256958	[385.33596205711365, 385.4526879787445, 386.4182951450348, 386.60416293144226, 387.3547041416168, 387.471666097641, 387.58828997612, 387.7051770687103, 387.8219130039215, 387.9388110637665, 388.05553007125854, 388.17241311073303, 388.2890019416809, 388.40597915649414, 388.52272605895996, 388.6395151615143, 388.7561011314392, 388.8729820251465, 388.97296810150146, 389.08971309661865, 389.2065680027008, 389.43496894836426]	[385.33110094654023, 385.44776761320026, 386.43076761320026, 386.59746761320025, 387.34746761320025, 387.4641342798603, 387.5808009465203, 387.6974676131803, 387.81413427984035, 387.93080094650037, 388.0474676131604, 388.1641342798204, 388.28080094648044, 388.39746761314046, 388.5141342798005, 388.6308009464605, 388.74746761312053, 388.86413427978056, 388.9808009464406, 389.0974676131006, 389.21413427976063, 389.447467613094]	2021_Jan_28_1722	59.98083726836691	1	0.375
13	65	FALSE	NV	a	['W', 'U', 'M', 'C', 'E', 'S', 'G', 'V', 'B', 'P', 'X', 'A', 'K', 'Z', 'T', 'J']	[2448, 2059, 1224, 829, 904, 1731, 944, 2245, 760, 1456, 4000, 697, 1122, 2911, 1888, 1029]	11	Present	NA	NA	PRESENT	0.0761101245880127	391.4325590133667	393.4442081451416	394.37754934623473	394.7275512535633	397.5513370037079	4.107128858566284	[391.4425399303436, 391.55916810035706, 392.5346601009369, 392.7102241516113, 393.46117305755615, 393.5779960155487, 393.69475197792053, 393.8115050792694, 393.9283380508423, 394.04524302482605, 394.1619131565094, 394.2787470817566, 394.3955750465393, 394.5121171474457, 394.628986120224, 394.74576115608215, 394.8626079559326, 394.97948002815247, 395.0963830947876, 395.21315598487854, 395.32982897758484, 395.55133605003357]	[391.447467613094, 391.564134279754, 392.547134279754, 392.713834279754, 393.463834279754, 393.580500946414, 393.69716761307404, 393.81383427973407, 393.9305009463941, 394.0471676130541, 394.16383427971414, 394.28050094637416, 394.3971676130342, 394.5138342796942, 394.63050094635423, 394.74716761301426, 394.8638342796743, 394.9805009463343, 395.0971676129943, 395.21383427965435, 395.3305009463144, 395.5638342796477]	2021_Jan_28_1722	59.98083726836691	1	0.375
13	66	FALSE	NN	a	['H', 'U', 'C', 'K', 'G', 'J', 'B', 'S', 'P', 'Y', 'M', 'Z', 'R', 'E', 'V', 'N']	[986, 2059, 829, 1122, 944, 1029, 760, 1731, 1456, 2670, 1224, 2911, 1587, 904, 2245, 1335]	14	Absent	NA	NA	ABSENT	0.3288388252258301	397.5557961463928	399.56019711494446	400.8435373623432	401.1935392696719	403.66770195961	4.107504844665527	[397.56577706336975, 397.6824059486389, 398.6510281562805, 398.8336441516876, 399.5842909812927, 399.7011921405792, 399.81808614730835, 399.93484902381897, 400.05160307884216, 400.1685121059418, 400.2851929664612, 400.40199613571167, 400.51865100860596, 400.6355359554291, 400.75223994255066, 400.8689579963684, 400.985876083374, 401.102774143219, 401.2193830013275, 401.3361060619354, 401.45303106307983, 401.66770195961]	[397.5638342796477, 397.68050094630775, 398.66350094630775, 398.83020094630774, 399.58020094630774, 399.69686761296776, 399.8135342796278, 399.9302009462878, 400.04686761294784, 400.16353427960786, 400.2802009462679, 400.3968676129279, 400.51353427958793, 400.63020094624795, 400.746867612908, 400.863534279568, 400.980200946228, 401.09686761288805, 401.21353427954807, 401.3302009462081, 401.4468676128681, 401.68020094620147]	2021_Jan_28_1722	59.98083726836691	1	0.375
13	67	FALSE	AN	a	['G', 'Y', 'R', 'P', 'C', 'K', 'B', 'S', 'surprise', 'V', 'Z', 'T', 'U', 'N', 'J', 'W']	[944, 2670, 1587, 1456, 829, 1122, 760, 1731, 'stimAuditory/all_stimAuditory/114.wav', 2245, 2911, 1888, 2059, 1335, 1029, 2448]	12	Absent	stimAuditory/all_stimAuditory/110.wav	NA	ABSENT	0.15004301071166992	403.67870807647705	405.6768510341644	406.7268600940104	407.0768610476647	409.7840700149536	4.107218980789185	[403.688688993454, 403.8054270744324, 404.7673931121826, 404.93997406959534, 405.70760107040405, 405.8076660633087, 405.9245159626007, 406.04120993614197, 406.1579329967499, 406.27482199668884, 406.39170598983765, 406.5084230899811, 406.6252510547638, 406.7420310974121, 406.8586139678955, 406.9756369590759, 407.09222316741943, 407.2091579437256, 407.3258261680603, 407.4427909851074, 407.5597331523895, 407.7840690612793]	[403.68020094620147, 403.7968676128615, 404.7798676128615, 404.9465676128615, 405.6965676128615, 405.8132342795215, 405.92990094618153, 406.04656761284156, 406.1632342795016, 406.2799009461616, 406.3965676128216, 406.51323427948165, 406.6299009461417, 406.7465676128017, 406.8632342794617, 406.97990094612175, 407.09656761278177, 407.2132342794418, 407.3299009461018, 407.44656761276184, 407.56323427942186, 407.7965676127552]	2021_Jan_28_1722	59.98083726836691	1	0.375
13	68	FALSE	NA	a	['W', 'E', 'S', 'M', 'U', 'V', 'J', 'H', 'X', 'T', 'N', 'P', 'Z', 'C', 'Y', 'K']	[2448, 904, 1731, 1224, 2059, 2245, 1029, 986, 4000, 1888, 1335, 1456, 2911, 829, 2670, 1122]	9	Present	NA	NA	PRESENT	0.09842610359191896	409.7853980064392	411.7931950092316	412.4932031154233	412.8432040690776	415.9004361629486	4.107241153717041	[409.79538011550903, 409.9120440483093, 410.88375997543335, 411.06316208839417, 411.81397700309753, 411.93094515800476, 412.0475859642029, 412.1645700931549, 412.2811131477356, 412.39789509773254, 412.5147180557251, 412.6315829753876, 412.7483820915222, 412.8651399612427, 412.9818470478058, 413.09876108169556, 413.21537804603577, 413.3322010040283, 413.44910311698914, 413.5663831233978, 413.68278098106384, 413.9004361629486]	[409.7965676127552, 409.91323427941524, 410.89623427941524, 411.06293427941523, 411.81293427941523, 411.92960094607525, 412.0462676127353, 412.1629342793953, 412.2796009460553, 412.39626761271535, 412.5129342793754, 412.6296009460354, 412.7462676126954, 412.86293427935544, 412.97960094601547, 413.0962676126755, 413.2129342793355, 413.32960094599554, 413.44626761265556, 413.5629342793156, 413.6796009459756, 413.91293427930896]	2021_Jan_28_1722	59.98083726836691	1	0.375
13	69	FALSE	NV	a	['S', 'W', 'V', 'J', 'K', 'H', 'G', 'E', 'X', 'Z', 'R', 'M', 'Y', 'C', 'B', 'U']	[1731, 2448, 2245, 1029, 1122, 986, 944, 904, 4000, 2911, 1587, 1224, 2670, 829, 760, 2059]	9	Present	NA	NA	PRESENT	0.20799899101257324	415.908429145813	417.9092559814453	418.60926408763703	418.9592650412913	422.01680302619934	4.107547044754028	[415.91841101646423, 416.03549003601074, 417.00012493133545, 417.18629598617554, 417.93769812583923, 418.0543141365051, 418.1709101200104, 418.28756308555603, 418.4044780731201, 418.52131605148315, 418.63836908340454, 418.75467896461487, 418.8547921180725, 418.97154998779297, 419.0882740020752, 419.2050271034241, 419.32183504104614, 419.4386191368103, 419.55544900894165, 419.6722710132599, 419.78911304473877, 420.016802072525]	[415.91293427930896, 416.029600945969, 417.012600945969, 417.179300945969, 417.929300945969, 418.045967612629, 418.162634279289, 418.27930094594905, 418.39596761260907, 418.5126342792691, 418.6293009459291, 418.74596761258914, 418.86263427924916, 418.9793009459092, 419.0959676125692, 419.21263427922923, 419.32930094588926, 419.4459676125493, 419.5626342792093, 419.67930094586933, 419.79596761252935, 420.0293009458627]	2021_Jan_28_1722	59.98083726836691	1	0.375
13	70	FALSE	AA	a	['P', 'V', 'M', 'W', 'J', 'C', 'surprise', 'E', 'Z', 'X', 'U', 'H', 'G', 'B', 'A', 'N']	[1456, 2245, 1224, 2448, 1029, 829, 'stimAuditory/all_stimAuditory/214.wav', 904, 2911, 4000, 2059, 986, 944, 760, 697, 1335]	10	Present	stimAuditory/all_stimAuditory/218.wav	NA	PRESENT	0.2605109214782715	422.01503109931946	424.0259909629822	424.84266573583386	425.1926676431625	428.13316893577576	4.107177972793579	[422.0250120162964, 422.1415729522705, 423.1164901256561, 423.29296016693115, 424.04362416267395, 424.1607229709625, 424.2773449420929, 424.39415407180786, 424.51088094711304, 424.6277151107788, 424.7445161342621, 424.8613500595093, 424.9781551361084, 425.0948600769043, 425.2116279602051, 425.3283541202545, 425.44513511657715, 425.5621130466461, 425.6787359714508, 425.79564213752747, 425.9123589992523, 426.13317012786865]	[422.0293009458627, 422.1459676125227, 423.12896761252273, 423.2956676125227, 424.0456676125227, 424.16233427918274, 424.27900094584277, 424.3956676125028, 424.5123342791628, 424.62900094582284, 424.74566761248286, 424.8623342791429, 424.9790009458029, 425.09566761246293, 425.21233427912296, 425.329000945783, 425.445667612443, 425.562334279103, 425.67900094576305, 425.7956676124231, 425.9123342790831, 426.14566761241645]	2021_Jan_28_1722	59.98083726836691	1	0.375
13	71	FALSE	NV	a	['A', 'R', 'C', 'J', 'V', 'E', 'B', 'K', 'U', 'S', 'M', 'G', 'P', 'X', 'H', 'N']	[697, 1587, 829, 1029, 2245, 904, 760, 1122, 2059, 1731, 1224, 944, 1456, 4000, 986, 1335]	14	Present	NA	NA	PRESENT	0.16100382804870603	428.1383559703827	430.142441034317	431.4257812817158	431.775783427463	434.2495369911194	4.107095956802368	[428.14833903312683, 428.2649681568146, 429.2328610420227, 429.41600012779236, 430.16667199134827, 430.28377199172974, 430.4006099700928, 430.51728105545044, 430.63414216041565, 430.7509059906006, 430.867623090744, 430.98437094688416, 431.1012270450592, 431.21794414520264, 431.33495807647705, 431.45162200927734, 431.56850004196167, 431.6850309371948, 431.8020739555359, 431.9186911582947, 432.0355689525604, 432.24953603744507]	[428.14566761241645, 428.26233427907647, 429.2453342790765, 429.41203427907647, 430.16203427907647, 430.2787009457365, 430.3953676123965, 430.51203427905654, 430.62870094571656, 430.7453676123766, 430.8620342790366, 430.97870094569663, 431.09536761235665, 431.2120342790167, 431.3287009456767, 431.4453676123367, 431.56203427899675, 431.6787009456568, 431.7953676123168, 431.9120342789768, 432.02870094563684, 432.2620342789702]	2021_Jan_28_1722	59.98083726836691	1	0.375
13	72	FALSE	NV	a	['R', 'T', 'H', 'W', 'Z', 'Y', 'G', 'J', 'C', 'E', 'M', 'X', 'A', 'K', 'U', 'S']	[1587, 1888, 986, 2448, 2911, 2670, 944, 1029, 829, 904, 1224, 4000, 697, 1122, 2059, 1731]	12	Present	NA	NA	PRESENT	0.0462031364440918	434.2613029479981	436.2584860324859	437.3084941386576	437.6584960459863	440.3659019470215	4.1074159145355225	[434.27128505706787, 434.3712661266327, 435.34922313690186, 435.522665977478, 436.27326798439026, 436.39014410972595, 436.5067870616913, 436.62371015548706, 436.74042296409607, 436.85731315612793, 436.9740550518036, 437.0909969806671, 437.20760107040405, 437.32457208633423, 437.44128012657166, 437.5584509372711, 437.67469096183777, 437.79163694381714, 437.90830993652344, 438.0250930786133, 438.1421420574188, 438.3659019470215]	[434.2620342789702, 434.3787009456302, 435.3617009456302, 435.5284009456302, 436.2784009456302, 436.39506761229023, 436.51173427895026, 436.6284009456103, 436.7450676122703, 436.8617342789303, 436.97840094559035, 437.0950676122504, 437.2117342789104, 437.3284009455704, 437.44506761223045, 437.56173427889047, 437.6784009455505, 437.7950676122105, 437.91173427887054, 438.02840094553056, 438.1450676121906, 438.37840094552394]	2021_Jan_28_1722	59.98083726836691	1	0.375
13	73	FALSE	VA	a	['U', 'C', 'R', 'N', 'K', 'surprise', 'J', 'S', 'X', 'P', 'T', 'M', 'Y', 'H', 'Z', 'A']	[2059, 829, 1587, 1335, 1122, 'stimAuditory/all_stimAuditory/105.wav', 1029, 1731, 4000, 1456, 1888, 1224, 2670, 986, 2911, 697]	9	Present	NA	NA	PRESENT	0.04280591011047363	440.3676381111145	442.3750021457672	443.075009059866	443.4250109671946	446.4822700023651	4.1072678565979	[440.37761998176575, 440.49442195892334, 441.4655930995941, 441.64584612846375, 442.3964729309082, 442.51339197158813, 442.63003516197205, 442.74684405326843, 442.86363101005554, 442.98041105270386, 443.0971710681915, 443.21412801742554, 443.33092498779297, 443.4477779865265, 443.5644950866699, 443.6813631057739, 443.79813599586487, 443.91473412513733, 444.0316879749298, 444.14823603630066, 444.265300989151, 444.4822700023651]	[440.37840094552394, 440.49506761218396, 441.47806761218396, 441.64476761218395, 442.39476761218395, 442.511434278844, 442.628100945504, 442.744767612164, 442.86143427882405, 442.9781009454841, 443.0947676121441, 443.2114342788041, 443.32810094546414, 443.44476761212417, 443.5614342787842, 443.6781009454442, 443.79476761210424, 443.91143427876426, 444.0281009454243, 444.1447676120843, 444.26143427874433, 444.4947676120777]	2021_Jan_28_1722	59.98083726836691	1	0.375
13	74	FALSE	NN	a	['Z', 'N', 'E', 'J', 'M', 'Y', 'U', 'V', 'H', 'P', 'T', 'G', 'S', 'B', 'R', 'W']	[2911, 1335, 904, 1029, 1224, 2670, 2059, 2245, 986, 1456, 1888, 944, 1731, 760, 1587, 2448]	13	Absent	NA	NA	ABSENT	0.08804607391357422	446.49102997779846	448.4911561012268	449.6578296819656	450.00783158929426	452.5986371040344	4.107481002807617	[446.5010120868683, 446.61776399612427, 447.5819580554962, 447.769278049469, 448.51971912384033, 448.63642501831055, 448.75319600105286, 448.85331296920776, 448.97006607055664, 449.08687710762024, 449.2035961151123, 449.3204381465912, 449.43722105026245, 449.5540089607239, 449.67085099220276, 449.78762197494507, 449.9044859409332, 450.0212161540985, 450.1380021572113, 450.2547891139984, 450.37162804603577, 450.5986361503601]	[446.4947676120777, 446.6114342787377, 447.5944342787377, 447.7611342787377, 448.5111342787377, 448.6278009453977, 448.74446761205775, 448.86113427871777, 448.9778009453778, 449.0944676120378, 449.21113427869784, 449.32780094535786, 449.4444676120179, 449.5611342786779, 449.67780094533794, 449.79446761199796, 449.911134278658, 450.027800945318, 450.14446761197803, 450.26113427863805, 450.3778009452981, 450.6111342786314]	2021_Jan_28_1722	59.98083726836691	1	0.375
13	75	FALSE	NA	a	['T', 'P', 'G', 'C', 'Z', 'V', 'Y', 'J', 'N', 'S', 'H', 'E', 'X', 'R', 'M', 'U']	[1888, 1456, 944, 829, 2911, 2245, 2670, 1029, 1335, 1731, 986, 904, 4000, 1587, 1224, 2059]	13	Present	NA	NA	PRESENT	0.04459309577941894	452.5974371433258	454.60742712020874	455.77410070094754	456.1241038003691	458.7150030136109	4.1075758934021	[452.60741901397705, 452.72413206100464, 453.6983280181885, 453.8753809928894, 454.6260061264038, 454.74307203292847, 454.8596510887146, 454.9765839576721, 455.09326696395874, 455.2100579738617, 455.32685708999634, 455.4439001083374, 455.5604979991913, 455.6773750782013, 455.79423093795776, 455.9110281467438, 456.02777194976807, 456.14446902275085, 456.2611651420593, 456.37811613082886, 456.49477100372314, 456.71500301361084]	[452.6111342786314, 452.72780094529145, 453.71080094529145, 453.87750094529144, 454.62750094529144, 454.74416761195147, 454.8608342786115, 454.9775009452715, 455.09416761193154, 455.21083427859156, 455.3275009452516, 455.4441676119116, 455.56083427857163, 455.67750094523166, 455.7941676118917, 455.9108342785517, 456.0275009452117, 456.14416761187175, 456.2608342785318, 456.3775009451918, 456.4941676118518, 456.72750094518517]	2021_Jan_28_1722	59.98083726836691	1	0.375
13	76	FALSE	AA	a	['C', 'W', 'T', 'E', 'P', 'surprise', 'Y', 'Z', 'X', 'A', 'J', 'K', 'B', 'V', 'H', 'N']	[829, 2448, 1888, 904, 1456, 'stimAuditory/all_stimAuditory/215.wav', 2670, 2911, 4000, 697, 1029, 1122, 760, 2245, 986, 1335]	9	Present	stimAuditory/all_stimAuditory/117.wav	NA	ABSENT	0.08936500549316406	458.72100496292114	460.7240180969238	461.42402596469697	461.77402811044414	464.83137011528015	4.107352018356323	[458.73098707199097, 458.847403049469, 459.8146929740906, 459.99858498573303, 460.74930214881897, 460.8661000728607, 460.98291206359863, 461.0998680591583, 461.2164480686188, 461.3334159851074, 461.45013999938965, 461.5668890476227, 461.6837730407715, 461.800418138504, 461.91726899147034, 462.03412199020386, 462.15099000930786, 462.26783514022827, 462.3845739364624, 462.5011639595032, 462.61812806129456, 462.83137011528015]	[458.72750094518517, 458.8441676118452, 459.8271676118452, 459.9938676118452, 460.7438676118452, 460.8605342785052, 460.97720094516524, 461.09386761182526, 461.2105342784853, 461.3272009451453, 461.44386761180533, 461.56053427846535, 461.6772009451254, 461.7938676117854, 461.9105342784454, 462.02720094510545, 462.1438676117655, 462.2605342784255, 462.3772009450855, 462.49386761174554, 462.61053427840557, 462.8438676117389]	2021_Jan_28_1722	59.98083726836691	1	0.375
13	77	FALSE	NA	a	['G', 'T', 'K', 'E', 'J', 'S', 'U', 'B', 'P', 'H', 'Z', 'C', 'X', 'Y', 'W', 'R']	[944, 1888, 1122, 904, 1029, 1731, 2059, 760, 1456, 986, 2911, 829, 4000, 2670, 2448, 1587]	13	Present	NA	NA	PRESENT	0.3344838619232178	464.82699394226074	466.8405311107635	468.0072046915023	468.357206598831	470.9477369785309	4.107205867767334	[464.8369779586792, 464.9537580013275, 465.93105912208557, 466.1051800251007, 466.85568594932556, 466.97260999679565, 467.0893530845642, 467.20629811286926, 467.3231580257416, 467.4396460056305, 467.5565609931946, 467.67349100112915, 467.79010915756226, 467.90704798698425, 468.02369809150696, 468.14093112945557, 468.2574369907379, 468.3741979598999, 468.4909119606018, 468.6080410480499, 468.7243890762329, 468.94773602485657]	[464.8438676117389, 464.96053427839894, 465.94353427839894, 466.11023427839893, 466.86023427839893, 466.97690094505896, 467.093567611719, 467.210234278379, 467.32690094503903, 467.44356761169905, 467.5602342783591, 467.6769009450191, 467.7935676116791, 467.91023427833915, 468.02690094499917, 468.1435676116592, 468.2602342783192, 468.37690094497924, 468.49356761163926, 468.6102342782993, 468.7269009449593, 468.96023427829266]	2021_Jan_28_1722	59.98083726836691	1	0.375
13	78	FALSE	NA	a	['E', 'G', 'M', 'Z', 'P', 'V', 'S', 'J', 'X', 'U', 'W', 'T', 'R', 'H', 'Y', 'K']	[904, 944, 1224, 2911, 1456, 2245, 1731, 1029, 4000, 2059, 2448, 1888, 1587, 986, 2670, 1122]	9	Present	NA	NA	ABSENT	0.3390650749206543	470.95024609565735	472.95664501190186	473.6566531180936	474.00665502542216	477.0641031265259	4.107458114624023	[470.9602279663086, 471.07702898979187, 472.0474259853363, 472.22835302352905, 472.97910594940186, 473.09588503837585, 473.2125949859619, 473.32946395874023, 473.4461190700531, 473.5630259513855, 473.679799079895, 473.79655408859253, 473.9134509563446, 474.0302450656891, 474.14696502685547, 474.263708114624, 474.38057804107666, 474.49744296073914, 474.61431193351746, 474.7310371398926, 474.84773111343384, 475.064101934433]	[470.96023427829266, 471.0769009449527, 472.0599009449527, 472.2266009449527, 472.9766009449527, 473.0932676116127, 473.2099342782727, 473.32660094493275, 473.4432676115928, 473.5599342782528, 473.6766009449128, 473.79326761157284, 473.90993427823287, 474.0266009448929, 474.1432676115529, 474.25993427821294, 474.37660094487296, 474.493267611533, 474.609934278193, 474.72660094485303, 474.84326761151306, 475.0766009448464]	2021_Jan_28_1722	59.98083726836691	1	0.375
13	79	FALSE	AV	a	['J', 'N', 'H', 'P', 'V', 'K', 'A', 'B', 'W', 'surprise', 'E', 'Z', 'X', 'U', 'C', 'G']	[1029, 1335, 986, 1456, 2245, 1122, 697, 760, 2448, 'stimAuditory/all_stimAuditory/201.wav', 904, 2911, 4000, 2059, 829, 944]	13	Present	stimAuditory/all_stimAuditory/203.wav	NA	PRESENT	0.18465900421142575	477.07336711883545	479.07287907600403	480.2395526567428	480.58955480249006	483.1804690361023	4.107589960098267	[477.0833489894867, 477.2003071308136, 478.16379404067993, 478.3515040874481, 479.1025769710541, 479.2021780014038, 479.3189489841461, 479.43577098846436, 479.55253505706787, 479.66936707496643, 479.7861530780792, 479.90301513671875, 480.0199439525604, 480.1366469860077, 480.2533550262451, 480.37009596824646, 480.4869740009308, 480.60383915901184, 480.72056913375854, 480.83744716644287, 480.95416593551636, 481.1804690361023]	[477.0766009448464, 477.1932676115064, 478.17626761150643, 478.3429676115064, 479.0929676115064, 479.20963427816645, 479.32630094482647, 479.4429676114865, 479.5596342781465, 479.67630094480654, 479.79296761146657, 479.9096342781266, 480.0263009447866, 480.14296761144664, 480.25963427810666, 480.3763009447667, 480.4929676114267, 480.60963427808673, 480.72630094474675, 480.8429676114068, 480.9596342780668, 481.19296761140015]	2021_Jan_28_1722	59.98083726836691	1	0.375
