participant	trial_num	practice	task	condition	RSVP	RAP	probePos	probe_presence	surprise_sound	surprise_img	probe_response	probe_resp_time	first_fixation_time	trial_start_time	surprise_start_time	probe_start_time	trial_end_time	trial_duration	actualEventTimes	plannedEventTimes	date	framerate	marker_vol	RAP_vol
30	1	FALSE	NN	a	['M', 'J', 'C', 'Y', 'N', 'B', 'V', 'T', 'E', 'G', 'A', 'U', 'P', 'R', 'Z', 'K']	[1224, 1029, 829, 2670, 1335, 760, 2245, 1888, 904, 944, 697, 2059, 1456, 1587, 2911, 1122]	14	Absent	NA	NA	ABSENT	0.4569778442382813	2.1457672119140625e-6	1.9871890544891355	3.2705333550037743	3.6205355007509863	6.103869915008545	4.116680860519409	[0.022555828094482422, 0.1223909854888916, 1.0871949195861816, 1.2733829021453857, 2.0242388248443604, 2.141152858734131, 2.2580318450927734, 2.3747429847717285, 2.49149489402771, 2.6080689430236816, 2.7251617908477783, 2.8418939113616943, 2.9417569637298584, 3.0585408210754395, 3.1754238605499268, 3.2922098636627197, 3.4089419841766357, 3.525805950164795, 3.642580986022949, 3.7593839168548584, 3.893056869506836, 4.103869915008545]	[9.5367431640625e-07, 0.11666762033431641, 1.0996676203343163, 1.2663676203343164, 2.016367620334316, 2.133034286994316, 2.249700953654316, 2.3663676203143162, 2.4830342869743163, 2.5997009536343163, 2.7163676202943163, 2.8330342869543164, 2.9497009536143164, 3.0663676202743164, 3.1830342869343164, 3.2997009535943165, 3.4163676202543165, 3.5330342869143165, 3.6497009535743166, 3.7663676202343166, 3.8830342868943166, 4.11636762022765]	2021_Feb_18_1111	59.92581966978894	1	0.375
30	2	FALSE	NN	a	['J', 'S', 'P', 'V', 'N', 'C', 'U', 'Z', 'H', 'G', 'M', 'W', 'E', 'B', 'R', 'T']	[1029, 1731, 1456, 2245, 1335, 829, 2059, 2911, 986, 944, 1224, 2448, 904, 760, 1587, 1888]	10	Absent	NA	NA	ABSENT	0.7173688411712646	6.089483976364136	8.100224018096924	8.916897837274297	9.266900698277244	12.22023582458496	4.120011806488037	[6.112037897109985, 6.228711843490601, 7.203557968139648, 7.3799028396606445, 8.130625009536743, 8.247622013092041, 8.364252805709839, 8.481244802474976, 8.59788179397583, 8.714908838272095, 8.831373929977417, 8.948401927947998, 9.065050840377808, 9.18187689781189, 9.298730850219727, 9.415374994277954, 9.53226089477539, 9.64901089668274, 9.765759944915771, 9.882697820663452, 9.999782800674438, 10.220237016677856]	[6.11636762022765, 6.23303428688765, 7.216034286887649, 7.382734286887649, 8.132734286887649, 8.24940095354765, 8.36606762020765, 8.48273428686765, 8.59940095352765, 8.716067620187651, 8.832734286847652, 8.949400953507652, 9.066067620167653, 9.182734286827653, 9.299400953487654, 9.416067620147654, 9.532734286807655, 9.649400953467655, 9.766067620127656, 9.882734286787656, 9.999400953447656, 10.232734286780989]	2021_Feb_18_1111	59.92581966978894	1	0.375
30	3	FALSE	NN	a	['R', 'K', 'V', 'N', 'Y', 'U', 'H', 'C', 'E', 'W', 'S', 'J', 'B', 'P', 'T', 'Z']	[1587, 1122, 2245, 1335, 2670, 2059, 986, 829, 904, 2448, 1731, 1029, 760, 1456, 1888, 2911]	10	Absent	NA	NA	ABSENT	0.2499399185180664	12.212558031082152	14.216440200805664	15.033113781564458	15.38311568889309	18.336601972579956	4.120161771774292	[12.235110998153687, 12.352096796035767, 13.31992483139038, 13.503099918365479, 14.25393295288086, 14.370606899261475, 14.487584829330444, 14.604447841644287, 14.721208810806274, 14.838133811950684, 14.954738855361938, 15.071322917938232, 15.18835186958313, 15.304889917373657, 15.421948909759521, 15.53866195678711, 15.65543794631958, 15.772146940231323, 15.88913083076477, 16.005753993988037, 16.122684955596924, 16.336601972579956]	[12.232734286780989, 12.34940095344099, 13.33240095344099, 13.49910095344099, 14.24910095344099, 14.365767620100991, 14.482434286760991, 14.599100953420992, 14.715767620080992, 14.832434286740993, 14.949100953400993, 15.065767620060994, 15.182434286720994, 15.299100953380995, 15.415767620040995, 15.532434286700996, 15.649100953360996, 15.765767620020997, 15.882434286680997, 15.999100953340998, 16.115767620000998, 16.349100953334332]	2021_Feb_18_1111	59.92581966978894	1	0.375
30	4	FALSE	VV	a	['W', 'J', 'H', 'M', 'G', 'N', 'surprise', 'K', 'A', 'X', 'Y', 'R', 'V', 'S', 'P', 'T']	[2448, 1029, 986, 1224, 944, 1335, 'stimAuditory/all_stimAuditory/208.wav', 1122, 697, 4000, 2670, 1587, 2245, 1731, 1456, 1888]	10	Present	NA	NA	PRESENT	0.30316591262817383	18.335965156555176	20.332983016967773	21.149657789819464	21.49965874347378	24.45296883583069	4.119985818862915	[18.358518838882446, 18.458356857299805, 19.43628978729248, 19.6095027923584, 20.36064100265503, 20.47721791267395, 20.594007968902588, 20.71090793609619, 20.827656984329224, 20.944491863250732, 21.06110191345215, 21.177945852279663, 21.29461979866028, 21.4115309715271, 21.528273820877075, 21.64514994621277, 21.76189088821411, 21.878832817077637, 21.995476007461548, 22.11243987083435, 22.229137897491455, 22.452969789505005]	[18.349100953334332, 18.46576761999433, 19.44876761999433, 19.61546761999433, 20.36546761999433, 20.48213428665433, 20.598800953314328, 20.715467619974326, 20.832134286634325, 20.948800953294324, 21.065467619954322, 21.18213428661432, 21.29880095327432, 21.41546761993432, 21.532134286594317, 21.648800953254316, 21.765467619914315, 21.882134286574313, 21.998800953234312, 22.11546761989431, 22.23213428655431, 22.465467619887644]	2021_Feb_18_1111	59.92581966978894	1	0.375
30	5	FALSE	NA	a	['M', 'K', 'R', 'G', 'J', 'U', 'T', 'C', 'S', 'B', 'H', 'X', 'V', 'P', 'A', 'Z']	[1224, 1122, 1587, 944, 1029, 2059, 1888, 829, 1731, 760, 986, 4000, 2245, 1456, 697, 2911]	12	Present	NA	NA	PRESENT	0.06783485412597656	24.44226312637329	26.449278116226196	27.499285983979306	27.8492871760522	30.569336891174316	4.12005877494812	[24.46481680870056, 24.5816547870636, 25.552661895751953, 25.73270082473755, 26.48357391357422, 26.60054898262024, 26.71710181236267, 26.83401584625244, 26.95079278945923, 27.0674250125885, 27.184372901916504, 27.30117392539978, 27.41796588897705, 27.53452181816101, 27.651540994644165, 27.768200874328613, 27.8850679397583, 28.001796007156372, 28.118801832199097, 28.235312938690186, 28.3524010181427, 28.569336891174316]	[24.465467619887644, 24.582134286547642, 25.565134286547643, 25.73183428654764, 26.48183428654764, 26.59850095320764, 26.71516761986764, 26.831834286527638, 26.948500953187636, 27.065167619847635, 27.181834286507634, 27.298500953167633, 27.41516761982763, 27.53183428648763, 27.64850095314763, 27.765167619807627, 27.881834286467626, 27.998500953127625, 28.115167619787623, 28.231834286447622, 28.34850095310762, 28.581834286440955]	2021_Feb_18_1111	59.92581966978894	1	0.375
30	6	FALSE	NV	a	['R', 'U', 'A', 'H', 'C', 'T', 'B', 'X', 'W', 'S', 'G', 'V', 'P', 'J', 'E', 'Z']	[1587, 2059, 697, 986, 829, 1888, 760, 4000, 2448, 1731, 944, 2245, 1456, 1029, 904, 2911]	8	Present	NA	NA	PRESENT	0.23304009437561035	30.56566619873047	32.565622091293335	33.14896353082502	33.498965438153654	36.68570280075073	4.1200807094573975	[30.58821988105774, 30.704604864120483, 31.66902494430542, 31.8559308052063, 32.60671281814575, 32.723522901535034, 32.84047293663025, 32.9402859210968, 33.057180881500244, 33.173993825912476, 33.290671825408936, 33.40746998786926, 33.52423286437988, 33.641037940979004, 33.75781989097595, 33.87457489967346, 33.99140286445618, 34.10825300216675, 34.22500395774841, 34.34182095527649, 34.458719968795776, 34.68570280075073]	[30.581834286440955, 30.698500953100954, 31.681500953100954, 31.848200953100953, 32.59820095310096, 32.71486761976096, 32.83153428642096, 32.94820095308096, 33.064867619740966, 33.18153428640097, 33.29820095306097, 33.41486761972097, 33.531534286380975, 33.64820095304098, 33.76486761970098, 33.88153428636098, 33.998200953020984, 34.114867619680986, 34.23153428634099, 34.34820095300099, 34.46486761966099, 34.69820095299433]	2021_Feb_18_1111	59.92581966978894	1	0.375
30	7	FALSE	NV	a	['R', 'T', 'N', 'P', 'M', 'C', 'U', 'V', 'X', 'B', 'E', 'K', 'J', 'Z', 'W', 'Y']	[1587, 1888, 1335, 1456, 1224, 829, 2059, 2245, 4000, 760, 904, 1122, 1029, 2911, 2448, 2670]	9	Present	NA	NA	PRESENT	0.28551483154296875	36.67173504829407	38.682049036026	39.382058095892006	39.73206000322064	42.80206894874573	4.120019912719727	[36.6942880153656, 36.8113579750061, 37.78540802001953, 37.962376832962036, 38.713217973709106, 38.830195903778076, 38.94685888290405, 39.06369686126709, 39.180492877960205, 39.29712700843811, 39.414052963256836, 39.53074097633362, 39.64766788482666, 39.764322996139526, 39.88106679916382, 39.99812293052673, 40.11479091644287, 40.231390953063965, 40.34836292266846, 40.46512699127197, 40.581904888153076, 40.80206894874573]	[36.69820095299433, 36.81486761965433, 37.797867619654326, 37.964567619654325, 38.714567619654325, 38.83123428631433, 38.94790095297433, 39.06456761963433, 39.181234286294334, 39.297900952954336, 39.41456761961434, 39.53123428627434, 39.64790095293434, 39.764567619594345, 39.88123428625435, 39.99790095291435, 40.11456761957435, 40.231234286234354, 40.347900952894356, 40.46456761955436, 40.58123428621436, 40.814567619547695]	2021_Feb_18_1111	59.92581966978894	1	0.375
30	8	FALSE	NA	a	['N', 'U', 'K', 'J', 'B', 'S', 'V', 'A', 'R', 'G', 'P', 'X', 'Z', 'T', 'E', 'C']	[1335, 2059, 1122, 1029, 760, 1731, 2245, 697, 1587, 944, 1456, 4000, 2911, 1888, 904, 829]	12	Present	NA	NA	PRESENT	0.26643991470336914	42.79494619369507	44.798377990722656	45.84838514322003	46.19838705054866	48.918437004089355	4.120059013366699	[42.81749892234802, 42.93437695503235, 43.90175986289978, 44.085577964782715, 44.83641695976257, 44.95310091972351, 45.07015681266785, 45.18685293197632, 45.303560972213745, 45.42027997970581, 45.53726387023926, 45.654053926467896, 45.770567893981934, 45.887478828430176, 46.004387855529785, 46.12110781669617, 46.23770594596863, 46.35459780693054, 46.471534967422485, 46.58838391304016, 46.705190896987915, 46.91843581199646]	[42.814567619547695, 42.9312342862077, 43.914234286207694, 44.08093428620769, 44.83093428620769, 44.947600952867695, 45.0642676195277, 45.1809342861877, 45.2976009528477, 45.414267619507704, 45.53093428616771, 45.64760095282771, 45.76426761948771, 45.88093428614771, 45.997600952807716, 46.11426761946772, 46.23093428612772, 46.34760095278772, 46.464267619447725, 46.58093428610773, 46.69760095276773, 46.93093428610106]	2021_Feb_18_1111	59.92581966978894	1	0.375
30	9	FALSE	NV	a	['M', 'V', 'Y', 'B', 'N', 'Z', 'J', 'S', 'T', 'X', 'H', 'C', 'W', 'G', 'R', 'K']	[1224, 2245, 2670, 760, 1335, 2911, 1029, 1731, 1888, 4000, 986, 829, 2448, 944, 1587, 1122]	10	Present	NA	NA	PRESENT	0.239487886428833	48.901427030563354	50.91479516029358	51.73146969472669	52.0814718404739	55.03480291366577	4.120007753372192	[48.92397999763489, 49.04078698158264, 50.01812481880188, 50.19224500656128, 50.9427969455719, 51.05989193916321, 51.17642378807068, 51.29331088066101, 51.410029888153076, 51.5267539024353, 51.643640995025635, 51.76052689552307, 51.87709999084473, 51.99405884742737, 52.11067295074463, 52.22751593589783, 52.34442090988159, 52.461073875427246, 52.57800579071045, 52.694700956344604, 52.81170296669006, 53.03480100631714]	[48.93093428610106, 49.047600952761066, 50.03060095276106, 50.19730095276106, 50.94730095276106, 51.063967619421064, 51.180634286081066, 51.29730095274107, 51.41396761940107, 51.53063428606107, 51.647300952721075, 51.76396761938108, 51.88063428604108, 51.99730095270108, 52.113967619361084, 52.230634286021086, 52.34730095268109, 52.46396761934109, 52.58063428600109, 52.697300952661095, 52.8139676193211, 53.04730095265443]	2021_Feb_18_1111	59.92581966978894	1	0.375
30	10	FALSE	NV	a	['Z', 'P', 'N', 'V', 'K', 'A', 'E', 'G', 'R', 'T', 'W', 'Y', 'X', 'H', 'C', 'J']	[2911, 1456, 1335, 2245, 1122, 697, 904, 944, 1587, 1888, 2448, 2670, 4000, 986, 829, 1029]	13	Present	NA	NA	PRESENT	0.46800899505615234	55.02469611167908	57.031087160110474	58.19776074084927	58.5477626481779	61.15116882324219	4.120081663131714	[55.04724979400635, 55.1641788482666, 56.13449287414551, 56.31520700454712, 57.06597900390625, 57.182732820510864, 57.29971194267273, 57.41654896736145, 57.53320097923279, 57.64997982978821, 57.76694893836975, 57.88357591629028, 58.00052189826965, 58.11709380149841, 58.23399782180786, 58.3506498336792, 58.467530965805054, 58.58445692062378, 58.70100283622742, 58.817832946777344, 58.93459892272949, 59.1511709690094]	[55.04730095265443, 55.163967619314434, 56.14696761931443, 56.31366761931443, 57.06366761931443, 57.18033428597443, 57.297000952634434, 57.413667619294436, 57.53033428595444, 57.64700095261444, 57.76366761927444, 57.880334285934445, 57.99700095259445, 58.11366761925445, 58.23033428591445, 58.347000952574454, 58.46366761923446, 58.58033428589446, 58.69700095255446, 58.81366761921446, 58.930334285874466, 59.1636676192078]	2021_Feb_18_1111	59.92581966978894	1	0.375
30	11	FALSE	NN	a	['J', 'C', 'R', 'B', 'G', 'E', 'V', 'U', 'M', 'W', 'P', 'N', 'Z', 'K', 'Y', 'T']	[1029, 829, 1587, 760, 944, 904, 2245, 2059, 1224, 2448, 1456, 1335, 2911, 1122, 2670, 1888]	12	Absent	NA	NA	ABSENT	0.497257947921753	61.148216009140015	63.14765000343323	64.1976571559306	64.54765906325923	67.2675359249115	4.1198859214782715	[61.17076897621155, 61.28723883628845, 62.25086188316345, 62.438308000564575, 63.1892728805542, 63.289278984069824, 63.40600895881653, 63.52278995513916, 63.639588832855225, 63.75639295578003, 63.873196840286255, 63.98995280265808, 64.10679388046265, 64.223562002182, 64.3403868675232, 64.45709681510925, 64.57390689849854, 64.6908278465271, 64.80749893188477, 64.92438387870789, 65.04119181632996, 65.2675359249115]	[61.1636676192078, 61.2803342858678, 62.2633342858678, 62.4300342858678, 63.1800342858678, 63.2967009525278, 63.4133676191878, 63.530034285847805, 63.64670095250781, 63.76336761916781, 63.88003428582781, 63.996700952487814, 64.11336761914781, 64.2300342858078, 64.3467009524678, 64.4633676191278, 64.58003428578779, 64.69670095244778, 64.81336761910778, 64.93003428576777, 65.04670095242777, 65.2800342857611]	2021_Feb_18_1111	59.92581966978894	1	0.375
30	12	FALSE	NV	a	['Y', 'H', 'G', 'P', 'E', 'Z', 'A', 'M', 'X', 'B', 'U', 'T', 'R', 'S', 'C', 'K']	[2670, 986, 944, 1456, 904, 2911, 697, 1224, 4000, 760, 2059, 1888, 1587, 1731, 829, 1122]	9	Present	NA	NA	PRESENT	0.2778439521789551	67.25429797172546	69.26391911506653	69.96392698283964	70.31392912858685	73.38390278816223	4.119983673095703	[67.27685284614563, 67.39377498626709, 68.36722493171692, 68.54482889175415, 69.29569888114929, 69.41243696212769, 69.52926588058472, 69.6460030078888, 69.76286387443542, 69.87959885597229, 69.99645495414734, 70.11327886581421, 70.23017597198486, 70.3467218875885, 70.46355199813843, 70.58023381233215, 70.69729781150818, 70.8139398097992, 70.93083000183105, 71.04784893989563, 71.16428399085999, 71.38390278816223]	[67.2800342857611, 67.3967009524211, 68.3797009524211, 68.54640095242111, 69.29640095242111, 69.4130676190811, 69.5297342857411, 69.6464009524011, 69.76306761906109, 69.87973428572109, 69.99640095238108, 70.11306761904108, 70.22973428570107, 70.34640095236107, 70.46306761902106, 70.57973428568106, 70.69640095234105, 70.81306761900105, 70.92973428566104, 71.04640095232104, 71.16306761898103, 71.39640095231437]	2021_Feb_18_1111	59.92581966978894	1	0.375
30	13	FALSE	NN	a	['C', 'U', 'H', 'G', 'E', 'V', 'J', 'M', 'P', 'Z', 'K', 'W', 'N', 'Y', 'T', 'A']	[829, 2059, 986, 944, 904, 2245, 1029, 1224, 1456, 2911, 1122, 2448, 1335, 2670, 1888, 697]	14	Absent	NA	NA	ABSENT	0.3704020977020264	73.37752509117126	75.38027000427246	76.66361144376415	77.01361335109279	79.50026988983154	4.119999885559082	[73.40007901191711, 73.51678586006165, 74.48359489440918, 74.66813397407532, 75.41887092590332, 75.53554892539978, 75.6525948047638, 75.76916885375977, 75.88621187210083, 76.00296187400818, 76.11972284317017, 76.23646998405457, 76.35336685180664, 76.47007298469543, 76.58663582801819, 76.70353698730469, 76.82025194168091, 76.9370059967041, 77.05426979064941, 77.17053079605103, 77.28750896453857, 77.50026893615723]	[73.39640095231437, 73.51306761897436, 74.49606761897437, 74.66276761897437, 75.41276761897437, 75.52943428563437, 75.64610095229436, 75.76276761895436, 75.87943428561435, 75.99610095227435, 76.11276761893434, 76.22943428559434, 76.34610095225433, 76.46276761891433, 76.57943428557432, 76.69610095223432, 76.81276761889431, 76.92943428555431, 77.0461009522143, 77.1627676188743, 77.2794342855343, 77.51276761886763]	2021_Feb_18_1111	59.92581966978894	1	0.375
30	14	FALSE	AV	a	['T', 'Z', 'K', 'N', 'W', 'P', 'U', 'J', 'Y', 'C', 'surprise', 'H', 'R', 'X', 'M', 'S']	[1888, 2911, 1122, 1335, 2448, 1456, 2059, 1029, 2670, 829, 'stimAuditory/all_stimAuditory/101.wav', 986, 1587, 4000, 1224, 1731]	14	Present	stimAuditory/all_stimAuditory/208.wav	NA	PRESENT	1.2077689170837402	79.48385906219482	81.49660801887512	82.77994945836681	83.12995136569545	85.61663579940796	4.120027780532837	[79.50641179084778, 79.62336587905884, 80.5999608039856, 80.77443599700928, 81.52550983428955, 81.642009973526, 81.75889897346497, 81.87568998336792, 81.99252891540527, 82.10926795005798, 82.22614884376526, 82.34296584129333, 82.4598479270935, 82.57650399208069, 82.69332981109619, 82.81010794639587, 82.92697191238403, 83.04361891746521, 83.16049194335938, 83.27709698677063, 83.39408588409424, 83.61663699150085]	[79.51276761886763, 79.62943428552762, 80.61243428552763, 80.77913428552763, 81.52913428552763, 81.64580095218763, 81.76246761884762, 81.87913428550762, 81.99580095216761, 82.11246761882761, 82.2291342854876, 82.3458009521476, 82.4624676188076, 82.57913428546759, 82.69580095212758, 82.81246761878758, 82.92913428544757, 83.04580095210757, 83.16246761876756, 83.27913428542756, 83.39580095208755, 83.62913428542089]	2021_Feb_18_1111	59.92581966978894	1	0.375
30	15	FALSE	NV	a	['T', 'C', 'N', 'P', 'W', 'J', 'U', 'X', 'S', 'M', 'G', 'A', 'Y', 'H', 'R', 'V']	[1888, 829, 1335, 1456, 2448, 1029, 2059, 4000, 1731, 1224, 944, 697, 2670, 986, 1587, 2245]	8	Present	NA	NA	PRESENT	0.29253101348876953	85.60711097717285	87.61285018920898	88.19619043664778	88.54619234397641	91.73300194740295	4.12015175819397	[85.6296648979187, 85.74666094779968, 86.71632480621338, 86.8977689743042, 87.64848184585571, 87.765371799469, 87.88225197792053, 87.99883890151978, 88.11576581001282, 88.23244595527649, 88.3494508266449, 88.46621179580688, 88.58288097381592, 88.69980788230896, 88.81639790534973, 88.93310189247131, 89.05006790161133, 89.16677188873291, 89.28346681594849, 89.40039992332458, 89.51726579666138, 89.73300290107727]	[85.62913428542089, 85.74580095208088, 86.72880095208089, 86.8955009520809, 87.6455009520809, 87.76216761874089, 87.87883428540088, 87.99550095206088, 88.11216761872087, 88.22883428538087, 88.34550095204087, 88.46216761870086, 88.57883428536086, 88.69550095202085, 88.81216761868085, 88.92883428534084, 89.04550095200084, 89.16216761866083, 89.27883428532083, 89.39550095198082, 89.51216761864082, 89.74550095197415]	2021_Feb_18_1111	59.92581966978894	1	0.375
30	16	FALSE	NV	a	['B', 'C', 'T', 'H', 'M', 'U', 'Z', 'S', 'Y', 'V', 'E', 'R', 'X', 'G', 'J', 'P']	[760, 829, 1888, 986, 1224, 2059, 2911, 1731, 2670, 2245, 904, 1587, 4000, 944, 1029, 1456]	13	Present	NA	NA	PRESENT	0.2174971103668213	91.73059010505676	93.729266166687	94.89594070110012	95.24594284684731	97.84937000274658	4.12010383605957	[91.75314378738403, 91.86976790428162, 92.83269381523132, 93.00407695770264, 93.77166485786438, 93.8716139793396, 93.98852682113647, 94.10554385185242, 94.22204685211182, 94.33908891677856, 94.4556097984314, 94.57258296012878, 94.68933582305908, 94.80613493919373, 94.92296600341797, 95.03957295417786, 95.1565158367157, 95.27327990531921, 95.39005088806152, 95.50675201416016, 95.62369680404663, 95.84937000274658]	[91.74550095197415, 91.86216761863415, 92.84516761863415, 93.01186761863416, 93.76186761863416, 93.87853428529415, 93.99520095195415, 94.11186761861414, 94.22853428527414, 94.34520095193413, 94.46186761859413, 94.57853428525412, 94.69520095191412, 94.81186761857411, 94.92853428523411, 95.0452009518941, 95.1618676185541, 95.27853428521409, 95.39520095187409, 95.51186761853408, 95.62853428519408, 95.86186761852741]	2021_Feb_18_1111	59.92581966978894	1	0.375
30	17	FALSE	NV	a	['V', 'P', 'N', 'B', 'H', 'C', 'Y', 'Z', 'M', 'E', 'A', 'U', 'X', 'R', 'K', 'G']	[2245, 1456, 1335, 760, 986, 829, 2670, 2911, 1224, 904, 697, 2059, 4000, 1587, 1122, 944]	13	Present	NA	NA	PRESENT	0.23024916648864743	97.83677911758424	99.84585905075072	101.01253263148952	101.36253477723672	103.965735912323	4.119876861572266	[97.8593327999115, 97.97631001472473, 98.94905996322632, 99.12734985351562, 99.87812399864197, 99.994952917099, 100.11184287071228, 100.22847580909729, 100.3452467918396, 100.46205186843872, 100.57915997505188, 100.69569087028503, 100.81260800361633, 100.9292848110199, 101.0464539527893, 101.16285300254822, 101.27980089187622, 101.39634490013123, 101.51339483261108, 101.62992787361145, 101.74668979644775, 101.965735912323]	[97.86186761852741, 97.97853428518741, 98.96153428518741, 99.12823428518742, 99.87823428518742, 99.99490095184741, 100.11156761850741, 100.2282342851674, 100.3449009518274, 100.4615676184874, 100.57823428514739, 100.69490095180738, 100.81156761846738, 100.92823428512737, 101.04490095178737, 101.16156761844736, 101.27823428510736, 101.39490095176735, 101.51156761842735, 101.62823428508734, 101.74490095174734, 101.97823428508067]	2021_Feb_18_1111	59.92581966978894	1	0.375
30	18	FALSE	VA	a	['W', 'H', 'R', 'P', 'G', 'A', 'N', 'Z', 'M', 'C', 'surprise', 'V', 'T', 'X', 'U', 'E']	[2448, 986, 1587, 1456, 944, 697, 1335, 2911, 1224, 829, 'stimAuditory/all_stimAuditory/118.wav', 2245, 1888, 4000, 2059, 904]	14	Present	NA	NA	PRESENT	0.34772491455078125	103.96004700660706	105.96229314804076	107.24563339543955	107.5956353027682	110.08210396766664	4.1198108196258545	[103.9826009273529, 104.0992329120636, 105.06543779373169, 105.25058794021606, 106.00151181221008, 106.11812496185303, 106.23483395576477, 106.35162901878357, 106.46863293647766, 106.58526396751404, 106.70224785804749, 106.81885600090027, 106.93569779396057, 107.05304598808289, 107.16943788528442, 107.28631091117859, 107.4027738571167, 107.51949286460876, 107.63647294044495, 107.75328302383423, 107.85311579704285, 108.08210396766663]	[103.97823428508067, 104.09490095174067, 105.07790095174067, 105.24460095174068, 105.99460095174068, 106.11126761840067, 106.22793428506067, 106.34460095172066, 106.46126761838066, 106.57793428504066, 106.69460095170065, 106.81126761836065, 106.92793428502064, 107.04460095168064, 107.16126761834063, 107.27793428500063, 107.39460095166062, 107.51126761832062, 107.62793428498061, 107.7446009516406, 107.8612676183006, 108.09460095163394]	2021_Feb_18_1111	59.92581966978894	1	0.375
30	19	FALSE	NV	a	['K', 'E', 'V', 'W', 'A', 'U', 'Y', 'H', 'Z', 'M', 'P', 'R', 'X', 'C', 'J', 'B']	[1122, 904, 2245, 2448, 697, 2059, 2670, 986, 2911, 1224, 1456, 1587, 4000, 829, 1029, 760]	13	Present	NA	NA	PRESENT	0.20784807205200195	110.06632804870604	112.07825899124146	113.24493376407314	113.59493567140176	116.19846987724304	4.120210886001587	[110.08888101577759, 110.20598196983337, 111.18179082870483, 111.35749983787537, 112.1077618598938, 112.22447681427002, 112.34148001670837, 112.45806789398193, 112.57508301734924, 112.69174289703369, 112.80873894691467, 112.92534399032593, 113.04227185249329, 113.15884280204773, 113.27578496932983, 113.39250302314758, 113.50934290885925, 113.6259458065033, 113.74276185035706, 113.85956501960754, 113.97634792327881, 114.19846987724304]	[110.09460095163394, 110.21126761829393, 111.19426761829394, 111.36096761829394, 112.11096761829394, 112.22763428495394, 112.34430095161393, 112.46096761827393, 112.57763428493392, 112.69430095159392, 112.81096761825391, 112.9276342849139, 113.0443009515739, 113.1609676182339, 113.27763428489389, 113.39430095155389, 113.51096761821388, 113.62763428487388, 113.74430095153387, 113.86096761819387, 113.97763428485386, 114.2109676181872]	2021_Feb_18_1111	59.92581966978894	1	0.375
30	20	FALSE	NV	a	['S', 'G', 'V', 'U', 'C', 'J', 'M', 'T', 'Y', 'X', 'R', 'B', 'E', 'A', 'K', 'Z']	[1731, 944, 2245, 2059, 829, 1029, 1224, 1888, 2670, 4000, 1587, 760, 904, 697, 1122, 2911]	10	Present	NA	NA	PRESENT	0.05270004272460937	116.18961811065674	118.19491314888	119.01158768331312	119.36158982906032	122.31483697891235	4.119923830032349	[116.2121729850769, 116.3289008140564, 117.29815983772278, 117.48021292686462, 118.23103785514832, 118.34776401519775, 118.46468496322632, 118.5813000202179, 118.69803285598755, 118.81509685516357, 118.93179082870483, 119.04859781265259, 119.1654748916626, 119.28207898139954, 119.39890480041504, 119.51577186584473, 119.63264393806458, 119.74935579299927, 119.86607694625854, 119.9829568862915, 120.09958791732788, 120.31483578681946]	[116.2109676181872, 116.32763428484719, 117.3106342848472, 117.4773342848472, 118.2273342848472, 118.3440009515072, 118.4606676181672, 118.57733428482719, 118.69400095148718, 118.81066761814718, 118.92733428480717, 119.04400095146717, 119.16066761812716, 119.27733428478716, 119.39400095144715, 119.51066761810715, 119.62733428476714, 119.74400095142714, 119.86066761808713, 119.97733428474713, 120.09400095140712, 120.32733428474046]	2021_Feb_18_1111	59.92581966978894	1	0.375
30	21	FALSE	NN	a	['C', 'M', 'S', 'Z', 'A', 'R', 'N', 'U', 'G', 'P', 'E', 'K', 'W', 'T', 'B', 'H']	[829, 1224, 1731, 2911, 697, 1587, 1335, 2059, 944, 1456, 904, 1122, 2448, 1888, 760, 986]	13	Absent	NA	NA	ABSENT	0.4657149314880371	122.31317114830016	124.31100296974182	125.4776777425735	125.82767964990214	128.43120288848877	4.120199918746948	[122.33572483062744, 122.45228290557861, 123.41452693939209, 123.58659195899963, 124.35407280921936, 124.45421195030212, 124.57101202011108, 124.68775081634521, 124.8046989440918, 124.9214448928833, 125.03825402259827, 125.15492796897888, 125.27181196212769, 125.38867592811584, 125.50539779663086, 125.62227892875671, 125.73906993865967, 125.85567879676819, 125.97263383865356, 126.08924388885498, 126.20621585845947, 126.43120193481445]	[122.32733428474046, 122.44400095140045, 123.42700095140046, 123.59370095140046, 124.34370095140046, 124.46036761806046, 124.57703428472045, 124.69370095138045, 124.81036761804044, 124.92703428470044, 125.04370095136044, 125.16036761802043, 125.27703428468043, 125.39370095134042, 125.51036761800042, 125.62703428466041, 125.7437009513204, 125.8603676179804, 125.9770342846404, 126.09370095130039, 126.21036761796039, 126.44370095129372]	2021_Feb_18_1111	59.92581966978894	1	0.375
30	22	FALSE	NN	a	['R', 'T', 'P', 'U', 'G', 'A', 'N', 'V', 'Y', 'E', 'W', 'M', 'J', 'Z', 'S', 'K']	[1587, 1888, 1456, 2059, 944, 697, 1335, 2245, 2670, 904, 2448, 1224, 1029, 2911, 1731, 1122]	12	Absent	NA	NA	ABSENT	0.3023960590362549	128.41919016838074	130.42786312103271	131.47787003511152	131.82787218085872	134.54756999015808	4.119706869125366	[128.441743850708, 128.55866599082947, 129.5308928489685, 129.70997881889343, 130.46052193641663, 130.57740879058838, 130.6943109035492, 130.8111720085144, 130.9279007911682, 131.04484796524048, 131.16134190559387, 131.27814984321594, 131.39505791664124, 131.51177096366882, 131.62874579429626, 131.74533891677856, 131.8622019290924, 131.97924780845642, 132.09558296203613, 132.21237993240356, 132.32919192314148, 132.5475709438324]	[128.44370095129372, 128.56036761795372, 129.54336761795372, 129.7100676179537, 130.4600676179537, 130.5767342846137, 130.6934009512737, 130.8100676179337, 130.9267342845937, 131.0434009512537, 131.16006761791368, 131.27673428457368, 131.39340095123367, 131.51006761789367, 131.62673428455366, 131.74340095121366, 131.86006761787365, 131.97673428453365, 132.09340095119364, 132.21006761785364, 132.32673428451363, 132.56006761784695]	2021_Feb_18_1111	59.92581966978894	1	0.375
30	23	FALSE	NN	a	['T', 'E', 'N', 'A', 'W', 'S', 'R', 'Z', 'U', 'Y', 'C', 'K', 'V', 'B', 'M', 'J']	[1888, 904, 1335, 697, 2448, 1731, 1587, 2911, 2059, 2670, 829, 1122, 2245, 760, 1224, 1029]	13	Absent	NA	NA	ABSENT	1.7237260341644287	134.54243111610413	136.544114112854	137.71078983936002	138.06079174668864	140.6639368534088	4.11982274055481	[134.5649847984314, 134.68189096450806, 135.64726185798645, 135.83318185806274, 136.58373379707336, 136.7004837989807, 136.81751585006714, 136.9341688156128, 137.05129885673523, 137.16771292686462, 137.28464579582214, 137.4015510082245, 137.51830387115479, 137.63489985466003, 137.75170397758484, 137.85168290138245, 137.96854090690613, 138.08531594276428, 138.20200490951538, 138.31882190704346, 138.43563079833984, 138.6639368534088]	[134.56006761784695, 134.67673428450695, 135.65973428450695, 135.82643428450695, 136.57643428450695, 136.69310095116694, 136.80976761782694, 136.92643428448693, 137.04310095114693, 137.15976761780692, 137.27643428446692, 137.3931009511269, 137.5097676177869, 137.6264342844469, 137.7431009511069, 137.8597676177669, 137.9764342844269, 138.09310095108688, 138.20976761774688, 138.32643428440687, 138.44310095106687, 138.6764342844002]	2021_Feb_18_1111	59.92581966978894	1	0.375
30	24	FALSE	NV	a	['N', 'J', 'R', 'V', 'S', 'Z', 'P', 'W', 'H', 'G', 'X', 'E', 'Y', 'K', 'A', 'C']	[1335, 1029, 1587, 2245, 1731, 2911, 1456, 2448, 986, 944, 4000, 904, 2670, 1122, 697, 829]	11	Present	NA	NA	PRESENT	0.10427093505859376	140.64882802963257	142.66032600402832	143.59366744354	143.94366935086865	146.78030395507812	4.119977951049805	[140.67138195037842, 140.7883780002594, 141.76362681388855, 141.9394838809967, 142.6906418800354, 142.807030916214, 142.9239239692688, 143.04114079475403, 143.15747690200806, 143.2743718624115, 143.3910698890686, 143.5079128742218, 143.62472081184387, 143.74136686325073, 143.85828495025635, 143.97491884231567, 144.09192490577698, 144.20873188972473, 144.3254690170288, 144.4421308040619, 144.5587809085846, 144.7803030014038]	[140.6764342844002, 140.79310095106018, 141.7761009510602, 141.94280095106018, 142.69280095106018, 142.80946761772017, 142.92613428438017, 143.04280095104016, 143.15946761770016, 143.27613428436015, 143.39280095102015, 143.50946761768014, 143.62613428434014, 143.74280095100013, 143.85946761766013, 143.97613428432012, 144.09280095098012, 144.20946761764012, 144.3261342843001, 144.4428009509601, 144.5594676176201, 144.79280095095342]	2021_Feb_18_1111	59.92581966978894	1	0.375
30	25	FALSE	NA	a	['C', 'W', 'Z', 'M', 'S', 'B', 'J', 'Y', 'T', 'V', 'K', 'H', 'G', 'X', 'A', 'U']	[829, 2448, 2911, 1224, 1731, 760, 1029, 2670, 1888, 2245, 1122, 986, 944, 4000, 697, 2059]	14	Present	NA	NA	PRESENT	0.08495187759399414	146.77221202850342	148.77645015716553	150.05979135823864	150.40979350398584	152.89666986465454	4.120219707489014	[146.79476499557495, 146.9115228652954, 147.87999200820923, 148.06277799606323, 148.81350779533386, 148.93012285232544, 149.046972990036, 149.1638638973236, 149.28070092201233, 149.39738988876343, 149.51410388946533, 149.6311149597168, 149.74766302108765, 149.86449599266052, 149.98149299621582, 150.09826397895813, 150.21516585350037, 150.33184480667114, 150.44859981536865, 150.56547594070435, 150.68194580078125, 150.89666986465454]	[146.79280095095342, 146.90946761761342, 147.89246761761342, 148.0591676176134, 148.8091676176134, 148.9258342842734, 149.0425009509334, 149.1591676175934, 149.2758342842534, 149.3925009509134, 149.50916761757338, 149.62583428423338, 149.74250095089337, 149.85916761755337, 149.97583428421336, 150.09250095087336, 150.20916761753335, 150.32583428419335, 150.44250095085334, 150.55916761751334, 150.67583428417333, 150.90916761750665]	2021_Feb_18_1111	59.92581966978894	1	0.375
30	26	FALSE	NV	a	['M', 'B', 'A', 'T', 'Z', 'J', 'U', 'N', 'R', 'Y', 'V', 'G', 'X', 'P', 'W', 'H']	[1224, 760, 697, 1888, 2911, 1029, 2059, 1335, 1587, 2670, 2245, 944, 4000, 1456, 2448, 986]	13	Present	NA	NA	PRESENT	0.2020101547241211	152.89554405212402	154.89293599128723	156.0596098104446	156.40961171777323	159.01303601264954	4.120100021362305	[152.9180998802185, 153.03468799591064, 153.99635982513428, 154.16909289360046, 154.93650078773499, 155.03722286224365, 155.1534068584442, 155.27036595344543, 155.38714981079102, 155.50376796722412, 155.62051701545715, 155.7373538017273, 155.85439586639404, 155.97098684310913, 156.08812499046326, 156.20461988449097, 156.32154393196106, 156.43820881843567, 156.55503296852112, 156.67172980308533, 156.78843688964844, 157.01303696632385]	[152.90916761750665, 153.02583428416665, 154.00883428416665, 154.17553428416664, 154.92553428416664, 155.04220095082664, 155.15886761748664, 155.27553428414663, 155.39220095080663, 155.50886761746662, 155.62553428412662, 155.7422009507866, 155.8588676174466, 155.9755342841066, 156.0922009507666, 156.2088676174266, 156.3255342840866, 156.44220095074658, 156.55886761740658, 156.67553428406657, 156.79220095072657, 157.0255342840599]	2021_Feb_18_1111	59.92581966978894	1	0.375
30	27	FALSE	AA	a	['G', 'H', 'S', 'M', 'J', 'U', 'E', 'surprise', 'C', 'R', 'X', 'A', 'K', 'Z', 'Y', 'V']	[944, 986, 1731, 1224, 1029, 2059, 904, 'stimAuditory/all_stimAuditory/216.wav', 829, 1587, 4000, 697, 1122, 2911, 2670, 2245]	11	Present	stimAuditory/all_stimAuditory/101.wav	NA	PRESENT	0.27072906494140625	159.00169110298157	161.00919699668884	161.94253843620052	162.29254034352917	165.12940192222595	4.120204925537109	[159.02424502372742, 159.14124584197998, 160.1127269268036, 160.29252886772156, 161.04310178756714, 161.16001081466675, 161.27678298950195, 161.3934998512268, 161.51020097732544, 161.6270718574524, 161.74378395080566, 161.86064791679382, 161.97777795791626, 162.0942189693451, 162.21111798286438, 162.32787799835205, 162.44470286369324, 162.56141901016235, 162.67813897132874, 162.79507088661194, 162.91170287132263, 163.12940287590027]	[159.0255342840599, 159.14220095071988, 160.1252009507199, 160.29190095071988, 161.04190095071988, 161.15856761737987, 161.27523428403987, 161.39190095069986, 161.50856761735986, 161.62523428401985, 161.74190095067985, 161.85856761733984, 161.97523428399984, 162.09190095065983, 162.20856761731983, 162.32523428397982, 162.44190095063982, 162.55856761729981, 162.6752342839598, 162.7919009506198, 162.9085676172798, 163.14190095061312]	2021_Feb_18_1111	59.92581966978894	1	0.375
30	28	FALSE	NN	a	['E', 'Y', 'A', 'N', 'V', 'M', 'H', 'P', 'S', 'Z', 'W', 'K', 'C', 'R', 'J', 'G']	[904, 2670, 697, 1335, 2245, 1224, 986, 1456, 1731, 2911, 2448, 1122, 829, 1587, 1029, 944]	8	Absent	NA	NA	ABSENT	0.2200930118560791	165.1249749660492	167.12567710876465	167.70901735620345	168.05901950195064	171.24576997756958	4.120092868804932	[165.14752888679504, 165.26428294181824, 166.22909379005432, 166.41546893119812, 167.1662518978119, 167.28308200836182, 167.39982986450195, 167.51675081253052, 167.63335394859314, 167.75019001960754, 167.86693787574768, 167.96697402000427, 168.083801984787, 168.20058393478394, 168.3173909187317, 168.43416595458984, 168.551020860672, 168.66777992248535, 168.78462982177734, 168.90143990516663, 169.01814985275269, 169.2457709312439]	[165.14190095061312, 165.25856761727312, 166.24156761727312, 166.4082676172731, 167.1582676172731, 167.2749342839331, 167.3916009505931, 167.5082676172531, 167.6249342839131, 167.7416009505731, 167.85826761723308, 167.97493428389308, 168.09160095055307, 168.20826761721307, 168.32493428387306, 168.44160095053306, 168.55826761719305, 168.67493428385305, 168.79160095051304, 168.90826761717304, 169.02493428383303, 169.25826761716635]	2021_Feb_18_1111	59.92581966978894	1	0.375
30	29	FALSE	NA	a	['R', 'M', 'K', 'C', 'G', 'W', 'J', 'X', 'N', 'E', 'T', 'A', 'H', 'V', 'B', 'P']	[1587, 1224, 1122, 829, 944, 2448, 1029, 4000, 1335, 904, 1888, 697, 986, 2245, 760, 1456]	8	Present	NA	NA	PRESENT	0.2165389060974121	171.2313849925995	173.24199104309082	173.8253324826225	174.17533438995113	177.362135887146	4.120144844055176	[171.25393986701965, 171.37083387374878, 172.34545993804932, 172.52244591712952, 173.27274584770203, 173.3896849155426, 173.5063738822937, 173.6230227947235, 173.74000597000122, 173.85662078857422, 173.97352695465088, 174.09034299850464, 174.20722889900208, 174.32384395599365, 174.44063186645508, 174.55743789672852, 174.67435598373413, 174.7911069393158, 174.90782189369202, 175.02464199066162, 175.14150190353394, 175.362135887146]	[171.25826761716635, 171.37493428382635, 172.35793428382635, 172.52463428382634, 173.27463428382634, 173.39130095048634, 173.50796761714633, 173.62463428380633, 173.74130095046633, 173.85796761712632, 173.97463428378632, 174.0913009504463, 174.2079676171063, 174.3246342837663, 174.4413009504263, 174.5579676170863, 174.6746342837463, 174.79130095040628, 174.90796761706628, 175.02463428372627, 175.14130095038627, 175.3746342837196]	2021_Feb_18_1111	59.92581966978894	1	0.375
30	30	FALSE	NN	a	['A', 'R', 'S', 'U', 'Z', 'N', 'W', 'M', 'V', 'Y', 'E', 'P', 'B', 'T', 'C', 'J']	[697, 1587, 1731, 2059, 2911, 1335, 2448, 1224, 2245, 2670, 904, 1456, 760, 1888, 829, 1029]	8	Absent	NA	NA	ABSENT	0.34105610847473145	177.35454201698303	179.3585171699524	179.9418583710655	180.2918605168127	183.4785039424896	4.1199867725372314	[177.37709593772888, 177.49396181106567, 178.46183896064758, 178.64527893066406, 179.39587998390198, 179.51259899139404, 179.62957191467285, 179.74640083312988, 179.8631718158722, 179.97997188568115, 180.09663200378418, 180.21352982521057, 180.33025693893433, 180.4471788406372, 180.56371688842773, 180.68070483207703, 180.79750180244446, 180.9142370223999, 181.03111290931702, 181.14796781539917, 181.26471996307373, 181.4785029888153]	[177.3746342837196, 177.49130095037958, 178.4743009503796, 178.64100095037958, 179.39100095037958, 179.50766761703957, 179.62433428369957, 179.74100095035956, 179.85766761701956, 179.97433428367955, 180.09100095033955, 180.20766761699954, 180.32433428365954, 180.44100095031953, 180.55766761697953, 180.67433428363952, 180.79100095029952, 180.90766761695951, 181.0243342836195, 181.1410009502795, 181.2576676169395, 181.49100095027282]	2021_Feb_18_1111	59.92581966978894	1	0.375
30	31	FALSE	NV	a	['W', 'J', 'N', 'M', 'R', 'B', 'E', 'A', 'X', 'P', 'T', 'V', 'H', 'C', 'Z', 'S']	[2448, 1029, 1335, 1224, 1587, 760, 904, 697, 4000, 1456, 1888, 2245, 986, 829, 2911, 1731]	9	Present	NA	NA	PRESENT	0.3623230457305908	183.47793316841123	185.47475218772888	186.174760055502	186.5247622012492	189.59486985206604	4.120117664337158	[183.50048685073853, 183.6002299785614, 184.57819390296936, 184.751610994339, 185.5022439956665, 185.61906480789185, 185.73605585098267, 185.85278701782227, 185.96968293190002, 186.08627796173096, 186.2032859325409, 186.31984090805054, 186.43681502342224, 186.55348181724548, 186.67024087905884, 186.78703784942627, 186.90409588813782, 187.02065181732178, 187.13765287399292, 187.25430583953857, 187.37118983268738, 187.59486985206604]	[183.49100095027282, 183.60766761693282, 184.59066761693282, 184.7573676169328, 185.5073676169328, 185.6240342835928, 185.7407009502528, 185.8573676169128, 185.9740342835728, 186.0907009502328, 186.20736761689278, 186.32403428355278, 186.44070095021277, 186.55736761687277, 186.67403428353276, 186.79070095019276, 186.90736761685275, 187.02403428351275, 187.14070095017274, 187.25736761683274, 187.37403428349273, 187.60736761682605]	2021_Feb_18_1111	59.92581966978894	1	0.375
30	32	FALSE	NA	a	['B', 'S', 'C', 'W', 'Z', 'T', 'N', 'P', 'X', 'A', 'J', 'R', 'V', 'U', 'Y', 'K']	[760, 1731, 829, 2448, 2911, 1888, 1335, 1456, 4000, 697, 1029, 1587, 2245, 2059, 2670, 1122]	9	Present	NA	NA	PRESENT	0.4949939250946045	189.58439016342163	191.59115719795227	192.29116506572535	192.64116697305403	195.71123600006104	4.120078802108765	[189.6069438457489, 189.72355580329895, 190.69456100463867, 190.87463784217834, 191.6256229877472, 191.74237489700317, 191.85902881622314, 191.97592782974243, 192.09282279014587, 192.20940685272217, 192.32625794410706, 192.44315481185913, 192.56005597114563, 192.6767258644104, 192.79340291023254, 192.9103298187256, 193.02727699279785, 193.14400792121887, 193.26083278656006, 193.37758088111877, 193.4942808151245, 193.71123695373535]	[189.60736761682605, 189.72403428348605, 190.70703428348605, 190.87373428348604, 191.62373428348604, 191.74040095014604, 191.85706761680603, 191.97373428346603, 192.09040095012602, 192.20706761678602, 192.32373428344602, 192.440400950106, 192.557067616766, 192.673734283426, 192.790400950086, 192.907067616746, 193.023734283406, 193.14040095006598, 193.25706761672598, 193.37373428338597, 193.49040095004597, 193.7237342833793]	2021_Feb_18_1111	59.92581966978894	1	0.375
30	33	FALSE	NV	a	['H', 'T', 'U', 'M', 'V', 'K', 'S', 'Y', 'W', 'R', 'X', 'P', 'C', 'B', 'A', 'Z']	[986, 1888, 2059, 1224, 2245, 1122, 1731, 2670, 2448, 1587, 4000, 1456, 829, 760, 697, 2911]	11	Present	NA	NA	PRESENT	0.1323409080505371	195.70739817619324	197.70740818977356	198.64074843719231	198.990750344521	201.82760286331177	4.120194673538208	[195.72995281219482, 195.84665298461914, 196.8109278678894, 196.99813985824585, 197.74860501289368, 197.86564898490906, 197.9654438495636, 198.08235883712769, 198.19909596443176, 198.31581282615662, 198.43272185325623, 198.54946994781494, 198.66633200645447, 198.78301095962524, 198.89985585212708, 199.0167269706726, 199.13351798057556, 199.25025296211243, 199.36704778671265, 199.4838879108429, 199.60068583488464, 199.82760190963745]	[195.7237342833793, 195.84040095003928, 196.8234009500393, 196.99010095003928, 197.74010095003928, 197.85676761669927, 197.97343428335927, 198.09010095001926, 198.20676761667926, 198.32343428333925, 198.44010094999925, 198.55676761665924, 198.67343428331924, 198.79010094997923, 198.90676761663923, 199.02343428329922, 199.14010094995922, 199.25676761661921, 199.3734342832792, 199.4901009499392, 199.6067676165992, 199.84010094993252]	2021_Feb_18_1111	59.92581966978894	1	0.375
30	34	FALSE	AA	a	['Z', 'W', 'A', 'V', 'surprise', 'H', 'M', 'X', 'U', 'G', 'T', 'Y', 'S', 'J', 'B', 'N']	[2911, 2448, 697, 2245, 'stimAuditory/all_stimAuditory/215.wav', 986, 1224, 4000, 2059, 944, 1888, 2670, 1731, 1029, 760, 1335]	8	Present	stimAuditory/all_stimAuditory/118.wav	NA	PRESENT	0.2887449264526367	201.81385207176208	203.8239390850067	204.4072793324455	204.75728243186705	207.94396996498108	4.120030879974365	[201.83640694618225, 201.9531478881836, 202.9272928237915, 203.10479593276978, 203.85530996322632, 203.97190880775452, 204.0887098312378, 204.20551586151123, 204.3224790096283, 204.4390618801117, 204.55608701705933, 204.67274498939514, 204.78965783119202, 204.9063618183136, 205.023295879364, 205.14001893997192, 205.25675702095032, 205.37363386154175, 205.4902539253235, 205.60720491409302, 205.7240138053894, 205.94396901130676]	[201.84010094993252, 201.95676761659251, 202.93976761659252, 203.1064676165925, 203.8564676165925, 203.9731342832525, 204.0898009499125, 204.2064676165725, 204.3231342832325, 204.4398009498925, 204.55646761655248, 204.67313428321248, 204.78980094987247, 204.90646761653247, 205.02313428319246, 205.13980094985246, 205.25646761651245, 205.37313428317245, 205.48980094983244, 205.60646761649244, 205.72313428315243, 205.95646761648575]	2021_Feb_18_1111	59.92581966978894	1	0.375
30	35	FALSE	NN	a	['S', 'E', 'K', 'R', 'P', 'C', 'Y', 'N', 'W', 'A', 'B', 'V', 'T', 'M', 'H', 'U']	[1731, 904, 1122, 1587, 1456, 829, 2670, 1335, 2448, 697, 760, 2245, 1888, 1224, 986, 2059]	8	Absent	NA	NA	ABSENT	0.4613339900970459	207.9372391700745	209.94018816947937	210.52352937059248	210.87353151633968	214.0603358745575	4.120147705078125	[207.95979189872742, 208.07655382156372, 209.04366278648376, 209.22751379013062, 209.97837281227112, 210.0952558517456, 210.21214079856873, 210.32882285118103, 210.44569492340088, 210.56238079071045, 210.6792140007019, 210.79612183570862, 210.91278100013733, 211.02966499328613, 211.1462209224701, 211.26301193237305, 211.380038022995, 211.4966700077057, 211.61349391937256, 211.7302370071411, 211.84709000587463, 212.0603380203247]	[207.95646761648575, 208.07313428314575, 209.05613428314575, 209.22283428314574, 209.97283428314574, 210.08950094980574, 210.20616761646573, 210.32283428312573, 210.43950094978572, 210.55616761644572, 210.67283428310571, 210.7895009497657, 210.9061676164257, 211.0228342830857, 211.1395009497457, 211.2561676164057, 211.37283428306569, 211.48950094972568, 211.60616761638568, 211.72283428304567, 211.83950094970567, 212.072834283039]	2021_Feb_18_1111	59.92581966978894	1	0.375
30	36	FALSE	NV	a	['S', 'Z', 'W', 'Y', 'C', 'V', 'K', 'A', 'U', 'B', 'H', 'X', 'J', 'P', 'E', 'T']	[1731, 2911, 2448, 2670, 829, 2245, 1122, 697, 2059, 760, 986, 4000, 1029, 1456, 904, 1888]	12	Present	NA	NA	PRESENT	0.21060395240783691	214.04376101493835	216.05675101280212	217.10675911897383	217.45676102630244	220.1767029762268	4.119951963424683	[214.0663139820099, 214.1827268600464, 215.16002678871155, 215.33406400680542, 216.08481001853943, 216.20161700248718, 216.31847286224365, 216.43520998954773, 216.55206179618835, 216.66892194747925, 216.78567385673523, 216.90235900878906, 217.01929998397827, 217.13592290878296, 217.25268602371216, 217.36953592300415, 217.4862298965454, 217.60325598716736, 217.71988201141357, 217.83683490753174, 217.95349287986755, 218.17670392990112]	[214.072834283039, 214.18950094969898, 215.17250094969899, 215.33920094969898, 216.08920094969898, 216.20586761635897, 216.32253428301897, 216.43920094967896, 216.55586761633896, 216.67253428299895, 216.78920094965895, 216.90586761631894, 217.02253428297894, 217.13920094963893, 217.25586761629893, 217.37253428295892, 217.48920094961892, 217.6058676162789, 217.7225342829389, 217.8392009495989, 217.9558676162589, 218.18920094959222]	2021_Feb_18_1111	59.92581966978894	1	0.375
30	37	FALSE	AA	a	['J', 'B', 'K', 'Y', 'W', 'Z', 'surprise', 'C', 'P', 'X', 'R', 'G', 'M', 'V', 'N', 'H']	[1029, 760, 1122, 2670, 2448, 2911, 'stimAuditory/all_stimAuditory/123.wav', 829, 1456, 4000, 1587, 944, 1224, 2245, 1335, 986]	10	Present	stimAuditory/all_stimAuditory/216.wav	NA	PRESENT	0.2390961647033691	220.1668381690979	222.17299604415896	222.98967177068496	223.3396736780136	226.2930698394775	4.1200737953186035	[220.18939185142517, 220.30597281455994, 221.27639389038086, 221.457417011261, 222.20795679092407, 222.32482481002808, 222.44168186187744, 222.55834078788757, 222.6750988960266, 222.792053937912, 222.9088418483734, 223.02562999725342, 223.14253687858582, 223.25924682617188, 223.37584686279297, 223.49285697937012, 223.60952496528625, 223.72642993927002, 223.8432719707489, 223.96034383773804, 224.07682490348816, 224.29306888580322]	[220.18920094959222, 220.30586761625221, 221.28886761625222, 221.4555676162522, 222.2055676162522, 222.3222342829122, 222.4389009495722, 222.5555676162322, 222.6722342828922, 222.7889009495522, 222.90556761621218, 223.02223428287218, 223.13890094953217, 223.25556761619217, 223.37223428285216, 223.48890094951216, 223.60556761617215, 223.72223428283215, 223.83890094949214, 223.95556761615214, 224.07223428281213, 224.30556761614545]	2021_Feb_18_1111	59.92581966978894	1	0.375
30	38	FALSE	NA	a	['A', 'W', 'Z', 'P', 'Y', 'V', 'G', 'N', 'B', 'J', 'S', 'T', 'R', 'X', 'M', 'U']	[697, 2448, 2911, 1456, 2670, 2245, 944, 1335, 760, 1029, 1731, 1888, 1587, 4000, 1224, 2059]	14	Present	NA	NA	PRESENT	0.17245101928710938	226.28990817070007	228.28936910629272	229.57270935369152	229.92271245311304	232.40943598747253	4.12006688117981	[226.31246185302734, 226.4293749332428, 227.39275979995728, 227.58035898208618, 228.3312029838562, 228.4313189983368, 228.54799699783325, 228.66474080085754, 228.78159379959106, 228.89832186698914, 229.01511001586914, 229.1319580078125, 229.24896383285522, 229.36556196212769, 229.48231482505798, 229.5991928577423, 229.71592497825623, 229.83276200294495, 229.9496238231659, 230.0664038658142, 230.18316292762756, 230.40943694114685]	[226.30556761614545, 226.42223428280545, 227.40523428280545, 227.57193428280544, 228.32193428280544, 228.43860094946544, 228.55526761612543, 228.67193428278543, 228.78860094944542, 228.90526761610542, 229.02193428276541, 229.1386009494254, 229.2552676160854, 229.3719342827454, 229.4886009494054, 229.6052676160654, 229.72193428272539, 229.83860094938538, 229.95526761604538, 230.07193428270537, 230.18860094936537, 230.4219342826987]	2021_Feb_18_1111	59.92581966978894	1	0.375
30	39	FALSE	NV	a	['C', 'Y', 'S', 'M', 'G', 'H', 'B', 'X', 'K', 'A', 'T', 'R', 'P', 'N', 'E', 'V']	[829, 2670, 1731, 1224, 944, 986, 760, 4000, 1122, 697, 1888, 1587, 1456, 1335, 904, 2245]	8	Present	NA	NA	PRESENT	0.20095086097717285	232.3965060710907	234.4057099819183	234.98905142145003	235.33905332877865	238.52580285072327	4.120092868804932	[232.41905879974365, 232.53594398498535, 233.5091269016266, 233.68703389167786, 234.43806195259094, 234.5544319152832, 234.67131090164185, 234.7880699634552, 234.90493202209473, 235.0216338634491, 235.13838291168213, 235.25527095794678, 235.37203979492188, 235.4889099597931, 235.60549688339233, 235.7224838733673, 235.8393189907074, 235.95598793029785, 236.0726408958435, 236.18966579437256, 236.30636286735535, 236.52580380439758]	[232.4219342826987, 232.53860094935868, 233.52160094935869, 233.68830094935868, 234.43830094935868, 234.55496761601867, 234.67163428267867, 234.78830094933866, 234.90496761599866, 235.02163428265865, 235.13830094931865, 235.25496761597864, 235.37163428263864, 235.48830094929863, 235.60496761595863, 235.72163428261862, 235.83830094927862, 235.9549676159386, 236.0716342825986, 236.1883009492586, 236.3049676159186, 236.53830094925192]	2021_Feb_18_1111	59.92581966978894	1	0.375
30	40	FALSE	NV	a	['V', 'Y', 'E', 'T', 'B', 'U', 'K', 'M', 'A', 'S', 'Z', 'P', 'X', 'J', 'N', 'W']	[2245, 2670, 904, 1888, 760, 2059, 1122, 1224, 697, 1731, 2911, 1456, 4000, 1029, 1335, 2448]	13	Present	NA	NA	PRESENT	0.269481897354126	238.51960706710815	240.52222299575809	241.68889776858975	242.03889967591837	244.64216899871823	4.119946002960205	[238.542160987854, 238.65884590148926, 239.625492811203, 239.8099880218506, 240.5608639717102, 240.6778688430786, 240.79447078704834, 240.9112639427185, 241.02791786193848, 241.14471793174744, 241.2615509033203, 241.37837982177734, 241.49510884284973, 241.6120297908783, 241.72880387306213, 241.84541988372803, 241.96231889724731, 242.07908582687378, 242.19594287872314, 242.31270599365234, 242.42953085899353, 242.64216995239258]	[238.53830094925192, 238.65496761591191, 239.63796761591192, 239.8046676159119, 240.5546676159119, 240.6713342825719, 240.7880009492319, 240.9046676158919, 241.0213342825519, 241.1380009492119, 241.25466761587188, 241.37133428253188, 241.48800094919187, 241.60466761585187, 241.72133428251186, 241.83800094917186, 241.95466761583185, 242.07133428249185, 242.18800094915184, 242.30466761581184, 242.42133428247183, 242.65466761580515]	2021_Feb_18_1111	59.92581966978894	1	0.375
30	41	FALSE	NN	a	['W', 'T', 'H', 'P', 'J', 'C', 'A', 'N', 'S', 'R', 'V', 'E', 'U', 'G', 'M', 'Z']	[2448, 1888, 986, 1456, 1029, 829, 697, 1335, 1731, 1587, 2245, 904, 2059, 944, 1224, 2911]	11	Absent	NA	NA	ABSENT	0.3229830265045166	244.62619709968567	246.63840699195865	247.5717493851446	247.92175033879897	250.7585368156433	4.120129823684692	[244.64875102043152, 244.76530289649963, 245.74185991287231, 245.91669988632202, 246.66727995872498, 246.78407979011536, 246.90109992027283, 247.0176079273224, 247.134624004364, 247.25122380256653, 247.36813497543335, 247.484867811203, 247.6015968322754, 247.71857595443726, 247.8351058959961, 247.95218992233276, 248.06865692138672, 248.18572878837585, 248.30233693122864, 248.41938090324402, 248.53642797470093, 248.7585368156433]	[244.65466761580515, 244.77133428246515, 245.75433428246515, 245.92103428246514, 246.67103428246514, 246.78770094912514, 246.90436761578513, 247.02103428244513, 247.13770094910512, 247.25436761576512, 247.37103428242511, 247.4877009490851, 247.6043676157451, 247.7210342824051, 247.8377009490651, 247.9543676157251, 248.07103428238509, 248.18770094904508, 248.30436761570508, 248.42103428236507, 248.53770094902507, 248.77103428235839]	2021_Feb_18_1111	59.92581966978894	1	0.375
30	42	FALSE	VV	a	['S', 'P', 'R', 'T', 'H', 'A', 'N', 'J', 'surprise', 'W', 'C', 'X', 'G', 'Z', 'M', 'U']	[1731, 1456, 1587, 1888, 986, 697, 1335, 1029, 'stimAuditory/all_stimAuditory/110.wav', 2448, 829, 4000, 944, 2911, 1224, 2059]	12	Present	NA	NA	PRESENT	0.15944910049438477	250.7492871284485	252.75492310523987	253.80493001931868	254.15493216506587	256.8749029636383	4.1199798583984375	[250.77184081077576, 250.88856887817383, 251.85823392868042, 252.0396068096161, 252.79042100906372, 252.90745496749878, 253.02417993545532, 253.14091897010803, 253.25771498680115, 253.3743360042572, 253.4914219379425, 253.60819482803345, 253.72500085830688, 253.84172892570496, 253.95875096321106, 254.07514691352844, 254.19215083122253, 254.30870389938354, 254.42562198638916, 254.5423548221588, 254.65912580490112, 254.8749029636383]	[250.77103428235839, 250.88770094901838, 251.87070094901839, 252.03740094901838, 252.78740094901838, 252.90406761567837, 253.02073428233837, 253.13740094899836, 253.25406761565836, 253.37073428231835, 253.48740094897835, 253.60406761563834, 253.72073428229834, 253.83740094895833, 253.95406761561833, 254.07073428227832, 254.18740094893832, 254.3040676155983, 254.4207342822583, 254.5374009489183, 254.6540676155783, 254.88740094891162]	2021_Feb_18_1111	59.92581966978894	1	0.375
30	43	FALSE	NA	a	['C', 'S', 'U', 'P', 'Y', 'B', 'E', 'M', 'X', 'Z', 'K', 'G', 'T', 'H', 'A', 'J']	[829, 1731, 2059, 1456, 2670, 760, 904, 1224, 4000, 2911, 1122, 944, 1888, 986, 697, 1029]	9	Present	NA	NA	PRESENT	0.05302691459655762	256.87226605415344	258.87124514579773	259.57125205989655	259.92125396722514	262.99126982688904	4.120024681091309	[256.8948199748993, 257.0119118690491, 257.9745919704437, 258.14605498313904, 258.91384983062744, 259.0136799812317, 259.13058495521545, 259.2473039627075, 259.3640818595886, 259.480831861496, 259.5975739955902, 259.7145268917084, 259.8313488960266, 259.9482858181, 260.0648069381714, 260.18170189857483, 260.29839992523193, 260.4151039123535, 260.5326249599457, 260.648756980896, 260.7655599117279, 260.99126982688904]	[256.8874009489116, 257.0040676155716, 257.9870676155716, 258.1537676155716, 258.9037676155716, 259.02043428223163, 259.13710094889166, 259.2537676155517, 259.3704342822117, 259.4871009488717, 259.60376761553175, 259.7204342821918, 259.8371009488518, 259.9537676155118, 260.07043428217185, 260.18710094883187, 260.3037676154919, 260.4204342821519, 260.53710094881194, 260.65376761547196, 260.770434282132, 261.00376761546534]	2021_Feb_18_1111	59.92581966978894	1	0.375
30	44	FALSE	NA	a	['C', 'H', 'K', 'E', 'M', 'R', 'Y', 'P', 'A', 'B', 'X', 'Z', 'U', 'T', 'N', 'W']	[829, 986, 1122, 904, 1224, 1587, 2670, 1456, 697, 760, 4000, 2911, 2059, 1888, 1335, 2448]	11	Present	NA	NA	PRESENT	0.16123390197753906	262.97905111312866	264.98762011528015	265.9209613163733	266.27096346212045	269.10763597488403	4.120015859603882	[263.00160479545593, 263.11818385124207, 264.09096097946167, 264.26959800720215, 265.0201108455658, 265.13709592819214, 265.2538149356842, 265.3707928657532, 265.4873549938202, 265.60416078567505, 265.7207589149475, 265.83775186538696, 265.954509973526, 266.07134079933167, 266.18799781799316, 266.30485486984253, 266.421737909317, 266.5384027957916, 266.65515899658203, 266.7719829082489, 266.8889219760895, 267.10763692855835]	[263.00376761546534, 263.12043428212536, 264.10343428212536, 264.27013428212535, 265.02013428212535, 265.1368009487854, 265.2534676154454, 265.3701342821054, 265.48680094876545, 265.6034676154255, 265.7201342820855, 265.8368009487455, 265.95346761540554, 266.07013428206557, 266.1868009487256, 266.3034676153856, 266.42013428204564, 266.53680094870566, 266.6534676153657, 266.7701342820257, 266.88680094868573, 267.1201342820191]	2021_Feb_18_1111	59.92581966978894	1	0.375
30	45	FALSE	NA	a	['H', 'G', 'M', 'U', 'Y', 'J', 'E', 'Z', 'A', 'N', 'R', 'S', 'W', 'X', 'C', 'P']	[986, 944, 1224, 2059, 2670, 1029, 904, 2911, 697, 1335, 1587, 1731, 2448, 4000, 829, 1456]	14	Present	NA	NA	PRESENT	0.27083897590637207	269.1020109653473	271.10382413864136	272.38716533971444	272.73716748546167	275.22400283813477	4.120178699493408	[269.1245639324188, 269.24136781692505, 270.20732593536377, 270.3924398422241, 271.1432719230652, 271.26011991500854, 271.377112865448, 271.49383091926575, 271.61041498184204, 271.7272319793701, 271.84413599967957, 271.96085000038147, 272.0775468349457, 272.19439697265625, 272.31130385398865, 272.42791986465454, 272.54494881629944, 272.6615128517151, 272.77847385406494, 272.895094871521, 272.9951729774475, 273.2240037918091]	[269.1201342820191, 269.2368009486791, 270.2198009486791, 270.3865009486791, 271.1365009486791, 271.2531676153391, 271.36983428199915, 271.48650094865917, 271.6031676153192, 271.7198342819792, 271.83650094863924, 271.95316761529926, 272.0698342819593, 272.1865009486193, 272.30316761527934, 272.41983428193936, 272.5365009485994, 272.6531676152594, 272.76983428191943, 272.88650094857945, 273.0031676152395, 273.2365009485728]	2021_Feb_18_1111	59.92581966978894	1	0.375
30	46	FALSE	NN	a	['Y', 'Z', 'J', 'S', 'H', 'M', 'B', 'N', 'R', 'U', 'E', 'P', 'W', 'V', 'K', 'G']	[2670, 2911, 1029, 1731, 986, 1224, 760, 1335, 1587, 2059, 904, 1456, 2448, 2245, 1122, 944]	10	Absent	NA	NA	ABSENT	0.42711806297302246	275.20866203308105	277.22040915489197	278.0370846429994	278.3870867887466	281.34036898612976	4.119959831237793	[275.2312169075012, 275.34767985343933, 276.32368993759155, 276.4989218711853, 277.24987292289734, 277.3667550086975, 277.4834449291229, 277.60021591186523, 277.716933965683, 277.83377385139465, 277.9507119655609, 278.06720781326294, 278.18403792381287, 278.3008089065552, 278.41768980026245, 278.53443694114685, 278.65146684646606, 278.7681999206543, 278.8848400115967, 279.0018219947815, 279.11844182014465, 279.3403699398041]	[275.2365009485728, 275.35316761523285, 276.33616761523285, 276.50286761523284, 277.25286761523284, 277.36953428189287, 277.4862009485529, 277.6028676152129, 277.71953428187294, 277.83620094853296, 277.952867615193, 278.069534281853, 278.18620094851303, 278.30286761517306, 278.4195342818331, 278.5362009484931, 278.6528676151531, 278.76953428181315, 278.8862009484732, 279.0028676151332, 279.1195342817932, 279.35286761512657]	2021_Feb_18_1111	59.92581966978894	1	0.375
30	47	FALSE	NA	a	['A', 'C', 'B', 'W', 'Y', 'J', 'T', 'M', 'Z', 'N', 'E', 'X', 'K', 'G', 'S', 'H']	[697, 829, 760, 2448, 2670, 1029, 1888, 1224, 2911, 1335, 904, 4000, 1122, 944, 1731, 986]	12	Present	NA	NA	PRESENT	0.319760799407959	281.33169507980347	283.3365831375122	284.3865910052653	284.7365931510125	287.4567358493805	4.120152711868286	[281.3542490005493, 281.4709107875824, 282.44006085395813, 282.6222629547119, 283.37296986579895, 283.4898018836975, 283.6066858768463, 283.7234330177307, 283.8404037952423, 283.9567267894745, 284.0736849308014, 284.19035601615906, 284.3071849346161, 284.42395281791687, 284.54096484184265, 284.6575930118561, 284.7745018005371, 284.89116382598877, 285.00833892822266, 285.1247618198395, 285.241751909256, 285.4567358493805]	[281.35286761512657, 281.4695342817866, 282.4525342817866, 282.6192342817866, 283.3692342817866, 283.4859009484466, 283.60256761510664, 283.71923428176666, 283.8359009484267, 283.9525676150867, 284.06923428174673, 284.18590094840675, 284.3025676150668, 284.4192342817268, 284.5359009483868, 284.65256761504685, 284.7692342817069, 284.8859009483669, 285.0025676150269, 285.11923428168694, 285.23590094834697, 285.4692342816803]	2021_Feb_18_1111	59.92581966978894	1	0.375
30	48	FALSE	NV	a	['S', 'K', 'V', 'E', 'U', 'W', 'Z', 'R', 'P', 'T', 'C', 'J', 'X', 'H', 'Y', 'A']	[1731, 1122, 2245, 904, 2059, 2448, 2911, 1587, 1456, 1888, 829, 1029, 4000, 986, 2670, 697]	13	Present	NA	NA	PRESENT	0.31711888313293457	287.4549160003662	289.4530770778656	290.6197506586044	290.96975280435163	293.5731029510498	4.120025873184204	[287.47746896743774, 287.5943069458008, 288.55642580986023, 288.72861981391907, 289.49617886543274, 289.5961558818817, 289.71317982673645, 289.8297510147095, 289.9465928077698, 290.0632109642029, 290.18005180358887, 290.2968719005585, 290.41385793685913, 290.5305290222168, 290.64722299575806, 290.7640769481659, 290.8809289932251, 290.9978849887848, 291.11467385292053, 291.23140692710876, 291.34832191467285, 291.57310485839844]	[287.4692342816803, 287.58590094834034, 288.56890094834034, 288.73560094834033, 289.48560094834033, 289.60226761500036, 289.7189342816604, 289.8356009483204, 289.9522676149804, 290.06893428164045, 290.1856009483005, 290.3022676149605, 290.4189342816205, 290.53560094828055, 290.65226761494057, 290.7689342816006, 290.8856009482606, 291.00226761492064, 291.11893428158066, 291.2356009482407, 291.3522676149007, 291.58560094823406]	2021_Feb_18_1111	59.92581966978894	1	0.375
30	49	FALSE	NN	a	['P', 'J', 'S', 'A', 'C', 'V', 'R', 'E', 'W', 'G', 'B', 'Y', 'H', 'Z', 'K', 'T']	[1456, 1029, 1731, 697, 829, 2245, 1587, 904, 2448, 944, 760, 2670, 986, 2911, 1122, 1888]	13	Absent	NA	NA	ABSENT	0.28140902519226074	293.5613830089569	295.5694191455841	296.7360927263229	297.08609463365156	299.68946981430054	4.120050668716431	[293.58393597602844, 293.7005708217621, 294.6727948188782, 294.851765871048, 295.602854013443, 295.7193319797516, 295.8361759185791, 295.95309591293335, 296.0697319507599, 296.1867380142212, 296.3032109737396, 296.4202539920807, 296.53718185424805, 296.65387201309204, 296.77055501937866, 296.8872859477997, 297.00409483909607, 297.12101197242737, 297.2377989292145, 297.3545789718628, 297.47124791145325, 297.68947100639343]	[293.58560094823406, 293.7022676148941, 294.6852676148941, 294.8519676148941, 295.6019676148941, 295.7186342815541, 295.8353009482141, 295.95196761487415, 296.0686342815342, 296.1853009481942, 296.3019676148542, 296.41863428151424, 296.53530094817427, 296.6519676148343, 296.7686342814943, 296.88530094815434, 297.00196761481436, 297.1186342814744, 297.2353009481344, 297.35196761479443, 297.46863428145446, 297.7019676147878]	2021_Feb_18_1111	59.92581966978894	1	0.375
30	50	FALSE	NN	a	['Z', 'J', 'W', 'C', 'K', 'H', 'G', 'U', 'S', 'V', 'B', 'M', 'N', 'Y', 'T', 'A']	[2911, 1029, 2448, 829, 1122, 986, 944, 2059, 1731, 2245, 760, 1224, 1335, 2670, 1888, 697]	9	Absent	NA	NA	ABSENT	0.14299893379211426	299.68443608283997	301.685809135437	302.38581700321015	302.7358191489573	305.80583596229553	4.1200268268585205	[299.7069900035858, 299.8239448070526, 300.78916096687317, 300.97497391700745, 301.72577381134033, 301.8425989151001, 301.9593939781189, 302.07637190818787, 302.19316697120667, 302.30975890159607, 302.4266219139099, 302.5434708595276, 302.6602568626404, 302.7768728733063, 302.89386796951294, 302.99367594718933, 303.1104428768158, 303.2272529602051, 303.34408593177795, 303.4608678817749, 303.57767391204834, 303.80583596229553]	[299.7019676147878, 299.8186342814478, 300.80163428144783, 300.9683342814478, 301.7183342814478, 301.83500094810785, 301.95166761476787, 302.0683342814279, 302.1850009480879, 302.30166761474794, 302.41833428140797, 302.535000948068, 302.651667614728, 302.76833428138804, 302.88500094804806, 303.0016676147081, 303.1183342813681, 303.23500094802813, 303.35166761468815, 303.4683342813482, 303.5850009480082, 303.81833428134155]	2021_Feb_18_1111	59.92581966978894	1	0.375
30	51	FALSE	NA	a	['W', 'Z', 'A', 'M', 'U', 'N', 'G', 'S', 'B', 'Y', 'X', 'C', 'P', 'J', 'R', 'V']	[2448, 2911, 697, 1224, 2059, 1335, 944, 1731, 760, 2670, 4000, 829, 1456, 1029, 1587, 2245]	11	Present	NA	NA	ABSENT	1.6113049983978271	305.7913670539856	307.8020830154419	308.7354244549536	309.0854263622822	311.92220282554626	4.12011981010437	[305.81392097473145, 305.9302349090576, 306.9055278301239, 307.0815999507904, 307.8322968482971, 307.9490728378296, 308.0660448074341, 308.182776927948, 308.29941391944885, 308.4163589477539, 308.53290581703186, 308.64993500709534, 308.76656794548035, 308.8836758136749, 309.00010895729065, 309.11708092689514, 309.2337498664856, 309.35057187080383, 309.4672999382019, 309.5842089653015, 309.70090794563293, 309.92220282554626]	[305.81833428134155, 305.9350009480016, 306.9180009480016, 307.08470094800157, 307.83470094800157, 307.9513676146616, 308.0680342813216, 308.18470094798164, 308.30136761464166, 308.4180342813017, 308.5347009479617, 308.65136761462173, 308.76803428128176, 308.8847009479418, 309.0013676146018, 309.1180342812618, 309.23470094792185, 309.3513676145819, 309.4680342812419, 309.5847009479019, 309.70136761456195, 309.9347009478953]	2021_Feb_18_1111	59.92581966978894	1	0.375
30	52	FALSE	NV	a	['E', 'K', 'Y', 'V', 'U', 'Z', 'C', 'N', 'X', 'M', 'S', 'W', 'R', 'G', 'J', 'P']	[904, 1122, 2670, 2245, 2059, 2911, 829, 1335, 4000, 1224, 1731, 2448, 1587, 944, 1029, 1456]	9	Present	NA	NA	PRESENT	0.063838958740234375	311.9140160083771	313.91850900650024	314.61851711269196	314.96851902002055	318.0385699272156	4.120060920715332	[311.93657183647156, 312.0534768104553, 313.0218939781189, 313.2045187950134, 313.95554995536804, 314.07214283943176, 314.188992023468, 314.30580282211304, 314.4225490093231, 314.53953099250793, 314.65625500679016, 314.77298283576965, 314.889750957489, 315.00674390792847, 315.1234619617462, 315.24009680747986, 315.357008934021, 315.4738349914551, 315.590637922287, 315.7072868347168, 315.8242838382721, 316.0385708808899]	[311.9347009478953, 312.0513676145553, 313.0343676145553, 313.2010676145553, 313.9510676145553, 314.06773428121534, 314.18440094787536, 314.3010676145354, 314.4177342811954, 314.53440094785543, 314.65106761451545, 314.7677342811755, 314.8844009478355, 315.0010676144955, 315.11773428115555, 315.2344009478156, 315.3510676144756, 315.4677342811356, 315.58440094779564, 315.70106761445567, 315.8177342811157, 316.05106761444904]	2021_Feb_18_1111	59.92581966978894	1	0.375
30	53	FALSE	NA	a	['M', 'H', 'R', 'Z', 'W', 'K', 'P', 'A', 'X', 'Y', 'C', 'E', 'J', 'N', 'U', 'S']	[1224, 986, 1587, 2911, 2448, 1122, 1456, 697, 4000, 2670, 829, 904, 1029, 1335, 2059, 1731]	9	Present	NA	NA	PRESENT	0.05316781997680664	318.0374131202698	320.0347821712494	320.7347900390225	321.0847921847697	324.154935836792	4.1201536655426025	[318.05996584892273, 318.15977597236633, 319.13826084136963, 319.3109858036041, 320.06181287765503, 320.17877197265625, 320.29544496536255, 320.4123799800873, 320.5291509628296, 320.6459708213806, 320.76274490356445, 320.8795328140259, 320.99615502357483, 321.1131958961487, 321.22973585128784, 321.34665989875793, 321.4633078575134, 321.5802857875824, 321.6969769001007, 321.8139657974243, 321.9306299686432, 322.1549367904663]	[318.05106761444904, 318.16773428110906, 319.15073428110907, 319.31743428110906, 320.06743428110906, 320.1841009477691, 320.3007676144291, 320.41743428108913, 320.53410094774915, 320.6507676144092, 320.7674342810692, 320.8841009477292, 321.00076761438925, 321.11743428104927, 321.2341009477093, 321.3507676143693, 321.46743428102934, 321.58410094768936, 321.7007676143494, 321.8174342810094, 321.93410094766944, 322.1674342810028]	2021_Feb_18_1111	59.92581966978894	1	0.375
30	54	FALSE	NV	a	['T', 'H', 'V', 'P', 'J', 'E', 'M', 'Z', 'X', 'A', 'R', 'N', 'C', 'U', 'K', 'Y']	[1888, 986, 2245, 1456, 1029, 904, 1224, 2911, 4000, 697, 1587, 1335, 829, 2059, 1122, 2670]	9	Present	NA	NA	PRESENT	0.16988015174865723	324.14379715919495	326.15128898620605	326.8512970923978	327.20129899972636	330.2713029384613	4.120013952255249	[324.16635179519653, 324.28319787979126, 325.2546269893646, 325.4346590042114, 326.18500781059265, 326.3020169734955, 326.41877794265747, 326.5355348587036, 326.6523108482361, 326.7692189216614, 326.88591289520264, 327.0026478767395, 327.1195459365845, 327.23629093170166, 327.3529899120331, 327.4699008464813, 327.58657479286194, 327.70334696769714, 327.8201758861542, 327.93687987327576, 328.05386185646057, 328.2713029384613]	[324.1674342810028, 324.2841009476628, 325.2671009476628, 325.4338009476628, 326.1838009476628, 326.3004676143228, 326.41713428098285, 326.5338009476429, 326.6504676143029, 326.7671342809629, 326.88380094762294, 327.00046761428297, 327.117134280943, 327.233800947603, 327.35046761426304, 327.46713428092306, 327.5838009475831, 327.7004676142431, 327.81713428090313, 327.93380094756316, 328.0504676142232, 328.28380094755653]	2021_Feb_18_1111	59.92581966978894	1	0.375
30	55	FALSE	NV	a	['C', 'G', 'M', 'E', 'Z', 'P', 'Y', 'J', 'K', 'B', 'U', 'V', 'X', 'S', 'N', 'H']	[829, 944, 1224, 904, 2911, 1456, 2670, 1029, 1122, 760, 2059, 2245, 4000, 1731, 1335, 986]	13	Present	NA	NA	ABSENT	1.9190828800201416	330.2669060230255	332.26761507987976	333.43428985271146	333.7842917600401	336.3876688480377	4.120053768157959	[330.28945994377136, 330.4063858985901, 331.3709948062897, 331.55753898620605, 332.30841279029846, 332.4251389503479, 332.5418689250946, 332.6585829257965, 332.77557587623596, 332.87537693977356, 332.99222779273987, 333.10900497436523, 333.22572898864746, 333.3425359725952, 333.459352016449, 333.5761640071869, 333.69301080703735, 333.80978298187256, 333.92650985717773, 334.0432479381561, 334.160178899765, 334.3876688480377]	[330.28380094755653, 330.40046761421655, 331.38346761421656, 331.55016761421655, 332.30016761421655, 332.41683428087657, 332.5335009475366, 332.6501676141966, 332.76683428085664, 332.88350094751667, 333.0001676141767, 333.1168342808367, 333.23350094749674, 333.35016761415676, 333.4668342808168, 333.5835009474768, 333.70016761413683, 333.81683428079685, 333.9335009474569, 334.0501676141169, 334.1668342807769, 334.4001676141103]	2021_Feb_18_1111	59.92581966978894	1	0.375
30	56	FALSE	NN	a	['H', 'Y', 'J', 'W', 'B', 'G', 'Z', 'C', 'T', 'V', 'N', 'E', 'P', 'R', 'K', 'S']	[986, 2670, 1029, 2448, 760, 944, 2911, 829, 1888, 2245, 1335, 904, 1456, 1587, 1122, 1731]	8	Absent	NA	NA	ABSENT	0.299562931060791	336.3735251426697	338.3841071128845	338.96744950609053	339.3174514134192	342.50403594970703	4.11992883682251	[336.39607787132263, 336.51285696029663, 337.48736095428467, 337.6638858318329, 338.41466784477234, 338.53166484832764, 338.64833092689514, 338.76530599594116, 338.8819320201874, 338.9987998008728, 339.11562991142273, 339.23241901397705, 339.3489668369293, 339.46591091156006, 339.5825619697571, 339.69952392578125, 339.81627583503723, 339.93317794799805, 340.0498218536377, 340.1664328575134, 340.2835488319397, 340.50403785705566]	[336.4001676141103, 336.5168342807703, 337.4998342807703, 337.6665342807703, 338.4165342807703, 338.5332009474303, 338.64986761409034, 338.76653428075036, 338.8832009474104, 338.9998676140704, 339.11653428073043, 339.23320094739046, 339.3498676140505, 339.4665342807105, 339.5832009473705, 339.69986761403055, 339.8165342806906, 339.9332009473506, 340.0498676140106, 340.16653428067065, 340.28320094733067, 340.516534280664]	2021_Feb_18_1111	59.92581966978894	1	0.375
30	57	FALSE	NN	a	['T', 'J', 'A', 'E', 'W', 'G', 'P', 'Y', 'U', 'R', 'N', 'K', 'V', 'M', 'B', 'S']	[1888, 1029, 697, 904, 2448, 944, 1456, 2670, 2059, 1587, 1335, 1122, 2245, 1224, 760, 1731]	9	Absent	NA	NA	ABSENT	0.2644181251525879	342.4964950084686	344.5002851486206	345.2002920627194	345.550293970048	348.62040400505066	4.120118856430054	[342.5190489292145, 342.63605093955994, 343.6037278175354, 343.7870919704437, 344.5379559993744, 344.6548388004303, 344.77143597602844, 344.88831186294556, 345.0050768852234, 345.12201380729675, 345.23875093460083, 345.3556399345398, 345.47238302230835, 345.5889799594879, 345.70572090148926, 345.8226728439331, 345.9395408630371, 346.0563669204712, 346.17315697669983, 346.2897078990936, 346.4067208766937, 346.62040400505066]	[342.516534280664, 342.63320094732404, 343.61620094732405, 343.78290094732404, 344.53290094732404, 344.64956761398406, 344.7662342806441, 344.8829009473041, 344.99956761396413, 345.11623428062416, 345.2329009472842, 345.3495676139442, 345.4662342806042, 345.58290094726425, 345.6995676139243, 345.8162342805843, 345.9329009472443, 346.04956761390434, 346.16623428056437, 346.2829009472244, 346.3995676138844, 346.63290094721776]	2021_Feb_18_1111	59.92581966978894	1	0.375
30	58	FALSE	NN	a	['W', 'P', 'M', 'Z', 'J', 'K', 'H', 'S', 'N', 'R', 'C', 'E', 'U', 'V', 'G', 'Y']	[2448, 1456, 1224, 2911, 1029, 1122, 986, 1731, 1335, 1587, 829, 904, 2059, 2245, 944, 2670]	12	Absent	NA	NA	ABSENT	0.18141889572143555	348.61987614631653	350.6167550086975	351.66676216119487	352.0167640685235	354.7367699146271	4.120014905929565	[348.6424288749695, 348.7422618865967, 349.7200930118561, 349.8936548233032, 350.64424896240234, 350.7613708972931, 350.87807297706604, 350.99492597579956, 351.1117088794708, 351.2284789085388, 351.3451199531555, 351.46208000183105, 351.578715801239, 351.6955909729004, 351.8122589588165, 351.92915081977844, 352.0457339286804, 352.1628429889679, 352.2794740200043, 352.3963580131531, 352.5131130218506, 352.7367699146271]	[348.63290094721776, 348.7495676138778, 349.7325676138778, 349.8992676138778, 350.6492676138778, 350.7659342805378, 350.88260094719783, 350.99926761385785, 351.1159342805179, 351.2326009471779, 351.3492676138379, 351.46593428049795, 351.58260094715797, 351.699267613818, 351.815934280478, 351.93260094713804, 352.04926761379807, 352.1659342804581, 352.2826009471181, 352.39926761377814, 352.51593428043816, 352.7492676137715]	2021_Feb_18_1111	59.92581966978894	1	0.375
30	59	FALSE	NV	a	['R', 'E', 'W', 'J', 'G', 'C', 'H', 'Y', 'X', 'A', 'N', 'B', 'P', 'V', 'S', 'Z']	[1587, 904, 2448, 1029, 944, 829, 986, 2670, 4000, 697, 1335, 760, 1456, 2245, 1731, 2911]	9	Present	NA	NA	ABSENT	1.1700739860534668	354.7261700630188	356.73297810554504	357.4329859733182	357.78298811906535	360.8531370162964	4.120158910751343	[354.74872398376465, 354.8657658100128, 355.8364598751068, 356.0170488357544, 356.76755380630493, 356.8843820095062, 357.0013179779053, 357.11810278892517, 357.2347559928894, 357.35172390937805, 357.4683609008789, 357.5851318836212, 357.70209884643555, 357.81861996650696, 357.9355638027191, 358.05234384536743, 358.16910099983215, 358.2857539653778, 358.40271496772766, 358.51950883865356, 358.6363308429718, 358.8531358242035]	[354.7492676137715, 354.86593428043153, 355.84893428043154, 356.0156342804315, 356.7656342804315, 356.88230094709155, 356.9989676137516, 357.1156342804116, 357.2323009470716, 357.34896761373165, 357.46563428039167, 357.5823009470517, 357.6989676137117, 357.81563428037174, 357.93230094703176, 358.0489676136918, 358.1656342803518, 358.28230094701183, 358.39896761367186, 358.5156342803319, 358.6323009469919, 358.86563428032525]	2021_Feb_18_1111	59.92581966978894	1	0.375
30	60	FALSE	NV	a	['V', 'Y', 'U', 'K', 'C', 'B', 'N', 'W', 'S', 'A', 'J', 'X', 'Z', 'M', 'P', 'E']	[2245, 2670, 2059, 1122, 829, 760, 1335, 2448, 1731, 697, 1029, 4000, 2911, 1224, 1456, 904]	12	Present	NA	NA	PRESENT	0.063388824462890625	360.8493421077728	362.8494770526886	363.8994839667674	364.2494861125146	366.9695019721985	4.120024919509888	[360.8718957901001, 360.9886119365692, 361.9528238773346, 362.1399118900299, 362.89076590538025, 362.9908208847046, 363.1075828075409, 363.22439980506897, 363.34119296073914, 363.45794892311096, 363.57471990585327, 363.6914939880371, 363.808336019516, 363.92510080337524, 364.0418310165405, 364.15861201286316, 364.2754898071289, 364.3921399116516, 364.5090398788452, 364.62581491470337, 364.7427399158478, 364.9695019721985]	[360.86563428032525, 360.9823009469853, 361.9653009469853, 362.1320009469853, 362.8820009469853, 362.9986676136453, 363.1153342803053, 363.23200094696534, 363.34866761362537, 363.4653342802854, 363.5820009469454, 363.69866761360544, 363.81533428026546, 363.9320009469255, 364.0486676135855, 364.16533428024553, 364.28200094690555, 364.3986676135656, 364.5153342802256, 364.6320009468856, 364.74866761354565, 364.982000946879]	2021_Feb_18_1111	59.92581966978894	1	0.375
30	61	FALSE	NV	a	['V', 'B', 'R', 'H', 'M', 'N', 'Z', 'Y', 'G', 'S', 'K', 'X', 'E', 'C', 'J', 'P']	[2245, 760, 1587, 986, 1224, 1335, 2911, 2670, 944, 1731, 1122, 4000, 904, 829, 1029, 1456]	12	Present	NA	NA	PRESENT	0.10795116424560548	366.956267118454	368.9658031463623	370.0158110141154	370.3658131598626	373.08586978912354	4.1200666427612305	[366.97881984710693, 367.095342874527, 368.0691947937012, 368.24631690979004, 368.99718379974365, 369.114187002182, 369.23080801963806, 369.3477039337158, 369.46436500549316, 369.581298828125, 369.69802689552307, 369.8149139881134, 369.931608915329, 370.04858684539795, 370.16517782211304, 370.28201389312744, 370.3987889289856, 370.515429019928, 370.63241600990295, 370.74905490875244, 370.865975856781, 371.08587098121643]	[366.982000946879, 367.098667613539, 368.081667613539, 368.248367613539, 368.998367613539, 369.11503428019904, 369.23170094685906, 369.3483676135191, 369.4650342801791, 369.58170094683913, 369.69836761349916, 369.8150342801592, 369.9317009468192, 370.04836761347923, 370.16503428013925, 370.2817009467993, 370.3983676134593, 370.5150342801193, 370.63170094677935, 370.74836761343937, 370.8650342800994, 371.09836761343274]	2021_Feb_18_1111	59.92581966978894	1	0.375
30	62	FALSE	NA	a	['S', 'R', 'U', 'K', 'J', 'E', 'M', 'X', 'P', 'G', 'Y', 'B', 'A', 'N', 'V', 'T']	[1731, 1587, 2059, 1122, 1029, 904, 1224, 4000, 1456, 944, 2670, 760, 697, 1335, 2245, 1888]	8	Present	NA	NA	PRESENT	1.840381145477295	373.0791640281677	375.0823690891266	375.6657093365654	376.0157114823126	379.2022359371186	4.119866847991943	[373.1017179489136, 373.21854996681213, 374.18556094169617, 374.3696029186249, 375.12036895751953, 375.237361907959, 375.3540208339691, 375.4707179069519, 375.58768582344055, 375.70444083213806, 375.8213608264923, 375.9379370212555, 376.05490899086, 376.1717138290405, 376.28846883773804, 376.40499997138977, 376.52177381515503, 376.63882994651794, 376.7553679943085, 376.87236189842224, 376.9892568588257, 377.20223689079285]	[373.09836761343274, 373.21503428009277, 374.19803428009277, 374.36473428009276, 375.11473428009276, 375.2314009467528, 375.3480676134128, 375.46473428007283, 375.58140094673286, 375.6980676133929, 375.8147342800529, 375.9314009467129, 376.04806761337295, 376.164734280033, 376.281400946693, 376.398067613353, 376.51473428001304, 376.63140094667307, 376.7480676133331, 376.8647342799931, 376.98140094665314, 377.2147342799865]	2021_Feb_18_1111	59.92581966978894	1	0.375
30	63	FALSE	NN	a	['Z', 'Y', 'M', 'S', 'H', 'G', 'B', 'N', 'E', 'J', 'T', 'W', 'A', 'R', 'C', 'P']	[2911, 2670, 1224, 1731, 986, 944, 760, 1335, 904, 1029, 1888, 2448, 697, 1587, 829, 1456]	11	Absent	NA	NA	ABSENT	0.36576294898986816	379.18538904190063	381.19848108291626	382.131822522428	382.48182442975656	385.31860399246216	4.120122909545898	[379.2079429626465, 379.32481479644775, 380.30192589759827, 380.47593092918396, 381.226753950119, 381.34367179870605, 381.4603259563446, 381.57739186286926, 381.69404196739197, 381.81092500686646, 381.92761301994324, 382.04455280303955, 382.1611878871918, 382.27817487716675, 382.3948109149933, 382.51140999794006, 382.6283450126648, 382.74519300460815, 382.8619318008423, 382.97865080833435, 383.0954349040985, 383.31860280036926]	[379.2147342799865, 379.3314009466465, 380.3144009466465, 380.4811009466465, 381.2311009466465, 381.34776761330653, 381.46443427996655, 381.5811009466266, 381.6977676132866, 381.8144342799466, 381.93110094660665, 382.04776761326667, 382.1644342799267, 382.2811009465867, 382.39776761324674, 382.51443427990677, 382.6311009465668, 382.7477676132268, 382.86443427988684, 382.98110094654686, 383.0977676132069, 383.33110094654023]	2021_Feb_18_1111	59.92581966978894	1	0.375
30	64	FALSE	NA	a	['M', 'S', 'T', 'E', 'C', 'P', 'U', 'A', 'Y', 'G', 'B', 'X', 'V', 'N', 'R', 'Z']	[1224, 1731, 1888, 904, 829, 1456, 2059, 697, 2670, 944, 760, 4000, 2245, 1335, 1587, 2911]	12	Present	NA	NA	PRESENT	0.33837389945983887	385.3086531162262	387.3149139881134	388.3649211406107	388.7149230479394	391.4349699020386	4.120055913925171	[385.33120679855347, 385.4481430053711, 386.4182929992676, 386.5991909503937, 387.3503348827362, 387.46702694892883, 387.58364486694336, 387.70065689086914, 387.8174488544464, 387.93385887145996, 388.0509328842163, 388.16748690605164, 388.2845058441162, 388.40111684799194, 388.51803493499756, 388.63463497161865, 388.751513004303, 388.86845088005066, 388.9851989746094, 389.10180282592773, 389.21881890296936, 389.43496799468994]	[385.33110094654023, 385.44776761320026, 386.43076761320026, 386.59746761320025, 387.34746761320025, 387.4641342798603, 387.5808009465203, 387.6974676131803, 387.81413427984035, 387.93080094650037, 388.0474676131604, 388.1641342798204, 388.28080094648044, 388.39746761314046, 388.5141342798005, 388.6308009464605, 388.74746761312053, 388.86413427978056, 388.9808009464406, 389.0974676131006, 389.21413427976063, 389.447467613094]	2021_Feb_18_1111	59.92581966978894	1	0.375
30	65	FALSE	NN	a	['C', 'K', 'V', 'R', 'B', 'P', 'A', 'W', 'Y', 'S', 'J', 'H', 'Z', 'G', 'E', 'U']	[829, 1122, 2245, 1587, 760, 1456, 697, 2448, 2670, 1731, 1029, 986, 2911, 944, 904, 2059]	11	Absent	NA	NA	ABSENT	0.3038361072540283	391.4318881034851	393.431193113327	394.36453336074584	394.714535506493	397.5513370037079	4.120143890380859	[391.4544417858124, 391.57137298583984, 392.5346608161926, 392.7226059436798, 393.4732868671417, 393.5732078552246, 393.69007897377014, 393.8067669868469, 393.9236228466034, 394.040326833725, 394.157203912735, 394.2739818096161, 394.3907527923584, 394.5076308250427, 394.6244168281555, 394.741171836853, 394.8580129146576, 394.9749188423157, 395.0915689468384, 395.20853090286255, 395.32516384124756, 395.5513370037079]	[391.447467613094, 391.564134279754, 392.547134279754, 392.713834279754, 393.463834279754, 393.580500946414, 393.69716761307404, 393.81383427973407, 393.9305009463941, 394.0471676130541, 394.16383427971414, 394.28050094637416, 394.3971676130342, 394.5138342796942, 394.63050094635423, 394.74716761301426, 394.8638342796743, 394.9805009463343, 395.0971676129943, 395.21383427965435, 395.3305009463144, 395.5638342796477]	2021_Feb_18_1111	59.92581966978894	1	0.375
30	66	FALSE	AA	a	['G', 'C', 'U', 'M', 'H', 'N', 'B', 'surprise', 'E', 'Z', 'X', 'Y', 'V', 'R', 'P', 'T']	[944, 829, 2059, 1224, 986, 1335, 760, 'stimAuditory/all_stimAuditory/220.wav', 904, 2911, 4000, 2670, 2245, 1587, 1456, 1888]	11	Present	stimAuditory/all_stimAuditory/215.wav	NA	PRESENT	0.2281398773193359	397.5387270450592	399.5476760864258	400.4810175259375	400.8310194332661	403.66770195961	4.120025873184204	[397.56128001213074, 397.6777858734131, 398.6510269641876, 398.82894587516785, 399.5797348022461, 399.69651198387146, 399.81322979927063, 399.9301669597626, 400.04684495925903, 400.1638059616089, 400.28060388565063, 400.3972849845886, 400.5142149925232, 400.6308138370514, 400.7475538253784, 400.86463379859924, 400.98132491111755, 401.09801197052, 401.21481680870056, 401.3314127922058, 401.44841980934143, 401.6677029132843]	[397.5638342796477, 397.68050094630775, 398.66350094630775, 398.83020094630774, 399.58020094630774, 399.69686761296776, 399.8135342796278, 399.9302009462878, 400.04686761294784, 400.16353427960786, 400.2802009462679, 400.3968676129279, 400.51353427958793, 400.63020094624795, 400.746867612908, 400.863534279568, 400.980200946228, 401.09686761288805, 401.21353427954807, 401.3302009462081, 401.4468676128681, 401.68020094620147]	2021_Feb_18_1111	59.92581966978894	1	0.375
30	67	FALSE	NV	a	['T', 'U', 'E', 'B', 'Z', 'V', 'C', 'G', 'X', 'K', 'M', 'N', 'Y', 'R', 'H', 'P']	[1888, 2059, 904, 760, 2911, 2245, 829, 944, 4000, 1122, 1224, 1335, 2670, 1587, 986, 1456]	9	Present	NA	NA	ABSENT	0.1768970489501953	403.66152000427246	405.6639790534973	406.36398715968903	406.7139890670176	409.7840688228607	4.120089769363403	[403.6840739250183, 403.8009238243103, 404.7673909664154, 404.95212292671204, 405.7029359340668, 405.81962180137634, 405.9365749359131, 406.0532867908478, 406.1699550151825, 406.28678798675537, 406.4036808013916, 406.5202729701996, 406.63726687431335, 406.7539668083191, 406.87095379829407, 406.9878439903259, 407.1043748855591, 407.2210388183594, 407.3378789424896, 407.45459485054016, 407.5714259147644, 407.7840688228607]	[403.68020094620147, 403.7968676128615, 404.7798676128615, 404.9465676128615, 405.6965676128615, 405.8132342795215, 405.92990094618153, 406.04656761284156, 406.1632342795016, 406.2799009461616, 406.3965676128216, 406.51323427948165, 406.6299009461417, 406.7465676128017, 406.8632342794617, 406.97990094612175, 407.09656761278177, 407.2132342794418, 407.3299009461018, 407.44656761276184, 407.56323427942186, 407.7965676127552]	2021_Feb_18_1111	59.92581966978894	1	0.375
30	68	FALSE	NV	a	['G', 'K', 'A', 'U', 'W', 'M', 'S', 'R', 'T', 'Y', 'X', 'N', 'B', 'P', 'H', 'Z']	[944, 1122, 697, 2059, 2448, 1224, 1731, 1587, 1888, 2670, 4000, 1335, 760, 1456, 986, 2911]	11	Present	NA	NA	PRESENT	0.2139301300048828	409.76787400245667	411.78051018714905	412.7138513882422	413.06385448766366	415.90043592453	4.1199257373809814	[409.7904269695282, 409.9071829319, 410.88375902175903, 411.05850887298584, 411.8093159198761, 411.92624282836914, 412.04289293289185, 412.15986680984497, 412.27657079696655, 412.39344096183777, 412.51008892059326, 412.6269919872284, 412.74375200271606, 412.8603768348694, 412.97736382484436, 413.0942678451538, 413.2108929157257, 413.32770586013794, 413.4444389343262, 413.56106996536255, 413.6781668663025, 413.90043592453003]	[409.7965676127552, 409.91323427941524, 410.89623427941524, 411.06293427941523, 411.81293427941523, 411.92960094607525, 412.0462676127353, 412.1629342793953, 412.2796009460553, 412.39626761271535, 412.5129342793754, 412.6296009460354, 412.7462676126954, 412.86293427935544, 412.97960094601547, 413.0962676126755, 413.2129342793355, 413.32960094599554, 413.44626761265556, 413.5629342793156, 413.6796009459756, 413.91293427930896]	2021_Feb_18_1111	59.92581966978894	1	0.375
30	69	FALSE	NV	a	['Y', 'V', 'Z', 'E', 'R', 'H', 'W', 'J', 'U', 'G', 'M', 'C', 'X', 'B', 'T', 'K']	[2670, 2245, 2911, 904, 1587, 986, 2448, 1029, 2059, 944, 1224, 829, 4000, 760, 1888, 1122]	13	Present	NA	NA	PRESENT	0.1546621322631836	415.89132714271545	417.8967139720917	419.06338779124906	419.4133896985777	422.0168027877808	4.120088815689087	[415.9138798713684, 416.0309410095215, 417.0001268386841, 417.18213391304016, 417.93243980407715, 418.04921889305115, 418.1660418510437, 418.28283500671387, 418.39982199668884, 418.51631784439087, 418.63328099250793, 418.74996995925903, 418.86682295799255, 418.98367190361023, 419.10054183006287, 419.21722197532654, 419.3339319229126, 419.45072889328003, 419.56773591041565, 419.68429589271545, 419.8011598587036, 420.01680397987366]	[415.91293427930896, 416.029600945969, 417.012600945969, 417.179300945969, 417.929300945969, 418.045967612629, 418.162634279289, 418.27930094594905, 418.39596761260907, 418.5126342792691, 418.6293009459291, 418.74596761258914, 418.86263427924916, 418.9793009459092, 419.0959676125692, 419.21263427922923, 419.32930094588926, 419.4459676125493, 419.5626342792093, 419.67930094586933, 419.79596761252935, 420.0293009458627]	2021_Feb_18_1111	59.92581966978894	1	0.375
30	70	FALSE	AV	a	['K', 'C', 'V', 'E', 'Z', 'G', 'T', 'N', 'surprise', 'B', 'S', 'X', 'W', 'M', 'R', 'Y']	[1122, 829, 2245, 904, 2911, 944, 1888, 1335, 'stimAuditory/all_stimAuditory/213.wav', 760, 1731, 4000, 2448, 1224, 1587, 2670]	12	Present	stimAuditory/all_stimAuditory/123.wav	NA	PRESENT	0.5277879238128662	422.014554977417	424.0130491256714	425.06305603975017	425.4130581854974	428.1331698894501	4.1201207637786865	[422.03710889816284, 422.1536259651184, 423.1164939403534, 423.28820300102234, 424.05546379089355, 424.1556408405304, 424.2725088596344, 424.3893418312073, 424.5061459541321, 424.6228950023651, 424.7397029399872, 424.85638999938965, 424.97318482398987, 425.09000396728516, 425.20690393447876, 425.3238549232483, 425.440495967865, 425.5572929382324, 425.67401695251465, 425.79072189331055, 425.9077169895172, 426.1331698894501]	[422.0293009458627, 422.1459676125227, 423.12896761252273, 423.2956676125227, 424.0456676125227, 424.16233427918274, 424.27900094584277, 424.3956676125028, 424.5123342791628, 424.62900094582284, 424.74566761248286, 424.8623342791429, 424.9790009458029, 425.09566761246293, 425.21233427912296, 425.329000945783, 425.445667612443, 425.562334279103, 425.67900094576305, 425.7956676124231, 425.9123342790831, 426.14566761241645]	2021_Feb_18_1111	59.92581966978894	1	0.375
30	71	FALSE	NV	a	['W', 'A', 'R', 'N', 'V', 'H', 'E', 'B', 'Y', 'G', 'X', 'Z', 'S', 'C', 'P', 'M']	[2448, 697, 1587, 1335, 2245, 986, 904, 760, 2670, 944, 4000, 2911, 1731, 829, 1456, 1224]	11	Present	NA	NA	PRESENT	0.06847405433654785	428.1211709976196	430.1294651031494	431.0628053505682	431.4128074963154	434.2495357990265	4.120070695877075	[428.1437249183655, 428.26038098335266, 429.2328579425812, 429.41141295433044, 430.16206789016724, 430.2787959575653, 430.39584589004517, 430.51237893104553, 430.6294410228729, 430.74598598480225, 430.86307883262634, 430.9797098636627, 431.0966110229492, 431.2132179737091, 431.33005595207214, 431.4468858242035, 431.56387090682983, 431.680410861969, 431.79722785949707, 431.91385197639465, 432.03088879585266, 432.2495357990265]	[428.14566761241645, 428.26233427907647, 429.2453342790765, 429.41203427907647, 430.16203427907647, 430.2787009457365, 430.3953676123965, 430.51203427905654, 430.62870094571656, 430.7453676123766, 430.8620342790366, 430.97870094569663, 431.09536761235665, 431.2120342790167, 431.3287009456767, 431.4453676123367, 431.56203427899675, 431.6787009456568, 431.7953676123168, 431.9120342789768, 432.02870094563684, 432.2620342789702]	2021_Feb_18_1111	59.92581966978894	1	0.375
30	72	FALSE	NV	a	['Z', 'S', 'H', 'U', 'J', 'A', 'T', 'B', 'R', 'X', 'P', 'C', 'N', 'M', 'Y', 'V']	[2911, 1731, 986, 2059, 1029, 697, 1888, 760, 1587, 4000, 1456, 829, 1335, 1224, 2670, 2245]	10	Present	NA	NA	PRESENT	0.00176787376403808	434.2441191673279	436.24588108062744	437.0625558534791	437.4125577608078	440.3659019470215	4.120020866394043	[434.26667380332947, 434.383416891098, 435.3492248058319, 435.53489899635315, 436.28536796569824, 436.40223383903503, 436.51904296875, 436.63580298423767, 436.75241589546204, 436.8694109916687, 436.98612785339355, 437.1028199195862, 437.2196228504181, 437.3365008831024, 437.4533178806305, 437.57014989852905, 437.6869308948517, 437.8037688732147, 437.92030096054077, 438.0376629829407, 438.13719296455383, 438.3659029006958]	[434.2620342789702, 434.3787009456302, 435.3617009456302, 435.5284009456302, 436.2784009456302, 436.39506761229023, 436.51173427895026, 436.6284009456103, 436.7450676122703, 436.8617342789303, 436.97840094559035, 437.0950676122504, 437.2117342789104, 437.3284009455704, 437.44506761223045, 437.56173427889047, 437.6784009455505, 437.7950676122105, 437.91173427887054, 438.02840094553056, 438.1450676121906, 438.37840094552394]	2021_Feb_18_1111	59.92581966978894	1	0.375
30	73	FALSE	NN	a	['W', 'N', 'E', 'Y', 'C', 'B', 'U', 'J', 'Z', 'A', 'K', 'H', 'V', 'R', 'T', 'P']	[2448, 1335, 904, 2670, 829, 760, 2059, 1029, 2911, 697, 1122, 986, 2245, 1587, 1888, 1456]	9	Absent	NA	NA	ABSENT	0.1422119140625	440.3503580093384	442.3621680736542	443.0621761798459	443.4121780871745	446.4822688102722	4.120100736618042	[440.37291288375854, 440.48977994918823, 441.4655909538269, 441.64115285873413, 442.3918068408966, 442.5086028575897, 442.62537384033203, 442.7422788143158, 442.85889983177185, 442.97584795951843, 443.092533826828, 443.20925092697144, 443.32618594169617, 443.443078994751, 443.55984902381897, 443.6764929294586, 443.7935628890991, 443.9100568294525, 444.0269629955292, 444.1436128616333, 444.26057600975037, 444.4822700023651]	[440.37840094552394, 440.49506761218396, 441.47806761218396, 441.64476761218395, 442.39476761218395, 442.511434278844, 442.628100945504, 442.744767612164, 442.86143427882405, 442.9781009454841, 443.0947676121441, 443.2114342788041, 443.32810094546414, 443.44476761212417, 443.5614342787842, 443.6781009454442, 443.79476761210424, 443.91143427876426, 444.0281009454243, 444.1447676120843, 444.26143427874433, 444.4947676120777]	2021_Feb_18_1111	59.92581966978894	1	0.375
30	74	FALSE	NA	a	['K', 'U', 'R', 'C', 'M', 'G', 'A', 'Y', 'V', 'X', 'P', 'W', 'T', 'S', 'J', 'N']	[1122, 2059, 1587, 829, 1224, 944, 697, 2670, 2245, 4000, 1456, 2448, 1888, 1731, 1029, 1335]	10	Present	NA	NA	NONE	-1	446.473562002182	448.4787030220032	449.29537684118054	449.6453787485092	452.6194818019867	4.1407787799835205	[446.4961168766022, 446.61290097236633, 447.58196091651917, 447.76429891586304, 448.5152678489685, 448.63178396224976, 448.7486689090729, 448.86523389816284, 448.98230481147766, 449.0989170074463, 449.2156319618225, 449.3326117992401, 449.4494659900665, 449.5660889148712, 449.6828579902649, 449.79972887039185, 449.9165577888489, 450.033362865448, 450.1502068042755, 450.26673579216003, 450.383535861969, 450.5986359119415]	[446.4947676120777, 446.6114342787377, 447.5944342787377, 447.7611342787377, 448.5111342787377, 448.6278009453977, 448.74446761205775, 448.86113427871777, 448.9778009453778, 449.0944676120378, 449.21113427869784, 449.32780094535786, 449.4444676120179, 449.5611342786779, 449.67780094533794, 449.79446761199796, 449.911134278658, 450.027800945318, 450.14446761197803, 450.26113427863805, 450.3778009452981, 450.6111342786314]	2021_Feb_18_1111	59.92581966978894	1	0.375
30	75	FALSE	AV	a	['A', 'P', 'W', 'K', 'J', 'surprise', 'V', 'E', 'X', 'C', 'G', 'B', 'H', 'Y', 'T', 'U']	[697, 1456, 2448, 1122, 1029, 'stimAuditory/all_stimAuditory/203.wav', 2245, 904, 4000, 829, 944, 760, 986, 2670, 1888, 2059]	9	Present	stimAuditory/all_stimAuditory/110.wav	NA	PRESENT	0.24026703834533691	452.6134831905365	454.5949811935425	455.29499001498993	455.6449921607371	458.7150030136109	4.120021820068359	[452.63603591918945, 452.7359929084778, 453.6983268260956, 453.87056279182434, 454.6383090019226, 454.7382400035858, 454.85491490364075, 454.9719648361206, 455.088583946228, 455.2055139541626, 455.32222080230713, 455.43910479545593, 455.5557358264923, 455.6727318763733, 455.78949785232544, 455.90610790252686, 456.0229778289795, 456.1396698951721, 456.2566947937012, 456.3733539581299, 456.4899938106537, 456.71500396728516]	[452.6111342786314, 452.72780094529145, 453.71080094529145, 453.87750094529144, 454.62750094529144, 454.74416761195147, 454.8608342786115, 454.9775009452715, 455.09416761193154, 455.21083427859156, 455.3275009452516, 455.4441676119116, 455.56083427857163, 455.67750094523166, 455.7941676118917, 455.9108342785517, 456.0275009452117, 456.14416761187175, 456.2608342785318, 456.3775009451918, 456.4941676118518, 456.72750094518517]	2021_Feb_18_1111	59.92581966978894	1	0.375
30	76	FALSE	NA	a	['U', 'K', 'H', 'Y', 'V', 'N', 'T', 'C', 'A', 'W', 'G', 'P', 'X', 'B', 'R', 'Z']	[2059, 1122, 986, 2670, 2245, 1335, 1888, 829, 697, 2448, 944, 1456, 4000, 760, 1587, 2911]	13	Present	NA	NA	PRESENT	0.05283117294311523	458.70356702804565	460.71137404441833	461.87804881725	462.228051678253	464.83136892318726	4.119994878768921	[458.7261199951172, 458.8427698612213, 459.8146929740906, 459.9938600063324, 460.7446458339691, 460.86145281791687, 460.97831201553345, 461.09518790245056, 461.2118089199066, 461.32874488830566, 461.4454619884491, 461.5620789527893, 461.6788809299469, 461.7959589958191, 461.9124879837036, 462.02952098846436, 462.14627385139465, 462.26295495033264, 462.3799228668213, 462.4964189529419, 462.61311888694763, 462.83136892318726]	[458.72750094518517, 458.8441676118452, 459.8271676118452, 459.9938676118452, 460.7438676118452, 460.8605342785052, 460.97720094516524, 461.09386761182526, 461.2105342784853, 461.3272009451453, 461.44386761180533, 461.56053427846535, 461.6772009451254, 461.7938676117854, 461.9105342784454, 462.02720094510545, 462.1438676117655, 462.2605342784255, 462.3772009450855, 462.49386761174554, 462.61053427840557, 462.8438676117389]	2021_Feb_18_1111	59.92581966978894	1	0.375
30	77	FALSE	NN	a	['H', 'C', 'P', 'K', 'W', 'R', 'U', 'E', 'T', 'G', 'Z', 'V', 'S', 'M', 'N', 'A']	[986, 829, 1456, 1122, 2448, 1587, 2059, 904, 1888, 944, 2911, 2245, 1731, 1224, 1335, 697]	10	Absent	NA	NA	ABSENT	0.6582040786743164	464.8262450695038	466.82762598991394	467.6443007627656	467.9943026700942	470.947735786438	4.120109796524048	[464.84879779815674, 464.9659090042114, 465.9310579299927, 466.1171839237213, 466.8677508831024, 466.9844968318939, 467.1014919281006, 467.21808981895447, 467.3350508213043, 467.4517138004303, 467.5684549808502, 467.68531799316406, 467.8020420074463, 467.9189569950104, 468.03612184524536, 468.1525778770447, 468.2524788379669, 468.3693618774414, 468.4860849380493, 468.6029269695282, 468.7195909023285, 468.947735786438]	[464.8438676117389, 464.96053427839894, 465.94353427839894, 466.11023427839893, 466.86023427839893, 466.97690094505896, 467.093567611719, 467.210234278379, 467.32690094503903, 467.44356761169905, 467.5602342783591, 467.6769009450191, 467.7935676116791, 467.91023427833915, 468.02690094499917, 468.1435676116592, 468.2602342783192, 468.37690094497924, 468.49356761163926, 468.6102342782993, 468.7269009449593, 468.96023427829266]	2021_Feb_18_1111	59.92581966978894	1	0.375
30	78	FALSE	NA	a	['M', 'C', 'Z', 'J', 'E', 'S', 'H', 'W', 'X', 'Y', 'U', 'T', 'V', 'G', 'P', 'N']	[1224, 829, 2911, 1029, 904, 1731, 986, 2448, 4000, 2670, 2059, 1888, 2245, 944, 1456, 1335]	9	Present	NA	NA	PRESENT	0.33463501930236816	470.9327881336212	472.94406604766846	473.6440741538602	473.9940760611888	477.0641028881073	4.120036840438843	[470.95534086227417, 471.07233691215515, 472.0474247932434, 472.2235209941864, 472.97427797317505, 473.090943813324, 473.20768785476685, 473.3245589733124, 473.44148898124695, 473.55840396881104, 473.67519879341125, 473.7918429374695, 473.9087829589844, 474.02532982826233, 474.1423878669739, 474.2589108943939, 474.3756468296051, 474.49249792099, 474.6092219352722, 474.72614789009094, 474.8427908420563, 475.0641038417816]	[470.96023427829266, 471.0769009449527, 472.0599009449527, 472.2266009449527, 472.9766009449527, 473.0932676116127, 473.2099342782727, 473.32660094493275, 473.4432676115928, 473.5599342782528, 473.6766009449128, 473.79326761157284, 473.90993427823287, 474.0266009448929, 474.1432676115529, 474.25993427821294, 474.37660094487296, 474.493267611533, 474.609934278193, 474.72660094485303, 474.84326761151306, 475.0766009448464]	2021_Feb_18_1111	59.92581966978894	1	0.375
30	79	FALSE	NN	a	['Z', 'R', 'W', 'B', 'Y', 'E', 'P', 'V', 'J', 'U', 'T', 'M', 'A', 'G', 'K', 'N']	[2911, 1587, 2448, 760, 2670, 904, 1456, 2245, 1029, 2059, 1888, 1224, 697, 944, 1122, 1335]	13	Absent	NA	NA	ABSENT	0.3313169479370117	477.05631017684937	479.0603880882263	480.227062861058	480.57706476838666	483.1804687976837	4.1200807094573975	[477.0788629055023, 477.19542694091797, 478.16379284858704, 478.3471658229828, 479.0974678993225, 479.2141969203949, 479.3311970233917, 479.4478929042816, 479.56451392173767, 479.6814498901367, 479.7981448173523, 479.9153130054474, 480.0319299697876, 480.14850783348083, 480.26525497436523, 480.38223791122437, 480.499018907547, 480.6158628463745, 480.73252391815186, 480.84948897361755, 480.9660198688507, 481.1804699897766]	[477.0766009448464, 477.1932676115064, 478.17626761150643, 478.3429676115064, 479.0929676115064, 479.20963427816645, 479.32630094482647, 479.4429676114865, 479.5596342781465, 479.67630094480654, 479.79296761146657, 479.9096342781266, 480.0263009447866, 480.14296761144664, 480.25963427810666, 480.3763009447667, 480.4929676114267, 480.60963427808673, 480.72630094474675, 480.8429676114068, 480.9596342780668, 481.19296761140015]	2021_Feb_18_1111	59.92581966978894	1	0.375
