participant	trial_num	practice	task	condition	RSVP	RAP	probePos	probe_presence	surprise_sound	surprise_img	probe_response	probe_resp_time	first_fixation_time	trial_start_time	surprise_start_time	probe_start_time	trial_end_time	trial_duration	actualEventTimes	plannedEventTimes	date	framerate	marker_vol	RAP_vol
3	1	FALSE	NA	v	['N', 'Y', 'S', 'C', 'E', 'J', 'W', 'X', 'K', 'G', 'B', 'R', 'A', 'T', 'V', 'H']	[1335, 2670, 1731, 829, 904, 1029, 2448, 4000, 1122, 944, 760, 1587, 697, 1888, 2245, 986]	8	Present	NA	NA	ABSENT	0.7102651596069336	4.0531158447265625e-6	1.9931230545043943	2.5752809047698975	2.92535400390625	6.103869915008545	4.11074686050415	[0.01604485511779785, 0.11596202850341797, 1.1004328727722168, 1.2672219276428223, 2.017832040786743, 2.1348860263824463, 2.251599073410034, 2.3684298992156982, 2.4851059913635254, 2.6020469665527344, 2.71877384185791, 2.8354828357696533, 2.9521749019622803, 3.0692100524902344, 3.1859688758850098, 3.302825927734375, 3.4196269512176514, 3.536191940307617, 3.6531660556793213, 3.769742965698242, 3.8866710662841797, 4.103869915008545]	[9.5367431640625e-07, 0.11666762034098306, 1.099667620340983, 1.266367620340983, 2.016367620340983, 2.1330342870076495, 2.249700953674316, 2.366367620340983, 2.4830342870076496, 2.5997009536743163, 2.716367620340983, 2.8330342870076497, 2.9497009536743164, 3.066367620340983, 3.18303428700765, 3.2997009536743165, 3.416367620340983, 3.53303428700765, 3.6497009536743166, 3.7663676203409833, 3.88303428700765, 4.116367620340983]	2020_Nov_26_0957	59.93515354947864	1	1
3	2	FALSE	NV	v	['C', 'M', 'Z', 'T', 'B', 'E', 'V', 'G', 'U', 'S', 'H', 'J', 'A', 'X', 'P', 'W']	[829, 1224, 2911, 1888, 760, 904, 2245, 944, 2059, 1731, 986, 1029, 697, 4000, 1456, 2448]	14	Present	NA	NA	PRESENT	0.4274311065673828	6.106429100036621	8.107065916061401	9.39099907875061	9.740566968917848	12.22023606300354	4.113170146942139	[6.122469902038574, 6.239138841629028, 7.223481893539429, 7.390481948852539, 8.141197919845581, 8.258100032806396, 8.374647855758667, 8.491656064987183, 8.60840392112732, 8.725291013717651, 8.842082977294922, 8.958732843399048, 9.075695037841797, 9.192342042922974, 9.309037923812866, 9.426033020019531, 9.54275393486023, 9.659648895263672, 9.776460886001587, 9.893219947814941, 9.993190050125122, 10.22023606300354]	[6.116367620340983, 6.23303428700765, 7.216034287007649, 7.382734287007649, 8.132734287007649, 8.249400953674316, 8.366067620340983, 8.48273428700765, 8.599400953674317, 8.716067620340985, 8.832734287007652, 8.949400953674319, 9.066067620340986, 9.182734287007653, 9.29940095367432, 9.416067620340987, 9.532734287007655, 9.649400953674322, 9.766067620340989, 9.882734287007656, 9.999400953674323, 10.232734287007656]	2020_Nov_26_0957	59.93515354947864	1	1
3	3	FALSE	NN	v	['E', 'B', 'G', 'M', 'J', 'K', 'H', 'P', 'U', 'A', 'R', 'Y', 'Z', 'W', 'V', 'T']	[904, 760, 944, 1224, 1029, 1122, 986, 1456, 2059, 697, 1587, 2670, 2911, 2448, 2245, 1888]	14	Absent	NA	NA	ABSENT	0.3680729866027832	12.212800979614258	14.223236083984377	15.507040023803713	15.857028007507324	18.336602926254272	4.1133668422698975	[12.22884202003479, 12.345730066299438, 13.330199956893921, 13.496947050094604, 14.247611045837402, 14.364569902420044, 14.481934070587158, 14.598163843154907, 14.714926958084106, 14.831892013549805, 14.948530912399292, 15.065415859222412, 15.182049989700317, 15.29902195930481, 15.415726900100708, 15.532651901245117, 15.64923906326294, 15.766059875488281, 15.882943868637085, 15.999486923217773, 16.116456031799316, 16.336601972579956]	[12.232734287007656, 12.349400953674323, 13.332400953674323, 13.499100953674324, 14.249100953674324, 14.365767620340991, 14.482434287007658, 14.599100953674325, 14.715767620340992, 14.83243428700766, 14.949100953674327, 15.065767620340994, 15.182434287007661, 15.299100953674328, 15.415767620340995, 15.532434287007662, 15.64910095367433, 15.765767620340997, 15.882434287007664, 15.999100953674331, 16.115767620340996, 16.34910095367433]	2020_Nov_26_0957	59.93515354947864	1	1
3	4	FALSE	NA	v	['N', 'E', 'A', 'H', 'Y', 'V', 'T', 'X', 'U', 'M', 'B', 'P', 'C', 'R', 'G', 'Z']	[1335, 904, 697, 986, 2670, 2245, 1888, 4000, 2059, 1224, 760, 1456, 829, 1587, 944, 2911]	8	Present	NA	NA	PRESENT	0.29261207580566406	18.336138010025024	20.33944010734558	20.923518896102905	21.2731249332428	24.452970027923584	4.113529920578003	[18.352180004119873, 18.46906590461731, 19.4534649848938, 19.620324850082397, 20.371418952941895, 20.487889051437378, 20.60470986366272, 20.721323013305664, 20.838165998458862, 20.95505690574646, 21.07177996635437, 21.18857192993164, 21.305279970169067, 21.422313928604126, 21.53886604309082, 21.655730962753296, 21.772522926330566, 21.88934898376465, 22.00602388381958, 22.12300705909729, 22.23973298072815, 22.45296883583069]	[18.34910095367433, 18.465767620340998, 19.448767620341, 19.615467620340997, 20.365467620340997, 20.482134287007664, 20.59880095367433, 20.715467620341, 20.832134287007666, 20.948800953674333, 21.065467620341, 21.182134287007667, 21.298800953674334, 21.415467620341, 21.53213428700767, 21.648800953674336, 21.765467620341003, 21.88213428700767, 21.998800953674337, 22.115467620341004, 22.23213428700767, 22.465467620341006]	2020_Nov_26_0957	59.93515354947864	1	1
3	5	FALSE	NA	v	['P', 'A', 'C', 'E', 'G', 'V', 'H', 'U', 'N', 'B', 'M', 'K', 'W', 'X', 'Y', 'Z']	[1456, 697, 829, 904, 944, 2245, 986, 2059, 1335, 760, 1224, 1122, 2448, 4000, 2670, 2911]	14	Present	NA	NA	ABSENT	0.6257500648498535	24.459360122680664	26.45622491836548	27.73961091041565	28.090909957885746	30.569336891174316	4.113111972808838	[24.4753999710083, 24.575366973876953, 25.560019969940186, 25.726696968078613, 26.494513988494873, 26.594162940979004, 26.711003065109253, 26.827781915664673, 26.944599866867065, 27.06132984161377, 27.178231954574585, 27.294968843460083, 27.411892890930176, 27.528549909591675, 27.645546913146973, 27.762362003326416, 27.879180908203125, 27.99576497077942, 28.11254596710205, 28.229387998580933, 28.346345901489258, 28.569337844848633]	[24.465467620341006, 24.582134287007673, 25.565134287007673, 25.731834287007672, 26.481834287007672, 26.59850095367434, 26.715167620341006, 26.831834287007673, 26.94850095367434, 27.065167620341008, 27.181834287007675, 27.298500953674342, 27.41516762034101, 27.531834287007676, 27.648500953674343, 27.76516762034101, 27.881834287007678, 27.998500953674345, 28.115167620341012, 28.23183428700768, 28.348500953674346, 28.58183428700768]	2020_Nov_26_0957	59.93515354947864	1	1
3	6	FALSE	NV	v	['B', 'R', 'G', 'S', 'T', 'V', 'U', 'M', 'Y', 'E', 'A', 'Z', 'X', 'W', 'C', 'K']	[760, 1587, 944, 1731, 1888, 2245, 2059, 1224, 2670, 904, 697, 2911, 4000, 2448, 829, 1122]	13	Present	NA	NA	PRESENT	0.3903498649597168	30.56616711616516	32.572279930114746	33.739301919937134	34.089231967926025	36.68570399284363	4.113424062728882	[30.58220887184143, 30.69875192642212, 31.683146953582764, 31.850015878677368, 32.60092902183533, 32.7176079750061, 32.83450388908386, 32.95101284980774, 33.06783103942871, 33.184797048568726, 33.30160903930664, 33.418274879455566, 33.535194873809814, 33.651888847351074, 33.76879405975342, 33.88550901412964, 34.00227189064026, 34.11913299560547, 34.23584604263306, 34.3527410030365, 34.46966099739075, 34.68570399284363]	[30.58183428700768, 30.698500953674348, 31.681500953674348, 31.848200953674347, 32.59820095367435, 32.71486762034102, 32.831534287007685, 32.94820095367435, 33.06486762034102, 33.181534287007686, 33.29820095367435, 33.41486762034102, 33.53153428700769, 33.648200953674355, 33.76486762034102, 33.88153428700769, 33.998200953674356, 34.11486762034102, 34.23153428700769, 34.34820095367436, 34.464867620341025, 34.69820095367436]	2020_Nov_26_0957	59.93515354947864	1	1
3	7	FALSE	NN	v	['K', 'R', 'W', 'E', 'Y', 'A', 'T', 'C', 'H', 'S', 'V', 'N', 'G', 'Z', 'B', 'M']	[1122, 1587, 2448, 904, 2670, 697, 1888, 829, 986, 1731, 2245, 1335, 944, 2911, 760, 1224]	11	Absent	NA	NA	ABSENT	0.3556370735168457	36.68921709060669	38.68875694274902	39.622560024261475	39.97240090370178	42.80206990242005	4.1133129596710205	[36.705256938934326, 36.8220329284668, 37.80638599395752, 37.97335505485535, 38.72406005859375, 38.840824842453, 38.95770001411438, 39.074389934539795, 39.19115900993347, 39.30805706977844, 39.42468500137329, 39.541746854782104, 39.65845990180969, 39.775245904922485, 39.891960859298706, 40.008723974227905, 40.125438928604126, 40.24243783950806, 40.35914707183838, 40.47597694396973, 40.5761559009552, 40.80206799507141]	[36.69820095367436, 36.814867620341026, 37.79786762034102, 37.96456762034102, 38.71456762034102, 38.83123428700769, 38.947900953674356, 39.06456762034102, 39.18123428700769, 39.29790095367436, 39.414567620341025, 39.53123428700769, 39.64790095367436, 39.764567620341026, 39.88123428700769, 39.99790095367436, 40.11456762034103, 40.231234287007695, 40.34790095367436, 40.46456762034103, 40.581234287007696, 40.81456762034103]	2020_Nov_26_0957	59.93515354947864	1	1
3	8	FALSE	NV	v	['A', 'C', 'V', 'Y', 'K', 'N', 'T', 'P', 'X', 'J', 'H', 'W', 'R', 'M', 'G', 'Z']	[697, 829, 2245, 2670, 1122, 1335, 1888, 1456, 4000, 1029, 986, 2448, 1587, 1224, 944, 2911]	9	Present	NA	NA	PRESENT	0.3920760154724121	42.79571509361267	44.80503702163696	45.50563311576843	45.85555100440979	48.918437004089355	4.113399982452393	[42.81175684928894, 42.92843794822693, 43.91278290748596, 44.07981896400452, 44.830561876297, 44.94738292694092, 45.06423902511597, 45.18087601661682, 45.29785203933716, 45.41447401046753, 45.53132605552673, 45.64804697036743, 45.76500487327576, 45.881712913513184, 45.998575925827026, 46.1153609752655, 46.231974840164185, 46.34882688522339, 46.465725898742676, 46.582380056381226, 46.69920492172241, 46.918434858322144]	[42.81456762034103, 42.9312342870077, 43.914234287007694, 44.08093428700769, 44.83093428700769, 44.94760095367436, 45.06426762034103, 45.180934287007695, 45.29760095367436, 45.41426762034103, 45.530934287007696, 45.64760095367436, 45.76426762034103, 45.8809342870077, 45.997600953674365, 46.11426762034103, 46.2309342870077, 46.347600953674366, 46.46426762034103, 46.5809342870077, 46.69760095367437, 46.9309342870077]	2020_Nov_26_0957	59.93515354947864	1	1
3	9	FALSE	AA	v	['V', 'Z', 'E', 'H', 'Y', 'surprise', 'W', 'B', 'X', 'J', 'M', 'K', 'P', 'U', 'T', 'R']	[2245, 2911, 904, 986, 2670, 'stimAuditory/all_stimAuditory/207.wav', 2448, 760, 4000, 1029, 1224, 1122, 1456, 2059, 1888, 1587]	9	Present	stimAuditory/all_stimAuditory/207.wav	stimVisual/all_stimVisual/222.jpg	ABSENT	1.340587854385376	48.918956995010376	50.92127704620361	51.62178111076355	51.97189998626709	55.03480291366577	4.113525867462158	[48.93499684333801, 49.05180096626282, 50.03674387931824, 50.20311689376831, 50.95386791229248, 51.0706570148468, 51.18752694129944, 51.30422806739807, 51.42085790634155, 51.554532051086426, 51.65465688705444, 51.771339893341064, 51.88801598548889, 52.00502896308899, 52.121679067611694, 52.238499879837036, 52.35546803474426, 52.472200870513916, 52.58902406692505, 52.70587086677551, 52.8224880695343, 53.03480291366577]	[48.9309342870077, 49.04760095367437, 50.030600953674366, 50.197300953674365, 50.947300953674365, 51.06396762034103, 51.1806342870077, 51.297300953674366, 51.41396762034103, 51.5306342870077, 51.64730095367437, 51.763967620341035, 51.8806342870077, 51.99730095367437, 52.113967620341036, 52.2306342870077, 52.34730095367437, 52.46396762034104, 52.580634287007705, 52.69730095367437, 52.81396762034104, 53.04730095367437]	2020_Nov_26_0957	59.93515354947864	1	1
3	10	FALSE	NA	v	['B', 'Z', 'E', 'T', 'U', 'A', 'S', 'N', 'X', 'G', 'H', 'M', 'R', 'J', 'K', 'Y']	[760, 2911, 904, 1888, 2059, 697, 1731, 1335, 4000, 944, 986, 1224, 1587, 1029, 1122, 2670]	9	Present	NA	NA	PRESENT	1.6098480224609375	55.02550411224365	57.037883043289185	57.73806691169739	58.08809304237366	61.15117001533508	4.113286972045898	[55.04154396057129, 55.15847587585449, 56.14265489578247, 56.30949401855469, 57.07716488838196, 57.17734503746033, 57.29397201538086, 57.41083002090454, 57.52760100364685, 57.644168853759766, 57.76115584373474, 57.87779092788696, 57.99465894699097, 58.11169195175171, 58.22813701629639, 58.344950914382935, 58.462005853652954, 58.57862901687622, 58.69556498527527, 58.81228685379028, 58.92900204658508, 59.1511709690094]	[55.04730095367437, 55.16396762034104, 56.14696762034104, 56.313667620341036, 57.063667620341036, 57.1803342870077, 57.29700095367437, 57.41366762034104, 57.530334287007705, 57.64700095367437, 57.76366762034104, 57.880334287007706, 57.99700095367437, 58.11366762034104, 58.23033428700771, 58.347000953674375, 58.46366762034104, 58.58033428700771, 58.697000953674376, 58.81366762034104, 58.93033428700771, 59.163667620341045]	2020_Nov_26_0957	59.93515354947864	1	1
3	11	FALSE	NV	v	['Y', 'M', 'J', 'R', 'C', 'V', 'A', 'T', 'H', 'E', 'G', 'K', 'S', 'X', 'P', 'W']	[2670, 1224, 1029, 1587, 829, 2245, 697, 1888, 986, 904, 944, 1122, 1731, 4000, 1456, 2448]	14	Present	NA	NA	PRESENT	0.4784789085388184	61.148699045181274	63.15421295166016	64.43784499168396	64.7877950668335	67.26753687858582	4.113323926925659	[61.16473984718323, 61.28164792060852, 62.26595687866211, 62.43290090560913, 63.18368887901306, 63.300360918045044, 63.41718006134033, 63.53388690948486, 63.650858879089355, 63.76763105392456, 63.88439393043518, 64.0010118484497, 64.1177909374237, 64.23477792739868, 64.35143995285034, 64.46840000152588, 64.58502793312073, 64.7019579410553, 64.81869888305664, 64.93556785583496, 65.05236101150513, 65.2675359249115]	[61.163667620341045, 61.28033428700771, 62.26333428700771, 62.43003428700771, 63.18003428700771, 63.296700953674375, 63.41336762034104, 63.53003428700771, 63.646700953674376, 63.76336762034104, 63.88003428700771, 63.99670095367438, 64.11336762034104, 64.2300342870077, 64.34670095367436, 64.46336762034102, 64.58003428700768, 64.69670095367434, 64.813367620341, 64.93003428700766, 65.04670095367432, 65.28003428700765]	2020_Nov_26_0957	59.93515354947864	1	1
3	12	FALSE	NV	v	['Y', 'N', 'H', 'P', 'K', 'M', 'T', 'E', 'X', 'U', 'W', 'B', 'G', 'R', 'A', 'Z']	[2670, 1335, 986, 1456, 1122, 1224, 1888, 904, 4000, 2059, 2448, 760, 944, 1587, 697, 2911]	9	Present	NA	NA	PRESENT	0.3157980442047119	67.27202796936035	69.27059507369995	69.97092604637146	70.32084202766418	73.38390398025513	4.113308906555176	[67.28806805610657, 67.40481090545654, 68.37237286567688, 68.53927493095398, 69.30697202682495, 69.42375302314758, 69.54056906700134, 69.65702605247498, 69.774178981781, 69.89092206954956, 70.00761795043945, 70.1244809627533, 70.24107694625854, 70.35804486274719, 70.45791101455688, 70.5916440486908, 70.69183087348938, 70.80841493606567, 70.92507696151733, 71.04193496704102, 71.15888404846191, 71.38390302658081]	[67.28003428700765, 67.39670095367431, 68.37970095367432, 68.54640095367432, 69.29640095367432, 69.41306762034098, 69.52973428700764, 69.6464009536743, 69.76306762034096, 69.87973428700762, 69.99640095367428, 70.11306762034094, 70.2297342870076, 70.34640095367426, 70.46306762034092, 70.57973428700758, 70.69640095367424, 70.8130676203409, 70.92973428700756, 71.04640095367422, 71.16306762034088, 71.39640095367422]	2020_Nov_26_0957	59.93515354947864	1	1
3	13	FALSE	VA	v	['G', 'Y', 'E', 'V', 'P', 'surprise', 'C', 'A', 'X', 'M', 'R', 'T', 'Z', 'S', 'N', 'J']	[944, 2670, 904, 2245, 1456, 'stimAuditory/all_stimAuditory/114.wav', 829, 697, 4000, 1224, 1587, 1888, 2911, 1731, 1335, 1029]	9	Present	NA	stimVisual/all_stimVisual/224.jpg	ABSENT	0.5045859813690186	73.37852501869202	75.386873960495	76.08739399909973	76.43730807304382	79.50026988983154	4.113395929336548	[73.39456486701965, 73.51122093200684, 74.49559092521667, 74.66270089149475, 75.41335701942444, 75.53013586997986, 75.64704489707947, 75.76392483711243, 75.9305899143219, 76.01395106315613, 76.11402201652527, 76.2307779788971, 76.347815990448, 76.46452283859253, 76.58130598068237, 76.69808888435364, 76.81488585472107, 76.9318778514862, 77.04858589172363, 77.16534900665283, 77.28218698501587, 77.50026988983154]	[73.39640095367422, 73.51306762034088, 74.49606762034088, 74.66276762034089, 75.41276762034089, 75.52943428700755, 75.6461009536742, 75.76276762034087, 75.87943428700753, 75.99610095367419, 76.11276762034085, 76.2294342870075, 76.34610095367417, 76.46276762034083, 76.57943428700749, 76.69610095367415, 76.81276762034081, 76.92943428700747, 77.04610095367413, 77.16276762034079, 77.27943428700745, 77.51276762034078]	2020_Nov_26_0957	59.93515354947864	1	1
3	14	FALSE	NA	v	['C', 'W', 'R', 'E', 'N', 'M', 'Y', 'J', 'Z', 'H', 'X', 'K', 'V', 'B', 'G', 'A']	[829, 2448, 1587, 904, 1335, 1224, 2670, 1029, 2911, 986, 4000, 1122, 2245, 760, 944, 697]	11	Present	NA	NA	PRESENT	0.3898591995239258	79.50188994407654	81.50309109687805	82.43710803985596	82.78700804710388	85.61663699150085	4.113545894622803	[79.51793003082275, 79.63468599319458, 80.61891388893127, 80.78622484207153, 81.53653192520142, 81.65354084968567, 81.77027606964111, 81.88702988624573, 82.00414705276489, 82.1206419467926, 82.23745799064636, 82.3543119430542, 82.47091293334961, 82.58788990974426, 82.70450401306152, 82.82139992713928, 82.93808603286743, 83.05502700805664, 83.1716878414154, 83.28839993476868, 83.3884608745575, 83.61663603782654]	[79.51276762034078, 79.62943428700744, 80.61243428700745, 80.77913428700745, 81.52913428700745, 81.64580095367411, 81.76246762034077, 81.87913428700743, 81.99580095367409, 82.11246762034075, 82.22913428700741, 82.34580095367407, 82.46246762034073, 82.57913428700739, 82.69580095367405, 82.81246762034071, 82.92913428700737, 83.04580095367403, 83.16246762034069, 83.27913428700735, 83.39580095367401, 83.62913428700735]	2020_Nov_26_0957	59.93515354947864	1	1
3	15	FALSE	NA	v	['H', 'T', 'J', 'Y', 'U', 'N', 'B', 'E', 'X', 'K', 'M', 'V', 'S', 'P', 'Z', 'W']	[986, 1888, 1029, 2670, 2059, 1335, 760, 904, 4000, 1122, 1224, 2245, 1731, 1456, 2911, 2448]	9	Present	NA	NA	PRESENT	0.41834211349487305	85.60824704170227	87.61953592300415	88.3199291229248	88.67014408111572	91.73300194740295	4.113466024398804	[85.62428689002991, 85.74123406410217, 86.72559094429016, 86.89233994483948, 87.64307498931885, 87.76001787185669, 87.87680506706238, 87.99362397193909, 88.11046290397644, 88.22704696655273, 88.34397387504578, 88.4605770111084, 88.57755994796753, 88.6942298412323, 88.81099104881287, 88.92803001403809, 89.0447769165039, 89.16146683692932, 89.27836799621582, 89.39507293701172, 89.51193594932556, 89.73300194740295]	[85.62913428700735, 85.745800953674, 86.72880095367401, 86.89550095367402, 87.64550095367402, 87.76216762034068, 87.87883428700734, 87.995500953674, 88.11216762034066, 88.22883428700732, 88.34550095367398, 88.46216762034064, 88.5788342870073, 88.69550095367396, 88.81216762034062, 88.92883428700728, 89.04550095367394, 89.1621676203406, 89.27883428700726, 89.39550095367392, 89.51216762034058, 89.74550095367391]	2020_Nov_26_0957	59.93515354947864	1	1
3	16	FALSE	NV	v	['Y', 'W', 'R', 'P', 'E', 'J', 'C', 'B', 'U', 'V', 'Z', 'X', 'K', 'S', 'T', 'N']	[2670, 2448, 1587, 1456, 904, 1029, 829, 760, 2059, 2245, 2911, 4000, 1122, 1731, 1888, 1335]	12	Present	NA	NA	PRESENT	0.407012939453125	91.73204898834229	93.7358260154724	94.7863450050354	95.13626194000244	97.84937000274658	4.11354398727417	[91.74809002876282, 91.86453104019165, 92.84893703460693, 93.0157208442688, 93.76643490791321, 93.88338303565979, 94.0002989768982, 94.1168360710144, 94.2337019443512, 94.35041999816895, 94.46707391738892, 94.58398985862732, 94.70085787773132, 94.8174819946289, 94.93439388275146, 95.0512330532074, 95.16778302192688, 95.28475284576416, 95.40148997306824, 95.51833891868591, 95.63505005836487, 95.84937000274658]	[91.74550095367391, 91.86216762034057, 92.84516762034058, 93.01186762034058, 93.76186762034058, 93.87853428700724, 93.9952009536739, 94.11186762034056, 94.22853428700722, 94.34520095367388, 94.46186762034054, 94.5785342870072, 94.69520095367386, 94.81186762034052, 94.92853428700718, 95.04520095367384, 95.1618676203405, 95.27853428700716, 95.39520095367382, 95.51186762034048, 95.62853428700714, 95.86186762034048]	2020_Nov_26_0957	59.93515354947864	1	1
3	17	FALSE	NV	v	['W', 'P', 'M', 'T', 'C', 'V', 'Z', 'J', 'N', 'X', 'K', 'E', 'S', 'U', 'B', 'G']	[2448, 1456, 1224, 1888, 829, 2245, 2911, 1029, 1335, 4000, 1122, 904, 1731, 2059, 760, 944]	10	Present	NA	NA	PRESENT	0.41208791732788086	97.85473489761353	99.85246300697328	100.6696710586548	101.01966190338136	103.96573686599731	4.113273859024048	[97.87077593803406, 97.97091603279114, 98.95524907112122, 99.12217998504639, 99.88963890075684, 100.00667095184326, 100.10649394989014, 100.22330784797668, 100.34009790420532, 100.45689105987549, 100.573646068573, 100.69040894508362, 100.80719184875488, 100.92394685745239, 101.04080891609192, 101.15754699707031, 101.27437591552734, 101.39124202728271, 101.50791001319885, 101.62498497962952, 101.74207592010498, 101.96573495864868]	[97.86186762034048, 97.97853428700714, 98.96153428700714, 99.12823428700715, 99.87823428700715, 99.9949009536738, 100.11156762034047, 100.22823428700713, 100.34490095367379, 100.46156762034045, 100.5782342870071, 100.69490095367377, 100.81156762034043, 100.92823428700709, 101.04490095367375, 101.1615676203404, 101.27823428700707, 101.39490095367373, 101.51156762034039, 101.62823428700705, 101.7449009536737, 101.97823428700704]	2020_Nov_26_0957	59.93515354947864	1	1
3	18	FALSE	NA	v	['W', 'U', 'V', 'K', 'N', 'G', 'S', 'C', 'P', 'H', 'M', 'Z', 'X', 'J', 'T', 'R']	[2448, 2059, 2245, 1122, 1335, 944, 1731, 829, 1456, 986, 1224, 2911, 4000, 1029, 1888, 1587]	13	Present	NA	NA	PRESENT	0.34470391273498535	103.96138596534728	105.96868205070496	107.1356930732727	107.4857850074768	110.08210396766664	4.11342191696167	[103.97742700576782, 104.094162940979, 105.07851886749268, 105.2454879283905, 105.99625992774963, 106.11300086975098, 106.2297990322113, 106.3466169834137, 106.46341300010681, 106.58011484146118, 106.69706296920776, 106.81374192237854, 106.93057084083557, 107.04730701446533, 107.16421604156494, 107.28080105781555, 107.39769792556763, 107.5145308971405, 107.63124704360962, 107.74804902076721, 107.86498498916626, 108.08210492134094]	[103.97823428700704, 104.0949009536737, 105.0779009536737, 105.24460095367371, 105.99460095367371, 106.11126762034037, 106.22793428700703, 106.34460095367369, 106.46126762034035, 106.57793428700701, 106.69460095367367, 106.81126762034033, 106.92793428700699, 107.04460095367365, 107.16126762034031, 107.27793428700697, 107.39460095367363, 107.51126762034029, 107.62793428700695, 107.74460095367361, 107.86126762034027, 108.0946009536736]	2020_Nov_26_0957	59.93515354947864	1	1
3	19	FALSE	NA	v	['V', 'P', 'M', 'E', 'J', 'H', 'K', 'S', 'X', 'B', 'A', 'W', 'Y', 'U', 'C', 'N']	[2245, 1456, 1224, 904, 1029, 986, 1122, 1731, 4000, 760, 697, 2448, 2670, 2059, 829, 1335]	9	Present	NA	NA	PRESENT	0.373945951461792	110.08464002609252	112.08507108688354	112.78558611869812	113.13692307472228	116.19846987724304	4.113398790359497	[110.10067987442017, 110.21740984916687, 111.20190405845642, 111.36877393722534, 112.11977505683899, 112.23623704910278, 112.35320091247559, 112.46984791755676, 112.58668994903564, 112.70353889465332, 112.82009100914001, 112.93720483779907, 113.05364990234375, 113.17060494422913, 113.28722286224365, 113.40413904190063, 113.52101302146912, 113.63782000541687, 113.75448799133301, 113.87135195732117, 113.9715359210968, 114.19847106933594]	[110.0946009536736, 110.21126762034027, 111.19426762034027, 111.36096762034028, 112.11096762034028, 112.22763428700694, 112.3443009536736, 112.46096762034026, 112.57763428700692, 112.69430095367358, 112.81096762034024, 112.9276342870069, 113.04430095367356, 113.16096762034022, 113.27763428700688, 113.39430095367354, 113.5109676203402, 113.62763428700686, 113.74430095367352, 113.86096762034018, 113.97763428700684, 114.21096762034017]	2020_Nov_26_0957	59.93515354947864	1	1
3	20	FALSE	NA	v	['G', 'B', 'A', 'U', 'T', 'V', 'Z', 'M', 'X', 'N', 'S', 'R', 'Y', 'J', 'K', 'H']	[944, 760, 697, 2059, 1888, 2245, 2911, 1224, 4000, 1335, 1731, 1587, 2670, 1029, 1122, 986]	9	Present	NA	NA	PRESENT	0.7466020584106445	116.1910319328308	118.20141100883484	118.9018099308014	119.25197696685792	122.31483697891235	4.113425970077515	[116.20707392692566, 116.324049949646, 117.30820798873901, 117.47519207000732, 118.22587084770203, 118.34286189079285, 118.45960187911987, 118.57634806632996, 118.69327902793884, 118.80998301506042, 118.92687606811523, 119.04348301887512, 119.16050505638123, 119.27709484100342, 119.39424896240234, 119.51062989234924, 119.62741184234619, 119.744295835495, 119.86119198799133, 119.97786903381348, 120.09475493431091, 120.31483697891235]	[116.21096762034017, 116.32763428700683, 117.31063428700683, 117.47733428700684, 118.22733428700684, 118.3440009536735, 118.46066762034016, 118.57733428700682, 118.69400095367348, 118.81066762034014, 118.9273342870068, 119.04400095367346, 119.16066762034012, 119.27733428700678, 119.39400095367344, 119.5106676203401, 119.62733428700676, 119.74400095367342, 119.86066762034008, 119.97733428700674, 120.0940009536734, 120.32733428700674]	2020_Nov_26_0957	59.93515354947864	1	1
3	21	FALSE	NA	v	['K', 'J', 'P', 'V', 'U', 'H', 'G', 'R', 'C', 'B', 'W', 'X', 'N', 'T', 'M', 'E']	[1122, 1029, 1456, 2245, 2059, 986, 944, 1587, 829, 760, 2448, 4000, 1335, 1888, 1224, 904]	12	Present	NA	NA	PRESENT	0.343189001083374	122.31483602523804	124.31764793395996	125.36814308166504	125.71836590766908	128.43120288848877	4.113554954528809	[122.330885887146, 122.44717001914978, 123.43165397644043, 123.5984878540039, 124.34922790527344, 124.46610283851624, 124.5827169418335, 124.69971084594727, 124.81643199920654, 124.93323683738708, 125.05007004737854, 125.16685199737549, 125.28345203399658, 125.40043497085571, 125.51714396476746, 125.63393497467041, 125.75069689750671, 125.86765003204346, 125.9844319820404, 126.10122895240784, 126.21795392036438, 126.43120193481445]	[122.32733428700674, 122.4440009536734, 123.4270009536734, 123.5937009536734, 124.3437009536734, 124.46036762034007, 124.57703428700673, 124.69370095367339, 124.81036762034005, 124.9270342870067, 125.04370095367337, 125.16036762034003, 125.27703428700669, 125.39370095367335, 125.51036762034, 125.62703428700667, 125.74370095367333, 125.86036762033999, 125.97703428700665, 126.0937009536733, 126.21036762033997, 126.4437009536733]	2020_Nov_26_0957	59.93515354947864	1	1
3	22	FALSE	NV	v	['H', 'P', 'G', 'R', 'W', 'C', 'Y', 'U', 'S', 'J', 'V', 'E', 'K', 'X', 'M', 'B']	[986, 1456, 944, 1587, 2448, 829, 2670, 2059, 1731, 1029, 2245, 904, 1122, 4000, 1224, 760]	14	Present	NA	NA	PRESENT	0.6125948429107666	128.42083311080933	130.43418312072754	131.71784901618958	132.06808400154114	134.54756999015808	4.113386869430542	[128.4368860721588, 128.55362200737, 129.53828406333923, 129.7048180103302, 130.47260189056396, 130.57251405715942, 130.68922400474548, 130.80604791641235, 130.9230809211731, 131.03958201408386, 131.15640807151794, 131.27333188056946, 131.38998985290527, 131.5067639350891, 131.62368988990784, 131.74083590507507, 131.85740494728088, 131.97398805618286, 132.09087085723877, 132.2077350616455, 132.32460689544678, 132.54756903648376]	[128.4437009536733, 128.56036762033997, 129.54336762033998, 129.71006762033997, 130.46006762033997, 130.57673428700664, 130.69340095367332, 130.81006762034, 130.92673428700667, 131.04340095367334, 131.16006762034002, 131.2767342870067, 131.39340095367336, 131.51006762034004, 131.6267342870067, 131.7434009536734, 131.86006762034006, 131.97673428700674, 132.0934009536734, 132.21006762034008, 132.32673428700676, 132.56006762034008]	2020_Nov_26_0957	59.93515354947864	1	1
3	23	FALSE	NV	v	['C', 'S', 'R', 'P', 'N', 'U', 'B', 'X', 'M', 'T', 'Z', 'G', 'H', 'V', 'A', 'W']	[829, 1731, 1587, 1456, 1335, 2059, 760, 4000, 1224, 1888, 2911, 944, 986, 2245, 697, 2448]	8	Present	NA	NA	PRESENT	0.5530860424041748	134.54423689842224	136.55047798156738	137.13416409492493	137.48462891578674	140.6639368534088	4.113458871841431	[134.56027793884277, 134.67708897590637, 135.6614818572998, 135.82824802398682, 136.5790660381317, 136.69581699371338, 136.81264305114746, 136.92946600914001, 137.04620695114136, 137.16307306289673, 137.27993988990784, 137.39663887023926, 137.5132119655609, 137.63027596473694, 137.74694299697876, 137.86386895179749, 137.98037099838257, 138.09739899635315, 138.2140929698944, 138.33093404769897, 138.44776797294617, 138.6639380455017]	[134.56006762034008, 134.67673428700675, 135.65973428700676, 135.82643428700675, 136.57643428700675, 136.69310095367342, 136.8097676203401, 136.92643428700677, 137.04310095367345, 137.15976762034012, 137.2764342870068, 137.39310095367347, 137.50976762034014, 137.62643428700682, 137.7431009536735, 137.85976762034016, 137.97643428700684, 138.0931009536735, 138.2097676203402, 138.32643428700686, 138.44310095367354, 138.67643428700686]	2020_Nov_26_0957	59.93515354947864	1	1
3	24	FALSE	NA	v	['K', 'J', 'N', 'V', 'Y', 'A', 'S', 'Z', 'X', 'E', 'G', 'H', 'P', 'W', 'R', 'M']	[1122, 1029, 1335, 2245, 2670, 697, 1731, 2911, 4000, 904, 944, 986, 1456, 2448, 1587, 1224]	9	Present	NA	NA	PRESENT	1.1662180423736572	140.66754603385925	142.66696310043335	143.3671998977661	143.71724605560303	146.7803030014038	4.113339900970459	[140.6835868358612, 140.80030584335327, 141.7851378917694, 141.95148706436157, 142.70231103897095, 142.8192059993744, 142.93582606315613, 143.05258798599243, 143.16943192481995, 143.28634190559387, 143.40291690826416, 143.51990699768066, 143.63654088974, 143.75343990325928, 143.87020087242126, 143.9870729446411, 144.1037609577179, 144.22063899040222, 144.33741092681885, 144.45427584648132, 144.55423593521118, 144.7803030014038]	[140.67643428700686, 140.79310095367353, 141.77610095367353, 141.94280095367353, 142.69280095367353, 142.8094676203402, 142.92613428700687, 143.04280095367355, 143.15946762034022, 143.2761342870069, 143.39280095367357, 143.50946762034025, 143.62613428700692, 143.7428009536736, 143.85946762034027, 143.97613428700694, 144.09280095367362, 144.2094676203403, 144.32613428700697, 144.44280095367364, 144.5594676203403, 144.79280095367363]	2020_Nov_26_0957	59.93515354947864	1	1
3	25	FALSE	NV	v	['Y', 'E', 'K', 'T', 'G', 'P', 'J', 'V', 'N', 'W', 'H', 'X', 'S', 'U', 'R', 'B']	[2670, 904, 1122, 1888, 944, 1456, 1029, 2245, 1335, 2448, 986, 4000, 1731, 2059, 1587, 760]	12	Present	NA	NA	PRESENT	0.4267158508300781	146.7740340232849	148.78308296203613	149.83372902870178	150.1839759349823	152.89666891098022	4.113585948944092	[146.79007506370544, 146.906888961792, 147.89130187034607, 148.05829191207886, 148.8088719844818, 148.92554688453674, 149.04243397712708, 149.15921592712402, 149.27599596977234, 149.39280796051025, 149.50953483581543, 149.62630701065063, 149.7432119846344, 149.86007404327393, 149.97733998298645, 150.0936439037323, 150.21021103858948, 150.3271839618683, 150.444002866745, 150.56083488464355, 150.6775929927826, 150.89666986465454]	[146.79280095367363, 146.9094676203403, 147.8924676203403, 148.0591676203403, 148.8091676203403, 148.92583428700698, 149.04250095367365, 149.15916762034033, 149.275834287007, 149.39250095367368, 149.50916762034035, 149.62583428700702, 149.7425009536737, 149.85916762034037, 149.97583428700705, 150.09250095367372, 150.2091676203404, 150.32583428700707, 150.44250095367374, 150.55916762034042, 150.6758342870071, 150.9091676203404]	2020_Nov_26_0957	59.93515354947864	1	1
3	26	FALSE	NV	v	['B', 'T', 'S', 'K', 'J', 'G', 'R', 'V', 'X', 'Z', 'N', 'E', 'Y', 'H', 'A', 'W']	[760, 1888, 1731, 1122, 1029, 944, 1587, 2245, 4000, 2911, 1335, 904, 2670, 986, 697, 2448]	9	Present	NA	NA	PRESENT	0.33553099632263184	152.89755511283877	154.89974999427795	155.60009503364563	155.9500710964203	159.01303696632385	4.113286972045898	[152.9135959148407, 153.02991795539856, 154.01470494270325, 154.18115901947021, 154.93201899528503, 155.04897093772888, 155.16574788093567, 155.28239583969116, 155.39928197860718, 155.5161008834839, 155.63273286819458, 155.74976301193237, 155.86641788482666, 155.98345685005188, 156.1001329421997, 156.2168788909912, 156.3335690498352, 156.45026302337646, 156.56717801094055, 156.68399906158447, 156.80070400238037, 157.01303791999817]	[152.9091676203404, 153.0258342870071, 154.0088342870071, 154.17553428700708, 154.92553428700708, 155.04220095367376, 155.15886762034043, 155.2755342870071, 155.39220095367378, 155.50886762034045, 155.62553428700713, 155.7422009536738, 155.85886762034048, 155.97553428700715, 156.09220095367382, 156.2088676203405, 156.32553428700717, 156.44220095367385, 156.55886762034052, 156.6755342870072, 156.79220095367387, 157.0255342870072]	2020_Nov_26_0957	59.93515354947864	1	1
3	27	FALSE	VV	v	['H', 'R', 'A', 'P', 'G', 'surprise', 'N', 'K', 'X', 'M', 'C', 'Z', 'W', 'T', 'U', 'B']	[986, 1587, 697, 1456, 944, 'stimAuditory/all_stimAuditory/215.wav', 1335, 1122, 4000, 1224, 829, 2911, 2448, 1888, 2059, 760]	9	Present	NA	stimVisual/all_stimVisual/115.jpg	ABSENT	0.2606987953186035	159.00364899635315	161.01601004600525	161.71634602546692	162.0665419101715	165.12940287590027	4.1133928298950195	[159.01969003677368, 159.13645100593567, 160.12092185020447, 160.28779292106628, 161.05552101135254, 161.15524792671204, 161.27218890190125, 161.38883996009827, 161.5058569908142, 161.63925099372864, 161.7394368648529, 161.8561179637909, 161.97310996055603, 162.08981084823608, 162.2066249847412, 162.32337498664856, 162.4401638507843, 162.55699491500854, 162.6740758419037, 162.79051899909973, 162.90718984603882, 163.12940406799316]	[159.0255342870072, 159.14220095367386, 160.12520095367387, 160.29190095367386, 161.04190095367386, 161.15856762034053, 161.2752342870072, 161.39190095367388, 161.50856762034056, 161.62523428700723, 161.7419009536739, 161.85856762034058, 161.97523428700725, 162.09190095367393, 162.2085676203406, 162.32523428700728, 162.44190095367395, 162.55856762034063, 162.6752342870073, 162.79190095367397, 162.90856762034065, 163.14190095367397]	2020_Nov_26_0957	59.93515354947864	1	1
3	28	FALSE	NV	v	['W', 'Y', 'S', 'P', 'T', 'E', 'M', 'R', 'B', 'K', 'V', 'A', 'X', 'G', 'Z', 'J']	[2448, 2670, 1731, 1456, 1888, 904, 1224, 1587, 760, 1122, 2245, 697, 4000, 944, 2911, 1029]	13	Present	NA	NA	PRESENT	0.2893078327178955	165.12704205513	167.13241004943848	168.29968309402466	168.6495189666748	171.24576997756958	4.1133599281311035	[165.14308190345764, 165.25988793373108, 166.24411296844482, 166.41121101379395, 167.16186785697937, 167.27863883972168, 167.3953640460968, 167.51215291023254, 167.6291220188141, 167.74595284461975, 167.86251401901245, 167.97948384284973, 168.09622287750244, 168.2130389213562, 168.3296880722046, 168.44659185409546, 168.5634880065918, 168.6801838874817, 168.79686999320984, 168.91370487213135, 169.03054285049438, 169.24576902389526]	[165.14190095367397, 165.25856762034064, 166.24156762034065, 166.40826762034064, 167.15826762034064, 167.2749342870073, 167.391600953674, 167.50826762034066, 167.62493428700733, 167.741600953674, 167.85826762034068, 167.97493428700736, 168.09160095367403, 168.2082676203407, 168.32493428700738, 168.44160095367405, 168.55826762034073, 168.6749342870074, 168.79160095367408, 168.90826762034075, 169.02493428700743, 169.25826762034075]	2020_Nov_26_0957	59.93515354947864	1	1
3	29	FALSE	NN	v	['V', 'J', 'W', 'G', 'C', 'P', 'Z', 'R', 'Y', 'M', 'T', 'H', 'S', 'U', 'B', 'N']	[2245, 1029, 2448, 944, 829, 1456, 2911, 1587, 2670, 1224, 1888, 986, 1731, 2059, 760, 1335]	12	Absent	NA	NA	ABSENT	0.5664730072021484	171.25022292137146	173.24885511398315	174.29902911186218	174.64942407608032	177.3621368408203	4.113281726837158	[171.26626300811768, 171.3830530643463, 172.3506579399109, 172.51748991012573, 173.28534293174744, 173.40206098556519, 173.518709897995, 173.63576698303223, 173.75231289863586, 173.86913204193115, 173.98594689369202, 174.1026680469513, 174.2025809288025, 174.3194079399109, 174.43624186515808, 174.55302906036377, 174.686616897583, 174.78659796714783, 174.90339493751526, 175.02012705802917, 175.13711595535278, 175.362135887146]	[171.25826762034075, 171.37493428700742, 172.35793428700742, 172.52463428700742, 173.27463428700742, 173.3913009536741, 173.50796762034076, 173.62463428700744, 173.7413009536741, 173.8579676203408, 173.97463428700746, 174.09130095367414, 174.2079676203408, 174.32463428700748, 174.44130095367416, 174.55796762034083, 174.6746342870075, 174.79130095367418, 174.90796762034086, 175.02463428700753, 175.1413009536742, 175.37463428700752]	2020_Nov_26_0957	59.93515354947864	1	1
3	30	FALSE	NN	v	['W', 'R', 'A', 'N', 'U', 'M', 'B', 'J', 'Z', 'H', 'T', 'S', 'C', 'Y', 'P', 'G']	[2448, 1587, 697, 1335, 2059, 1224, 760, 1029, 2911, 986, 1888, 1731, 829, 2670, 1456, 944]	8	Absent	NA	NA	ABSENT	0.931128978729248	177.3568971157074	179.36513209342957	179.94917511940002	180.29882192611697	183.4785039424896	4.113371849060059	[177.37293791770935, 177.48946905136108, 178.4739818572998, 178.64094996452332, 179.39161705970764, 179.50829195976257, 179.62531399726868, 179.7419629096985, 179.85865306854248, 179.9761679172516, 180.092444896698, 180.20914793014526, 180.32606506347656, 180.44280099868774, 180.55971384048462, 180.6764678955078, 180.7931718826294, 180.91012406349182, 181.02672004699707, 181.14369297027588, 181.26028299331665, 181.47850394248962]	[177.37463428700752, 177.4913009536742, 178.4743009536742, 178.6410009536742, 179.3910009536742, 179.50766762034087, 179.62433428700754, 179.74100095367422, 179.8576676203409, 179.97433428700757, 180.09100095367424, 180.2076676203409, 180.3243342870076, 180.44100095367426, 180.55766762034094, 180.6743342870076, 180.79100095367428, 180.90766762034096, 181.02433428700763, 181.1410009536743, 181.25766762034098, 181.4910009536743]	2020_Nov_26_0957	59.93515354947864	1	1
3	31	FALSE	NV	v	['P', 'B', 'K', 'Z', 'A', 'M', 'S', 'T', 'X', 'J', 'C', 'E', 'R', 'U', 'G', 'H']	[1456, 760, 1122, 2911, 697, 1224, 1731, 1888, 4000, 1029, 829, 904, 1587, 2059, 944, 986]	9	Present	NA	NA	PRESENT	0.4325270652770996	183.48015308380127	185.48152494430545	186.18190908432007	186.53191089630127	189.59486985206604	4.11334490776062	[183.49619388580322, 183.6129448413849, 184.59740686416626, 184.76421284675598, 185.51489090919495, 185.6315689086914, 185.74834489822388, 185.8653118610382, 185.9821400642395, 186.09893894195557, 186.2157518863678, 186.33246493339539, 186.44932198524475, 186.56598806381226, 186.68279600143433, 186.79963493347168, 186.91663694381714, 187.03318786621094, 187.15008687973022, 187.26674485206604, 187.36684393882751, 187.59487104415894]	[183.4910009536743, 183.60766762034098, 184.59066762034098, 184.75736762034097, 185.50736762034097, 185.62403428700765, 185.74070095367432, 185.857367620341, 185.97403428700767, 186.09070095367434, 186.20736762034102, 186.3240342870077, 186.44070095367437, 186.55736762034104, 186.67403428700771, 186.7907009536744, 186.90736762034106, 187.02403428700774, 187.1407009536744, 187.25736762034109, 187.37403428700776, 187.60736762034108]	2020_Nov_26_0957	59.93515354947864	1	1
3	32	FALSE	NN	v	['A', 'B', 'G', 'H', 'C', 'R', 'T', 'U', 'M', 'Z', 'E', 'W', 'J', 'K', 'N', 'P']	[697, 760, 944, 986, 829, 1587, 1888, 2059, 1224, 2911, 904, 2448, 1029, 1122, 1335, 1456]	14	Absent	NA	NA	ABSENT	0.4689640998840332	189.5865340232849	191.5977339744568	192.8816421031952	193.23159408569336	195.71123695373535	4.1135029792785645	[189.60257601737976, 189.71944093704224, 190.7038390636444, 190.8705768585205, 191.63804602622986, 191.73812890052795, 191.8550009727478, 191.9717710018158, 192.08864188194275, 192.20528388023376, 192.3221299648285, 192.4389419555664, 192.555979013443, 192.67291402816772, 192.78943705558777, 192.90612697601318, 193.02284693717957, 193.13984489440918, 193.2564549446106, 193.37335801124573, 193.49007296562195, 193.71123695373535]	[189.60736762034108, 189.72403428700775, 190.70703428700776, 190.87373428700775, 191.62373428700775, 191.74040095367442, 191.8570676203411, 191.97373428700777, 192.09040095367445, 192.20706762034112, 192.3237342870078, 192.44040095367447, 192.55706762034114, 192.67373428700782, 192.7904009536745, 192.90706762034117, 193.02373428700784, 193.14040095367451, 193.2570676203412, 193.37373428700786, 193.49040095367454, 193.72373428700786]	2020_Nov_26_0957	59.93515354947864	1	1
3	33	FALSE	AV	v	['W', 'H', 'E', 'N', 'surprise', 'M', 'Y', 'X', 'K', 'U', 'C', 'G', 'B', 'P', 'T', 'V']	[2448, 986, 904, 1335, 'stimAuditory/all_stimAuditory/102.wav', 1224, 2670, 4000, 1122, 2059, 829, 944, 760, 1456, 1888, 2245]	8	Present	stimAuditory/all_stimAuditory/114.wav	stimVisual/all_stimVisual/109.jpg	ABSENT	1.049472093582153	195.70990800857544	197.7142391204834	198.29793190956116	198.6478989124298	201.82760286331177	4.113363742828369	[195.72594785690308, 195.84261798858643, 196.8270468711853, 196.9937629699707, 197.74459385871887, 197.86153507232666, 197.97888588905334, 198.095134973526, 198.21188306808472, 198.32859587669373, 198.44545006752014, 198.56228685379028, 198.67890095710754, 198.79588294029236, 198.91264486312866, 199.02946090698242, 199.14619898796082, 199.26310396194458, 199.37981295585632, 199.49657106399536, 199.61322593688965, 199.82760190963745]	[195.72373428700786, 195.84040095367453, 196.82340095367454, 196.99010095367453, 197.74010095367453, 197.8567676203412, 197.97343428700788, 198.09010095367455, 198.20676762034122, 198.3234342870079, 198.44010095367457, 198.55676762034125, 198.67343428700792, 198.7901009536746, 198.90676762034127, 199.02343428700794, 199.14010095367462, 199.2567676203413, 199.37343428700797, 199.49010095367464, 199.60676762034132, 199.84010095367464]	2020_Nov_26_0957	59.93515354947864	1	1
3	34	FALSE	NN	v	['K', 'T', 'U', 'N', 'Z', 'S', 'V', 'H', 'A', 'M', 'J', 'W', 'P', 'C', 'G', 'Y']	[1122, 1888, 2059, 1335, 2911, 1731, 2245, 986, 697, 1224, 1029, 2448, 1456, 829, 944, 2670]	8	Absent	NA	NA	ABSENT	1.2067391872406006	201.8328959941864	203.83052110671997	204.41462993621823	204.76419711112976	207.94396996498108	4.113448858261108	[201.84893703460693, 201.94908499717712, 202.93384790420532, 203.1003179550171, 203.86805295944214, 203.96793293952942, 204.08470702171326, 204.20141100883484, 204.31826090812683, 204.43503785133362, 204.55185103416443, 204.66859197616577, 204.78542494773865, 204.902193069458, 205.01902794837952, 205.13585495948792, 205.25262093544006, 205.3695969581604, 205.48624897003174, 205.60298895835876, 205.7200448513031, 205.94396901130676]	[201.84010095367464, 201.9567676203413, 202.9397676203413, 203.1064676203413, 203.8564676203413, 203.97313428700798, 204.08980095367465, 204.20646762034133, 204.323134287008, 204.43980095367468, 204.55646762034135, 204.67313428700803, 204.7898009536747, 204.90646762034137, 205.02313428700805, 205.13980095367472, 205.2564676203414, 205.37313428700807, 205.48980095367475, 205.60646762034142, 205.7231342870081, 205.9564676203414]	2020_Nov_26_0957	59.93515354947864	1	1
3	35	FALSE	NA	v	['R', 'H', 'K', 'A', 'J', 'S', 'Z', 'N', 'C', 'V', 'X', 'W', 'B', 'E', 'G', 'T']	[1587, 986, 1122, 697, 1029, 1731, 2911, 1335, 829, 2245, 4000, 2448, 760, 904, 944, 1888]	11	Present	NA	NA	PRESENT	0.2994070053100586	207.93949794769287	209.9471271038055	210.8806610107422	211.2306489944458	214.0603370666504	4.113209962844849	[207.9555389881134, 208.0726239681244, 209.05667805671692, 209.22374296188354, 209.97448301315308, 210.09131002426147, 210.20805597305298, 210.3248748779297, 210.44164490699768, 210.55854296684265, 210.67515993118286, 210.79190492630005, 210.9087679386139, 211.02561902999878, 211.14233899116516, 211.259192943573, 211.37593793869019, 211.4928698539734, 211.60953402519226, 211.72655987739563, 211.84300804138184, 212.0603380203247]	[207.9564676203414, 208.0731342870081, 209.0561342870081, 209.22283428700808, 209.97283428700808, 210.08950095367476, 210.20616762034143, 210.3228342870081, 210.43950095367478, 210.55616762034145, 210.67283428700813, 210.7895009536748, 210.90616762034148, 211.02283428700815, 211.13950095367483, 211.2561676203415, 211.37283428700817, 211.48950095367485, 211.60616762034152, 211.7228342870082, 211.83950095367487, 212.0728342870082]	2020_Nov_26_0957	59.93515354947864	1	1
3	36	FALSE	NA	v	['A', 'H', 'G', 'S', 'C', 'U', 'Z', 'P', 'M', 'Y', 'N', 'X', 'J', 'K', 'E', 'B']	[697, 986, 944, 1731, 829, 2059, 2911, 1456, 1224, 2670, 1335, 4000, 1029, 1122, 904, 760]	12	Present	NA	NA	PRESENT	0.24057412147521973	214.06323409080505	216.06340909004211	217.11398792266849	217.46377992630005	220.1767029762268	4.113293886184692	[214.079274892807, 214.1957540512085, 215.17994284629822, 215.34700989723206, 216.09777402877808, 216.21464204788208, 216.33121800422668, 216.44808888435364, 216.56487107276917, 216.68177485466003, 216.79856491088867, 216.91509199142456, 217.0322470664978, 217.1488230228424, 217.26552295684814, 217.38250994682312, 217.49930095672607, 217.6160180568695, 217.73290705680847, 217.84974193572998, 217.94959497451782, 218.17670392990112]	[214.0728342870082, 214.18950095367487, 215.17250095367487, 215.33920095367486, 216.08920095367486, 216.20586762034154, 216.3225342870082, 216.43920095367488, 216.55586762034156, 216.67253428700823, 216.7892009536749, 216.90586762034158, 217.02253428700826, 217.13920095367493, 217.2558676203416, 217.37253428700828, 217.48920095367495, 217.60586762034163, 217.7225342870083, 217.83920095367498, 217.95586762034165, 218.18920095367497]	2020_Nov_26_0957	59.93515354947864	1	1
3	37	FALSE	NN	v	['P', 'Y', 'V', 'J', 'E', 'T', 'A', 'G', 'W', 'B', 'H', 'C', 'U', 'Z', 'K', 'S']	[1456, 2670, 2245, 1029, 904, 1888, 697, 944, 2448, 760, 986, 829, 2059, 2911, 1122, 1731]	12	Absent	NA	NA	ABSENT	0.5170960426330566	220.1693720817566	222.17958903312683	223.2300801277161	223.580060005188	226.2930698394775	4.113480806350708	[220.18541288375854, 220.3023898601532, 221.28670287132263, 221.45360684394836, 222.20411086082458, 222.3210940361023, 222.43793988227844, 222.55467796325684, 222.671452999115, 222.7882800102234, 222.9050328731537, 223.02186703681946, 223.13867592811584, 223.255352973938, 223.37211894989014, 223.48901200294495, 223.605721950531, 223.72286105155945, 223.8393838405609, 223.95629787445068, 224.0730209350586, 224.29306983947754]	[220.18920095367497, 220.30586762034164, 221.28886762034165, 221.45556762034164, 222.20556762034164, 222.3222342870083, 222.438900953675, 222.55556762034166, 222.67223428700834, 222.788900953675, 222.90556762034169, 223.02223428700836, 223.13890095367503, 223.2555676203417, 223.37223428700838, 223.48890095367506, 223.60556762034173, 223.7222342870084, 223.83890095367508, 223.95556762034175, 224.07223428700843, 224.30556762034175]	2020_Nov_26_0957	59.93515354947864	1	1
3	38	FALSE	NN	v	['P', 'N', 'G', 'S', 'K', 'U', 'T', 'Y', 'V', 'A', 'M', 'B', 'J', 'C', 'Z', 'R']	[1456, 1335, 944, 1731, 1122, 2059, 1888, 2670, 2245, 697, 1224, 760, 1029, 829, 2911, 1587]	8	Absent	NA	NA	ABSENT	0.5217840671539307	226.29269003868103	228.29612612724304	228.87975406646729	229.2299289703369	232.40943694114685	4.113310813903809	[226.30873084068298, 226.42561984062195, 227.40997886657715, 227.57674384117126, 228.32752394676208, 228.44417595863342, 228.56104493141174, 228.67793893814087, 228.79469394683838, 228.91147899627686, 229.02814102172852, 229.14507603645325, 229.26179385185242, 229.37873005867004, 229.49571895599365, 229.61231088638306, 229.72909998893738, 229.84592604637146, 229.9627330303192, 230.07949590682983, 230.19629788398743, 230.40943503379822]	[226.30556762034175, 226.42223428700842, 227.40523428700843, 227.57193428700842, 228.32193428700842, 228.4386009536751, 228.55526762034177, 228.67193428700844, 228.78860095367511, 228.9052676203418, 229.02193428700846, 229.13860095367514, 229.2552676203418, 229.3719342870085, 229.48860095367516, 229.60526762034183, 229.7219342870085, 229.83860095367518, 229.95526762034186, 230.07193428700853, 230.1886009536752, 230.42193428700853]	2020_Nov_26_0957	59.93515354947864	1	1
3	39	FALSE	NN	v	['H', 'B', 'T', 'Y', 'G', 'A', 'E', 'V', 'W', 'S', 'R', 'C', 'J', 'Z', 'K', 'M']	[986, 760, 1888, 2670, 944, 697, 904, 2245, 2448, 1731, 1587, 829, 1029, 2911, 1122, 1224]	13	Absent	NA	NA	ABSENT	0.5830650329589844	232.39908409118652	234.41230297088623	235.5796570777893	235.92958402633667	238.52580404281616	4.113501071929932	[232.41512393951416, 232.5319118499756, 233.51643085479736, 233.68357396125793, 234.45074605941772, 234.55074906349182, 234.667466878891, 234.78438091278076, 234.90102887153625, 235.0178258419037, 235.13466501235962, 235.25156593322754, 235.36826395988464, 235.48502802848816, 235.60189294815063, 235.71881699562073, 235.8355770111084, 235.9524269104004, 236.06899690628052, 236.18579697608948, 236.30271697044373, 236.52580285072327]	[232.42193428700853, 232.5386009536752, 233.5216009536752, 233.6883009536752, 234.4383009536752, 234.55496762034187, 234.67163428700854, 234.78830095367522, 234.9049676203419, 235.02163428700857, 235.13830095367524, 235.25496762034192, 235.3716342870086, 235.48830095367526, 235.60496762034194, 235.7216342870086, 235.8383009536753, 235.95496762034196, 236.07163428700864, 236.1883009536753, 236.30496762034198, 236.5383009536753]	2020_Nov_26_0957	59.93515354947864	1	1
3	40	FALSE	NV	v	['U', 'W', 'G', 'H', 'K', 'E', 'S', 'X', 'Y', 'J', 'M', 'B', 'R', 'C', 'T', 'A']	[2059, 2448, 944, 986, 1122, 904, 1731, 4000, 2670, 1029, 1224, 760, 1587, 829, 1888, 697]	8	Present	NA	NA	PRESENT	1.3714220523834229	238.5225300788879	240.5287380218506	241.11250710487369	241.46296501159668	244.64216995239255	4.113431930541992	[238.53856992721558, 238.6553590297699, 239.63959884643555, 239.80644297599792, 240.55722093582153, 240.67418503761292, 240.79101705551147, 240.90770602226257, 241.02456784248352, 241.14135599136353, 241.25800490379333, 241.3749279975891, 241.49152398109436, 241.60851097106934, 241.7251799106598, 241.84187602996826, 241.95871806144714, 242.07564496994019, 242.19244289398193, 242.30925107002258, 242.42601084709167, 242.6421709060669]	[238.5383009536753, 238.65496762034198, 239.63796762034198, 239.80466762034197, 240.55466762034197, 240.67133428700865, 240.78800095367532, 240.904667620342, 241.02133428700867, 241.13800095367534, 241.25466762034202, 241.3713342870087, 241.48800095367537, 241.60466762034204, 241.72133428700872, 241.8380009536754, 241.95466762034206, 242.07133428700874, 242.1880009536754, 242.3046676203421, 242.42133428700876, 242.65466762034208]	2020_Nov_26_0957	59.93515354947864	1	1
3	41	FALSE	NA	v	['R', 'B', 'A', 'Y', 'K', 'G', 'S', 'W', 'Z', 'M', 'X', 'P', 'U', 'T', 'J', 'N']	[1587, 760, 697, 2670, 1122, 944, 1731, 2448, 2911, 1224, 4000, 1456, 2059, 1888, 1029, 1335]	11	Present	NA	NA	PRESENT	0.25688719749450684	244.645761013031	246.6451530456543	247.57884192466736	247.928906917572	250.758535861969	4.113382816314697	[244.66180086135864, 244.7784719467163, 245.76285099983215, 245.92962884902954, 246.68044185638428, 246.79750394821167, 246.9140830039978, 247.03080487251282, 247.14773607254028, 247.26442098617554, 247.38138484954834, 247.49803400039673, 247.61489605903625, 247.7315230369568, 247.84849905967712, 247.96529603004456, 248.08197593688965, 248.1987669467926, 248.31576085090637, 248.43248200416565, 248.53257203102112, 248.758535861969]	[244.65466762034208, 244.77133428700876, 245.75433428700876, 245.92103428700875, 246.67103428700875, 246.78770095367543, 246.9043676203421, 247.02103428700877, 247.13770095367545, 247.25436762034212, 247.3710342870088, 247.48770095367547, 247.60436762034215, 247.72103428700882, 247.8377009536755, 247.95436762034217, 248.07103428700884, 248.18770095367552, 248.3043676203422, 248.42103428700887, 248.53770095367554, 248.77103428700886]	2020_Nov_26_0957	59.93515354947864	1	1
3	42	FALSE	NA	v	['B', 'Y', 'C', 'U', 'N', 'V', 'G', 'P', 'X', 'S', 'W', 'M', 'T', 'A', 'J', 'Z']	[760, 2670, 829, 2059, 1335, 2245, 944, 1456, 4000, 1731, 2448, 1224, 1888, 697, 1029, 2911]	9	Present	NA	NA	PRESENT	0.3573629856109619	250.75236701965332	252.76158499717712	253.4621250629425	253.8118920326233	256.8749029636383	4.113317966461182	[250.76840686798096, 250.88499188423157, 251.8695318698883, 252.03633999824524, 252.7870728969574, 252.9039590358734, 253.02075505256653, 253.13760495185852, 253.25418186187744, 253.37112998962402, 253.48772597312927, 253.60453605651855, 253.72168898582458, 253.83829283714294, 253.95487904548645, 254.07177090644836, 254.18870997428894, 254.30530190467834, 254.42213201522827, 254.53890204429626, 254.6557788848877, 254.874902009964]	[250.77103428700886, 250.88770095367553, 251.87070095367554, 252.03740095367553, 252.78740095367553, 252.9040676203422, 253.02073428700888, 253.13740095367555, 253.25406762034223, 253.3707342870089, 253.48740095367558, 253.60406762034225, 253.72073428700892, 253.8374009536756, 253.95406762034227, 254.07073428700895, 254.18740095367562, 254.3040676203423, 254.42073428700897, 254.53740095367564, 254.65406762034232, 254.88740095367564]	2020_Nov_26_0957	59.93515354947864	1	1
3	43	FALSE	AA	v	['B', 'T', 'U', 'R', 'G', 'surprise', 'Y', 'E', 'X', 'P', 'H', 'C', 'S', 'N', 'V', 'J']	[760, 1888, 2059, 1587, 944, 'stimAuditory/all_stimAuditory/110.wav', 2670, 904, 4000, 1456, 986, 829, 1731, 1335, 2245, 1029]	9	Present	stimAuditory/all_stimAuditory/215.wav	stimVisual/all_stimVisual/110.jpg	PRESENT	0.9139389991760254	256.87547492980957	258.8778591156006	259.57878494262695	259.928307056427	262.99127101898193	4.113411903381348	[256.8915150165558, 257.00831294059753, 257.99290204048157, 258.1594638824463, 258.9102840423584, 259.027058839798, 259.1439309120178, 259.26059198379517, 259.3776259422302, 259.4943709373474, 259.6111409664154, 259.72797083854675, 259.84469199180603, 259.96152687072754, 260.0782730579376, 260.1951160430908, 260.3117549419403, 260.4286768436432, 260.54547905921936, 260.66232204437256, 260.77890706062317, 260.9912700653076]	[256.88740095367564, 257.0040676203423, 257.9870676203423, 258.1537676203423, 258.9037676203423, 259.020434287009, 259.13710095367566, 259.25376762034233, 259.370434287009, 259.4871009536757, 259.60376762034235, 259.720434287009, 259.8371009536757, 259.9537676203424, 260.07043428700905, 260.1871009536757, 260.3037676203424, 260.4204342870091, 260.53710095367575, 260.6537676203424, 260.7704342870091, 261.00376762034244]	2020_Nov_26_0957	59.93515354947864	1	1
3	44	FALSE	NA	v	['K', 'H', 'S', 'P', 'V', 'B', 'G', 'N', 'R', 'Z', 'X', 'Y', 'C', 'J', 'W', 'T']	[1122, 986, 1731, 1456, 2245, 760, 944, 1335, 1587, 2911, 4000, 2670, 829, 1029, 2448, 1888]	11	Present	NA	NA	PRESENT	0.47130799293518066	262.9819369316101	264.9940800666809	265.92845392227173	266.27810406684875	269.10763692855835	4.113556861877441	[262.99797797203064, 263.114865064621, 264.0995318889618, 264.2661609649658, 265.0336308479309, 265.13361287117004, 265.2505040168762, 265.3672158718109, 265.4842338562012, 265.6008460521698, 265.71764087677, 265.83438301086426, 265.9510259628296, 266.0680408477783, 266.18490290641785, 266.3016538619995, 266.41830706596375, 266.53527903556824, 266.6519160270691, 266.76878690719604, 266.8854868412018, 267.10763788223267]	[263.00376762034244, 263.1204342870091, 264.1034342870091, 264.2701342870091, 265.0201342870091, 265.1368009536758, 265.25346762034246, 265.37013428700914, 265.4868009536758, 265.6034676203425, 265.72013428700916, 265.83680095367583, 265.9534676203425, 266.0701342870092, 266.18680095367586, 266.30346762034253, 266.4201342870092, 266.5368009536759, 266.65346762034255, 266.7701342870092, 266.8868009536759, 267.12013428700925]	2020_Nov_26_0957	59.93515354947864	1	1
3	45	FALSE	NN	v	['Y', 'J', 'Z', 'E', 'G', 'C', 'B', 'R', 'M', 'A', 'H', 'K', 'W', 'U', 'V', 'T']	[2670, 1029, 2911, 904, 944, 829, 760, 1587, 1224, 697, 986, 1122, 2448, 2059, 2245, 1888]	9	Absent	NA	NA	ABSENT	0.3477339744567871	269.10527896881104	271.11065697669983	271.81100392341614	272.1610870361328	275.22400403022766	4.113347053527832	[269.12132000923157, 269.2381579875946, 270.22249603271484, 270.3893129825592, 271.14016795158386, 271.2570378780365, 271.3736820220947, 271.49059104919434, 271.60719084739685, 271.7239739894867, 271.84077286720276, 271.95781898498535, 272.0744118690491, 272.19127202033997, 272.3079960346222, 272.4248559474945, 272.5416898727417, 272.65841007232666, 272.77530097961426, 272.89210391044617, 273.00888204574585, 273.22400283813477]	[269.12013428700925, 269.2368009536759, 270.21980095367593, 270.3865009536759, 271.1365009536759, 271.2531676203426, 271.36983428700927, 271.48650095367594, 271.6031676203426, 271.7198342870093, 271.83650095367597, 271.95316762034264, 272.0698342870093, 272.186500953676, 272.30316762034266, 272.41983428700934, 272.536500953676, 272.6531676203427, 272.76983428700936, 272.88650095367603, 273.0031676203427, 273.23650095367606]	2020_Nov_26_0957	59.93515354947864	1	1
3	46	FALSE	AV	v	['T', 'J', 'S', 'P', 'W', 'Z', 'surprise', 'A', 'H', 'X', 'K', 'M', 'G', 'C', 'R', 'V']	[1888, 1029, 1731, 1456, 2448, 2911, 'stimAuditory/all_stimAuditory/118.wav', 697, 986, 4000, 1122, 1224, 944, 829, 1587, 2245]	10	Present	stimAuditory/all_stimAuditory/102.wav	stimVisual/all_stimVisual/111.jpg	ABSENT	0.7530028820037842	275.2288179397583	277.22695207595825	278.0440740585327	278.3939549922943	281.3403699398041	4.113417863845825	[275.24485898017883, 275.3613648414612, 276.32884883880615, 276.49574995040894, 277.2635328769684, 277.3801438808441, 277.49711894989014, 277.6137909889221, 277.7305600643158, 277.84722900390625, 277.9640910625458, 278.0810399055481, 278.1978528499603, 278.3145558834076, 278.4143650531769, 278.5312669277191, 278.64806294441223, 278.7816550731659, 278.8816668987274, 278.99839901924133, 279.11543703079224, 279.3403699398041]	[275.23650095367606, 275.35316762034273, 276.33616762034274, 276.5028676203427, 277.2528676203427, 277.3695342870094, 277.4862009536761, 277.60286762034275, 277.7195342870094, 277.8362009536761, 277.9528676203428, 278.06953428700945, 278.1862009536761, 278.3028676203428, 278.41953428700947, 278.53620095367614, 278.6528676203428, 278.7695342870095, 278.88620095367617, 279.00286762034284, 279.1195342870095, 279.35286762034286]	2020_Nov_26_0957	59.93515354947864	1	1
3	47	FALSE	NA	v	['G', 'A', 'Y', 'V', 'E', 'Z', 'N', 'S', 'X', 'W', 'K', 'M', 'U', 'H', 'R', 'T']	[944, 697, 2670, 2245, 904, 2911, 1335, 1731, 4000, 2448, 1122, 1224, 2059, 986, 1587, 1888]	9	Present	NA	NA	ABSENT	0.6772198677062988	281.3349599838257	283.34344696998596	284.0441288948059	284.39372396469116	287.4567370414734	4.113290071487427	[281.3510000705719, 281.4678199291229, 282.4522280693054, 282.61918807029724, 283.36978697776794, 283.4867830276489, 283.6035249233246, 283.72039794921875, 283.83698296546936, 283.9539580345154, 284.07064390182495, 284.18762493133545, 284.30427598953247, 284.42117500305176, 284.53776693344116, 284.65468192100525, 284.7713689804077, 284.88819885253906, 285.0048689842224, 285.1218638420105, 285.2385129928589, 285.4567370414734]	[281.35286762034286, 281.46953428700954, 282.45253428700954, 282.61923428700953, 283.36923428700953, 283.4859009536762, 283.6025676203429, 283.71923428700956, 283.83590095367623, 283.9525676203429, 284.0692342870096, 284.18590095367625, 284.3025676203429, 284.4192342870096, 284.5359009536763, 284.65256762034295, 284.7692342870096, 284.8859009536763, 285.002567620343, 285.11923428700965, 285.2359009536763, 285.46923428700967]	2020_Nov_26_0957	59.93515354947864	1	1
3	48	FALSE	NN	v	['E', 'J', 'U', 'R', 'T', 'V', 'P', 'M', 'W', 'C', 'N', 'A', 'G', 'H', 'B', 'Y']	[904, 1029, 2059, 1587, 1888, 2245, 1456, 1224, 2448, 829, 1335, 697, 944, 986, 760, 2670]	13	Absent	NA	NA	ABSENT	0.6031708717346191	287.4582269191742	289.45999097824097	290.6267800331116	290.97679710388184	293.5731029510498	4.113111972808838	[287.4742679595947, 287.5911319255829, 288.57555890083313, 288.74235796928406, 289.49311685562134, 289.6098358631134, 289.72674083709717, 289.84345293045044, 289.9603989124298, 290.07706093788147, 290.1940059661865, 290.3108780384064, 290.42751288414, 290.54430890083313, 290.66089701652527, 290.77780294418335, 290.89451789855957, 291.0114119052887, 291.12810707092285, 291.24510288238525, 291.34500098228455, 291.5731039047241]	[287.46923428700967, 287.58590095367634, 288.56890095367635, 288.73560095367634, 289.48560095367634, 289.602267620343, 289.7189342870097, 289.83560095367636, 289.95226762034304, 290.0689342870097, 290.1856009536764, 290.30226762034306, 290.41893428700973, 290.5356009536764, 290.6522676203431, 290.76893428700976, 290.88560095367643, 291.0022676203431, 291.1189342870098, 291.23560095367645, 291.3522676203431, 291.5856009536765]	2020_Nov_26_0957	59.93515354947864	1	1
3	49	FALSE	NV	v	['R', 'T', 'U', 'J', 'G', 'Y', 'P', 'H', 'W', 'K', 'S', 'N', 'M', 'X', 'Z', 'V']	[1587, 1888, 2059, 1029, 944, 2670, 1456, 986, 2448, 1122, 1731, 1335, 1224, 4000, 2911, 2245]	14	Present	NA	NA	PRESENT	0.551490068435669	293.56490111351013	295.57595705986023	296.85975098609924	297.20981311798096	299.6894700527191	4.113512992858887	[293.5809419155121, 293.6976408958435, 294.6823880672455, 294.8487899303436, 295.59951090812683, 295.71630692481995, 295.8332009315491, 295.9501328468323, 296.0669119358063, 296.1838240623474, 296.30056285858154, 296.41710090637207, 296.5339980125427, 296.6509349346161, 296.76747584342957, 296.88448786735535, 297.00118494033813, 297.11800503730774, 297.2346909046173, 297.35161805152893, 297.46833086013794, 297.6894700527191]	[293.5856009536765, 293.70226762034315, 294.68526762034315, 294.85196762034315, 295.60196762034315, 295.7186342870098, 295.8353009536765, 295.95196762034317, 296.06863428700984, 296.1853009536765, 296.3019676203432, 296.41863428700987, 296.53530095367654, 296.6519676203432, 296.7686342870099, 296.88530095367656, 297.00196762034324, 297.1186342870099, 297.2353009536766, 297.35196762034326, 297.46863428700993, 297.7019676203433]	2020_Nov_26_0957	59.93515354947864	1	1
3	50	FALSE	NN	v	['P', 'S', 'W', 'U', 'M', 'Y', 'B', 'V', 'G', 'K', 'T', 'R', 'Z', 'J', 'H', 'N']	[1456, 1731, 2448, 2059, 1224, 2670, 760, 2245, 944, 1122, 1888, 1587, 2911, 1029, 986, 1335]	11	Absent	NA	NA	ABSENT	0.5401420593261719	299.6878750324249	301.69243907928467	302.62626695632935	302.9763159751892	305.80583691596985	4.113397836685181	[299.70391607284546, 299.8208899497986, 300.8054599761963, 300.9721670150757, 301.72283005714417, 301.8396189212799, 301.95641589164734, 302.07343101501465, 302.1900119781494, 302.30683493614197, 302.4236578941345, 302.5404908657074, 302.65725207328796, 302.7741949558258, 302.89096999168396, 303.0077168941498, 303.12430906295776, 303.24108505249023, 303.35813903808594, 303.4748868942261, 303.5916609764099, 303.80583596229553]	[299.7019676203433, 299.81863428700996, 300.80163428700996, 300.96833428700995, 301.71833428700995, 301.8350009536766, 301.9516676203433, 302.06833428701, 302.18500095367665, 302.3016676203433, 302.41833428701, 302.5350009536767, 302.65166762034335, 302.76833428701, 302.8850009536767, 303.00166762034337, 303.11833428701004, 303.2350009536767, 303.3516676203434, 303.46833428701007, 303.58500095367674, 303.8183342870101]	2020_Nov_26_0957	59.93515354947864	1	1
3	51	FALSE	AV	v	['V', 'U', 'K', 'W', 'T', 'E', 'R', 'G', 'surprise', 'C', 'B', 'X', 'H', 'J', 'Y', 'A']	[2245, 2059, 1122, 2448, 1888, 904, 1587, 944, 'stimAuditory/all_stimAuditory/116.wav', 829, 760, 4000, 986, 1029, 2670, 697]	12	Present	stimAuditory/all_stimAuditory/110.wav	stimVisual/all_stimVisual/120.jpg	ABSENT	0.489300012588501	305.81171894073486	307.80864691734314	308.8593010902405	309.20927810668945	311.92220401763916	4.1135571002960205	[305.8277599811554, 305.92724800109863, 306.91177105903625, 307.07859802246094, 307.84618306159973, 307.9460849761963, 308.062903881073, 308.1796908378601, 308.296511888504, 308.4132790565491, 308.53008484840393, 308.6468880176544, 308.7806360721588, 308.8804359436035, 308.9973039627075, 309.11408591270447, 309.2308168411255, 309.34761905670166, 309.4644298553467, 309.58117485046387, 309.69820404052734, 309.92220306396484]	[305.8183342870101, 305.93500095367676, 306.91800095367677, 307.08470095367676, 307.83470095367676, 307.95136762034343, 308.0680342870101, 308.1847009536768, 308.30136762034346, 308.41803428701013, 308.5347009536768, 308.6513676203435, 308.76803428701015, 308.8847009536768, 309.0013676203435, 309.1180342870102, 309.23470095367685, 309.3513676203435, 309.4680342870102, 309.5847009536769, 309.70136762034355, 309.9347009536769]	2020_Nov_26_0957	59.93515354947864	1	1
3	52	FALSE	NA	v	['K', 'W', 'G', 'J', 'B', 'S', 'V', 'C', 'P', 'U', 'H', 'T', 'Y', 'X', 'N', 'R']	[1122, 2448, 944, 1029, 760, 1731, 2245, 829, 1456, 2059, 986, 1888, 2670, 4000, 1335, 1587]	14	Present	NA	NA	ABSENT	0.48601293563842773	311.9177620410919	313.9252030849457	315.20888900756836	315.55912709236145	318.0385699272156	4.1133668422698975	[311.93380188941956, 312.0507969856262, 313.0351049900055, 313.2020809650421, 313.9525489807129, 314.0694808959961, 314.1862578392029, 314.30297803878784, 314.420049905777, 314.53682804107666, 314.65344405174255, 314.7701828479767, 314.88706493377686, 315.00372195243835, 315.12077283859253, 315.23745489120483, 315.3542490005493, 315.471097946167, 315.587828874588, 315.7047598361969, 315.82146406173706, 316.0385708808899]	[311.9347009536769, 312.05136762034357, 313.0343676203436, 313.20106762034357, 313.95106762034357, 314.06773428701024, 314.1844009536769, 314.3010676203436, 314.41773428701026, 314.53440095367694, 314.6510676203436, 314.7677342870103, 314.88440095367696, 315.00106762034363, 315.1177342870103, 315.234400953677, 315.35106762034366, 315.46773428701033, 315.584400953677, 315.7010676203437, 315.81773428701035, 316.0510676203437]	2020_Nov_26_0957	59.93515354947864	1	1
3	53	FALSE	NA	v	['Y', 'E', 'K', 'S', 'W', 'V', 'G', 'H', 'X', 'J', 'U', 'P', 'M', 'R', 'A', 'N']	[2670, 904, 1122, 1731, 2448, 2245, 944, 986, 4000, 1029, 2059, 1456, 1224, 1587, 697, 1335]	9	Present	NA	NA	PRESENT	0.31515002250671387	318.04109597206116	320.0415699481964	320.74194598197937	321.0919511318207	324.1549370288849	4.113367080688477	[318.0571370124817, 318.1738820075989, 319.1583249568939, 319.32504987716675, 320.0759880542755, 320.19289684295654, 320.30948090553284, 320.4263060092926, 320.5431258678436, 320.6598320007324, 320.77661395072937, 320.8935458660126, 321.0104010105133, 321.1272418498993, 321.24408984184265, 321.36063289642334, 321.4775879383087, 321.5944309234619, 321.7111690044403, 321.82777285575867, 321.9279010295868, 322.1549370288849]	[318.0510676203437, 318.1677342870104, 319.1507342870104, 319.31743428701037, 320.06743428701037, 320.18410095367705, 320.3007676203437, 320.4174342870104, 320.53410095367707, 320.65076762034374, 320.7674342870104, 320.8841009536771, 321.00076762034377, 321.11743428701044, 321.2341009536771, 321.3507676203438, 321.46743428701046, 321.58410095367714, 321.7007676203438, 321.8174342870105, 321.93410095367716, 322.1674342870105]	2020_Nov_26_0957	59.93515354947864	1	1
3	54	FALSE	NN	v	['E', 'V', 'C', 'N', 'U', 'P', 'Z', 'H', 'Y', 'S', 'R', 'J', 'A', 'K', 'B', 'T']	[904, 2245, 829, 1335, 2059, 1456, 2911, 986, 2670, 1731, 1587, 1029, 697, 1122, 760, 1888]	11	Absent	NA	NA	ABSENT	0.6156959533691406	324.14775800704956	326.1580719947815	327.0916759967804	327.44165205955505	330.2713029384613	4.11323094367981	[324.1637990474701, 324.280503988266, 325.2649099826813, 325.43185091018677, 326.18270206451416, 326.2993049621582, 326.4159438610077, 326.53298807144165, 326.64978289604187, 326.76653385162354, 326.8832628726959, 327.0000970363617, 327.1168348789215, 327.2337210178375, 327.3503580093384, 327.4671080112457, 327.5841028690338, 327.70097398757935, 327.8176100254059, 327.93430495262146, 328.05126786231995, 328.271301984787]	[324.1674342870105, 324.2841009536772, 325.2671009536772, 325.4338009536772, 326.1838009536772, 326.30046762034385, 326.4171342870105, 326.5338009536772, 326.6504676203439, 326.76713428701055, 326.8838009536772, 327.0004676203439, 327.1171342870106, 327.23380095367725, 327.3504676203439, 327.4671342870106, 327.58380095367727, 327.70046762034394, 327.8171342870106, 327.9338009536773, 328.05046762034397, 328.2838009536773]	2020_Nov_26_0957	59.93515354947864	1	1
3	55	FALSE	NA	v	['B', 'J', 'R', 'K', 'T', 'Z', 'A', 'U', 'S', 'P', 'X', 'N', 'V', 'W', 'E', 'C']	[760, 1029, 1587, 1122, 1888, 2911, 697, 2059, 1731, 1456, 4000, 1335, 2245, 2448, 904, 829]	11	Present	NA	NA	PRESENT	0.26026296615600586	330.27075004577637	332.27421712875366	333.20801305770874	333.5580470561981	336.3876700401306	4.113452911376953	[330.286789894104, 330.40373396873474, 331.38823199272156, 331.5549659729004, 332.3057279586792, 332.4226038455963, 332.5392110347748, 332.6561748981476, 332.77292704582214, 332.88967394828796, 333.00646686553955, 333.1234128475189, 333.24013590812683, 333.3570189476013, 333.4737460613251, 333.5905668735504, 333.70740604400635, 333.8239629268646, 333.9408838748932, 334.0577390193939, 334.17437195777893, 334.3876688480377]	[330.2838009536773, 330.400467620344, 331.383467620344, 331.550167620344, 332.300167620344, 332.41683428701066, 332.53350095367733, 332.650167620344, 332.7668342870107, 332.88350095367736, 333.00016762034403, 333.1168342870107, 333.2335009536774, 333.35016762034405, 333.4668342870107, 333.5835009536774, 333.7001676203441, 333.81683428701075, 333.9335009536774, 334.0501676203441, 334.1668342870108, 334.4001676203441]	2020_Nov_26_0957	59.93515354947864	1	1
3	56	FALSE	VV	v	['J', 'A', 'M', 'H', 'P', 'Y', 'C', 'V', 'G', 'surprise', 'W', 'T', 'X', 'U', 'B', 'N']	[1029, 697, 1224, 986, 1456, 2670, 829, 2245, 944, 'stimAuditory/all_stimAuditory/219.wav', 2448, 1888, 4000, 2059, 760, 1335]	13	Present	NA	stimVisual/all_stimVisual/112.jpg	ABSENT	0.34568095207214355	336.37756299972534	338.3905119895935	339.55783104896545	339.90770506858826	342.50403690338135	4.113524913787842	[336.393602848053, 336.51012086868286, 337.49451899528503, 337.66143798828125, 338.42880487442017, 338.5288989543915, 338.6457009315491, 338.76273488998413, 338.87931990623474, 338.9961440563202, 339.11290287971497, 339.2297170162201, 339.3465139865875, 339.48017501831055, 339.58017086982727, 339.6970548629761, 339.8137159347534, 339.93050384521484, 340.0473608970642, 340.1643240451813, 340.280925989151, 340.50403785705566]	[336.4001676203441, 336.5168342870108, 337.4998342870108, 337.6665342870108, 338.4165342870108, 338.53320095367746, 338.64986762034414, 338.7665342870108, 338.8832009536775, 338.99986762034416, 339.11653428701084, 339.2332009536775, 339.3498676203442, 339.46653428701086, 339.58320095367753, 339.6998676203442, 339.8165342870109, 339.93320095367756, 340.04986762034423, 340.1665342870109, 340.2832009536776, 340.5165342870109]	2020_Nov_26_0957	59.93515354947864	1	1
3	57	FALSE	NV	v	['S', 'G', 'K', 'T', 'C', 'A', 'B', 'N', 'H', 'J', 'X', 'E', 'V', 'W', 'Z', 'R']	[1731, 944, 1122, 1888, 829, 697, 760, 1335, 986, 1029, 4000, 904, 2245, 2448, 2911, 1587]	11	Present	NA	NA	ABSENT	0.6461288928985596	342.50054001808167	344.5069959163666	345.4407229423523	345.7909469604492	348.62040400505066	4.113408088684082	[342.5165798664093, 342.6336028575897, 343.61803793907166, 343.78466987609863, 344.53549695014954, 344.65243101119995, 344.76912784576416, 344.88588094711304, 345.002641916275, 345.11938095092773, 345.2362380027771, 345.35324597358704, 345.4697639942169, 345.5868339538574, 345.70380997657776, 345.8201298713684, 345.9371030330658, 346.05375385284424, 346.1707580089569, 346.2873878479004, 346.4041769504547, 346.62040305137634]	[342.5165342870109, 342.6332009536776, 343.6162009536776, 343.7829009536776, 344.5329009536776, 344.64956762034427, 344.76623428701095, 344.8829009536776, 344.9995676203443, 345.11623428701097, 345.23290095367764, 345.3495676203443, 345.466234287011, 345.58290095367767, 345.69956762034434, 345.816234287011, 345.9329009536777, 346.04956762034436, 346.16623428701104, 346.2829009536777, 346.3995676203444, 346.63290095367773]	2020_Nov_26_0957	59.93515354947864	1	1
3	58	FALSE	NA	v	['E', 'R', 'T', 'J', 'Z', 'U', 'G', 'M', 'N', 'C', 'X', 'S', 'Y', 'V', 'P', 'H']	[904, 1587, 1888, 1029, 2911, 2059, 944, 1224, 1335, 829, 4000, 1731, 2670, 2245, 1456, 986]	11	Present	NA	NA	PRESENT	0.3154418468475342	348.623929977417	350.6232359409332	351.55715012550354	351.90709495544434	354.7367699146271	4.113533973693848	[348.6399700641632, 348.75677585601807, 349.7411229610443, 349.90802097320557, 350.6588809490204, 350.77557492256165, 350.8923180103302, 351.0090160369873, 351.1260259151459, 351.24284505844116, 351.35961389541626, 351.47638487815857, 351.59307384490967, 351.7099959850311, 351.82682394981384, 351.94343996047974, 352.0604519844055, 352.17716002464294, 352.29384183883667, 352.41093587875366, 352.5108518600464, 352.73676896095276]	[348.63290095367773, 348.7495676203444, 349.7325676203444, 349.8992676203444, 350.6492676203444, 350.7659342870111, 350.88260095367775, 350.9992676203444, 351.1159342870111, 351.2326009536778, 351.34926762034445, 351.4659342870111, 351.5826009536778, 351.6992676203445, 351.81593428701115, 351.9326009536778, 352.0492676203445, 352.16593428701117, 352.28260095367784, 352.3992676203445, 352.5159342870112, 352.74926762034454]	2020_Nov_26_0957	59.93515354947864	1	1
3	59	FALSE	NA	v	['V', 'S', 'K', 'R', 'J', 'B', 'A', 'H', 'P', 'Y', 'C', 'Z', 'U', 'X', 'E', 'N']	[2245, 1731, 1122, 1587, 1029, 760, 697, 986, 1456, 2670, 829, 2911, 2059, 4000, 904, 1335]	14	Present	NA	NA	PRESENT	0.5682179927825928	354.73028206825256	356.73987793922424	358.0235171318054	358.37388801574707	360.8531370162964	4.1132590770721444	[354.7463228702545, 354.86337399482727, 355.8480749130249, 356.0145890712738, 356.7651379108429, 356.88205194473267, 356.9989969730377, 357.11574506759644, 357.2323679924011, 357.3493070602417, 357.4660279750824, 357.58294200897217, 357.6997230052948, 357.81658005714417, 357.93333101272583, 358.0499608516693, 358.16691398620605, 358.2835650444031, 358.4005448818207, 358.5171239376068, 358.63419699668884, 358.8531370162964]	[354.74926762034454, 354.8659342870112, 355.8489342870112, 356.0156342870112, 356.7656342870112, 356.8823009536779, 356.99896762034456, 357.11563428701123, 357.2323009536779, 357.3489676203446, 357.46563428701126, 357.58230095367793, 357.6989676203446, 357.8156342870113, 357.93230095367795, 358.0489676203446, 358.1656342870113, 358.282300953678, 358.39896762034465, 358.5156342870113, 358.632300953678, 358.86563428701135]	2020_Nov_26_0957	59.93515354947864	1	1
3	60	FALSE	NA	v	['W', 'Z', 'B', 'R', 'M', 'K', 'Y', 'H', 'C', 'U', 'X', 'J', 'T', 'V', 'N', 'E']	[2448, 2911, 760, 1587, 1224, 1122, 2670, 986, 829, 2059, 4000, 1029, 1888, 2245, 1335, 904]	11	Present	NA	NA	PRESENT	0.5164060592651367	360.8536689281464	362.856153011322	363.789813041687	364.1398890018463	366.9695029258728	4.113349914550781	[360.8697090148926, 360.9864559173584, 361.97102093696594, 362.1376328468323, 362.88863492012024, 363.00544595718384, 363.1222040653229, 363.2389979362488, 363.3558359146118, 363.4725408554077, 363.5892288684845, 363.7059679031372, 363.8229789733887, 363.93966603279114, 364.056578874588, 364.1732840538025, 364.29025292396545, 364.4069209098816, 364.5237879753113, 364.64035296440125, 364.7571828365326, 364.9695029258728]	[360.86563428701135, 360.982300953678, 361.965300953678, 362.132000953678, 362.882000953678, 362.9986676203447, 363.11533428701136, 363.23200095367804, 363.3486676203447, 363.4653342870114, 363.58200095367806, 363.69866762034474, 363.8153342870114, 363.9320009536781, 364.04866762034476, 364.16533428701143, 364.2820009536781, 364.3986676203448, 364.51533428701146, 364.63200095367813, 364.7486676203448, 364.98200095367815]	2020_Nov_26_0957	59.93515354947864	1	1
3	61	FALSE	AV	v	['U', 'P', 'S', 'E', 'B', 'T', 'surprise', 'C', 'G', 'X', 'Z', 'W', 'K', 'H', 'V', 'M']	[2059, 1456, 1731, 904, 760, 1888, 'stimAuditory/all_stimAuditory/208.wav', 829, 944, 4000, 2911, 2448, 1122, 986, 2245, 1224]	10	Present	stimAuditory/all_stimAuditory/118.wav	stimVisual/all_stimVisual/150.jpg	ABSENT	0.4977691173553467	366.960501909256	368.97231006622314	369.7896060943603	370.13990092277527	373.0858700275421	4.11355996131897	[366.9765429496765, 367.09315299987793, 368.0775308609009, 368.2443859577179, 369.011883020401, 369.111927986145, 369.22856187820435, 369.3454840183258, 369.4621319770813, 369.57919692993164, 369.6958439350128, 369.8127839565277, 369.92946887016296, 370.0462758541107, 370.1630668640137, 370.27985191345215, 370.3966510295868, 370.51351594924927, 370.6301929950714, 370.7468419075012, 370.86377787590027, 371.0858700275421]	[366.98200095367815, 367.0986676203448, 368.08166762034483, 368.2483676203448, 368.9983676203448, 369.1150342870115, 369.23170095367817, 369.34836762034485, 369.4650342870115, 369.5817009536782, 369.69836762034487, 369.81503428701154, 369.9317009536782, 370.0483676203449, 370.16503428701157, 370.28170095367824, 370.3983676203449, 370.5150342870116, 370.63170095367826, 370.74836762034494, 370.8650342870116, 371.09836762034496]	2020_Nov_26_0957	59.93515354947864	1	1
3	62	FALSE	NV	v	['A', 'S', 'M', 'H', 'U', 'J', 'C', 'T', 'X', 'V', 'R', 'P', 'G', 'E', 'Y', 'W']	[697, 1731, 1224, 986, 2059, 1029, 829, 1888, 4000, 2245, 1587, 1456, 944, 904, 2670, 2448]	9	Present	NA	NA	PRESENT	0.34249305725097656	373.08346009254456	375.088828086853	375.7893559932709	376.1394391059875	379.2022368907929	4.113408803939819	[373.0995008945465, 373.2163288593292, 374.20085287094116, 374.3674759864807, 375.11838483810425, 375.23532700538635, 375.3519358634949, 375.4688720703125, 375.5855870246887, 375.70235991477966, 375.8191339969635, 375.9358780384064, 376.0526828765869, 376.1694839000702, 376.2862648963928, 376.40297293663025, 376.51971197128296, 376.6367189884186, 376.7538709640503, 376.87022590637207, 376.9871418476105, 377.20223689079285]	[373.09836762034496, 373.21503428701163, 374.19803428701164, 374.36473428701163, 375.11473428701163, 375.2314009536783, 375.348067620345, 375.46473428701165, 375.5814009536783, 375.698067620345, 375.8147342870117, 375.93140095367835, 376.048067620345, 376.1647342870117, 376.28140095367837, 376.39806762034505, 376.5147342870117, 376.6314009536784, 376.74806762034507, 376.86473428701174, 376.9814009536784, 377.21473428701177]	2020_Nov_26_0957	59.93515354947864	1	1
3	63	FALSE	NV	v	['G', 'B', 'S', 'V', 'M', 'W', 'E', 'U', 'X', 'N', 'Z', 'Y', 'J', 'H', 'T', 'P']	[944, 760, 1731, 2245, 1224, 2448, 904, 2059, 4000, 1335, 2911, 2670, 1029, 986, 1888, 1456]	9	Present	NA	NA	PRESENT	0.323620080947876	379.20676612854	381.20513105392456	381.9055941104889	382.2557899951935	385.31860303878784	4.113471984863281	[379.222806930542, 379.33969497680664, 380.30711698532104, 380.4742078781128, 381.24165201187134, 381.35830998420715, 381.4752469062805, 381.59209084510803, 381.70890283584595, 381.8255410194397, 381.94240283966064, 382.0591459274292, 382.1760859489441, 382.2928080558777, 382.4094560146332, 382.5094430446625, 382.6263020038605, 382.74313402175903, 382.85984802246094, 382.97670698165894, 383.0935318470001, 383.31860303878784]	[379.21473428701177, 379.33140095367844, 380.31440095367844, 380.48110095367844, 381.23110095367844, 381.3477676203451, 381.4644342870118, 381.58110095367846, 381.69776762034513, 381.8144342870118, 381.9311009536785, 382.04776762034516, 382.16443428701183, 382.2811009536785, 382.3977676203452, 382.51443428701185, 382.6311009536785, 382.7477676203452, 382.8644342870119, 382.98110095367855, 383.0977676203452, 383.3311009536786]	2020_Nov_26_0957	59.93515354947864	1	1
3	64	FALSE	NA	v	['A', 'U', 'P', 'T', 'R', 'N', 'V', 'S', 'X', 'E', 'H', 'K', 'Z', 'J', 'M', 'B']	[697, 2059, 1456, 1888, 1587, 1335, 2245, 1731, 4000, 904, 986, 1122, 2911, 1029, 1224, 760]	9	Present	NA	NA	PRESENT	1.2724220752716064	385.3133571147918	387.3215379714966	388.0220050811768	388.371994972229	391.43496894836426	4.113430976867676	[385.3293979167938, 385.44617986679077, 386.4305748939514, 386.597452878952, 387.3484299182892, 387.4650180339813, 387.58179092407227, 387.6985659599304, 387.81531286239624, 387.9321999549866, 388.04895401000977, 388.1656720638275, 388.2823839187622, 388.3994069099426, 388.51607489585876, 388.63314986228943, 388.7497398853302, 388.86628890037537, 388.9833610057831, 389.09990406036377, 389.2168529033661, 389.43496894836426]	[385.3311009536786, 385.44776762034525, 386.43076762034525, 386.59746762034524, 387.34746762034524, 387.4641342870119, 387.5808009536786, 387.69746762034526, 387.81413428701194, 387.9308009536786, 388.0474676203453, 388.16413428701196, 388.28080095367864, 388.3974676203453, 388.514134287012, 388.63080095367866, 388.74746762034533, 388.864134287012, 388.9808009536787, 389.09746762034536, 389.21413428701203, 389.4474676203454]	2020_Nov_26_0957	59.93515354947864	1	1
3	65	FALSE	VA	v	['G', 'E', 'W', 'S', 'K', 'surprise', 'M', 'J', 'X', 'C', 'P', 'A', 'N', 'R', 'Y', 'V']	[944, 904, 2448, 1731, 1122, 'stimAuditory/all_stimAuditory/211.wav', 1224, 1029, 4000, 829, 1456, 697, 1335, 1587, 2670, 2245]	9	Present	NA	stimVisual/all_stimVisual/202.jpg	ABSENT	0.4616730213165283	391.4365530014038	393.4379229545593	394.13836908340454	394.4884579181671	397.5513370037079	4.11341404914856	[391.45259499549866, 391.5694808959961, 392.553817987442, 392.7207589149475, 393.47137689590454, 393.5883209705353, 393.7050750255585, 393.8218719959259, 393.9385678768158, 394.0721778869629, 394.1721279621124, 394.2890000343323, 394.40576791763306, 394.5225749015808, 394.6394100189209, 394.75620198249817, 394.87288999557495, 394.98973989486694, 395.10654187202454, 395.2233488559723, 395.32326102256775, 395.5513370037079]	[391.4474676203454, 391.56413428701205, 392.54713428701206, 392.71383428701205, 393.46383428701205, 393.5805009536787, 393.6971676203454, 393.81383428701207, 393.93050095367875, 394.0471676203454, 394.1638342870121, 394.28050095367877, 394.39716762034544, 394.5138342870121, 394.6305009536788, 394.74716762034546, 394.86383428701214, 394.9805009536788, 395.0971676203455, 395.21383428701216, 395.33050095367884, 395.5638342870122]	2020_Nov_26_0957	59.93515354947864	1	1
3	66	FALSE	NN	v	['T', 'B', 'Z', 'G', 'C', 'W', 'K', 'M', 'N', 'S', 'U', 'A', 'E', 'V', 'P', 'R']	[1888, 760, 2911, 944, 829, 2448, 1122, 1224, 1335, 1731, 2059, 697, 904, 2245, 1456, 1587]	10	Absent	NA	NA	ABSENT	0.5379841327667236	397.54352712631226	399.5545151233673	400.3714370727539	400.721391916275	403.6677029132843	4.113187789916992	[397.5595679283142, 397.6760129928589, 398.6604199409485, 398.82701802253723, 399.5778429508209, 399.69485998153687, 399.81142592430115, 399.9284360408783, 400.04524087905884, 400.1620578765869, 400.2786099910736, 400.39529490470886, 400.5122129917145, 400.62889194488525, 400.74590492248535, 400.86272287368774, 400.979553937912, 401.09624791145325, 401.2131268978119, 401.3299648761749, 401.4466528892517, 401.6677029132843]	[397.5638342870122, 397.68050095367886, 398.66350095367886, 398.83020095367885, 399.58020095367885, 399.69686762034553, 399.8135342870122, 399.9302009536789, 400.04686762034555, 400.1635342870122, 400.2802009536789, 400.3968676203456, 400.51353428701225, 400.6302009536789, 400.7468676203456, 400.86353428701227, 400.98020095367895, 401.0968676203456, 401.2135342870123, 401.33020095367897, 401.44686762034564, 401.680200953679]	2020_Nov_26_0957	59.93515354947864	1	1
3	67	FALSE	NN	v	['A', 'E', 'Z', 'H', 'J', 'Y', 'S', 'W', 'P', 'V', 'N', 'C', 'K', 'M', 'U', 'R']	[697, 904, 2911, 986, 1029, 2670, 1731, 2448, 1456, 2245, 1335, 829, 1122, 1224, 2059, 1587]	8	Absent	NA	NA	ABSENT	0.5746171474456787	403.66634702682495	405.67060899734497	406.2557129859924	406.6042990684509	409.7840700149536	4.113461017608643	[403.6823890209198, 403.79914903640747, 404.78362107276917, 404.9502589702606, 405.7011549472809, 405.81784987449646, 405.93480801582336, 406.05163502693176, 406.1684060096741, 406.2850239276886, 406.40192890167236, 406.5187509059906, 406.6353950500488, 406.75269985198975, 406.86908984184265, 406.9858160018921, 407.1026029586792, 407.21980690956116, 407.33616399765015, 407.4529719352722, 407.5698969364166, 407.7840700149536]	[403.680200953679, 403.79686762034567, 404.77986762034567, 404.94656762034566, 405.69656762034566, 405.81323428701234, 405.929900953679, 406.0465676203457, 406.16323428701236, 406.27990095367903, 406.3965676203457, 406.5132342870124, 406.62990095367905, 406.74656762034573, 406.8632342870124, 406.9799009536791, 407.09656762034575, 407.2132342870124, 407.3299009536791, 407.4465676203458, 407.56323428701245, 407.7965676203458]	2020_Nov_26_0957	59.93515354947864	1	1
3	68	FALSE	NV	v	['S', 'M', 'C', 'G', 'R', 'K', 'H', 'Y', 'X', 'T', 'P', 'V', 'Z', 'U', 'E', 'A']	[1731, 1224, 829, 944, 1587, 1122, 986, 2670, 4000, 1888, 1456, 2245, 2911, 2059, 904, 697]	9	Present	NA	NA	PRESENT	0.5321719646453857	409.7896089553833	411.78710412979126	412.4876570701599	412.8374969959259	415.90043687820435	4.113332748413086	[409.8056490421295, 409.9055290222168, 410.8901090621948, 411.05676794052124, 411.82435488700867, 411.92442989349365, 412.04113388061523, 412.1579658985138, 412.2747690677643, 412.39163398742676, 412.5083088874817, 412.6251769065857, 412.74196100234985, 412.85875606536865, 412.97554206848145, 413.09235405921936, 413.20927000045776, 413.3258810043335, 413.44288897514343, 413.5594868659973, 413.6763789653778, 413.90043687820435]	[409.7965676203458, 409.9132342870125, 410.8962342870125, 411.06293428701247, 411.81293428701247, 411.92960095367914, 412.0462676203458, 412.1629342870125, 412.27960095367916, 412.39626762034584, 412.5129342870125, 412.6296009536792, 412.74626762034586, 412.86293428701254, 412.9796009536792, 413.0962676203459, 413.21293428701256, 413.32960095367923, 413.4462676203459, 413.5629342870126, 413.67960095367926, 413.9129342870126]	2020_Nov_26_0957	59.93515354947864	1	1
3	69	FALSE	NN	v	['N', 'Y', 'B', 'H', 'G', 'J', 'U', 'E', 'P', 'R', 'K', 'A', 'Z', 'V', 'W', 'M']	[1335, 2670, 760, 986, 944, 1029, 2059, 904, 1456, 1587, 1122, 697, 2911, 2245, 2448, 1224]	8	Absent	NA	NA	ABSENT	0.6485400199890137	415.89605498313904	417.9034321308136	418.4871850013733	418.83711409568787	422.01680397987366	4.113371849060059	[415.91209602355957, 416.0290570259094, 417.0137429237366, 417.18014693260193, 417.9308888912201, 418.0476989746094, 418.16462683677673, 418.2814528942108, 418.3982949256897, 418.5148570537567, 418.6318929195404, 418.74850702285767, 418.86537289619446, 418.98214197158813, 419.09893703460693, 419.21576404571533, 419.3324658870697, 419.4492690563202, 419.5661208629608, 419.68275690078735, 419.7995960712433, 420.01680397987366]	[415.9129342870126, 416.0296009536793, 417.0126009536793, 417.1793009536793, 417.9293009536793, 418.04596762034595, 418.1626342870126, 418.2793009536793, 418.39596762034597, 418.51263428701265, 418.6293009536793, 418.745967620346, 418.86263428701267, 418.97930095367934, 419.095967620346, 419.2126342870127, 419.32930095367936, 419.44596762034604, 419.5626342870127, 419.6793009536794, 419.79596762034606, 420.0293009536794]	2020_Nov_26_0957	59.93515354947864	1	1
3	70	FALSE	VV	v	['S', 'Y', 'H', 'R', 'C', 'J', 'N', 'V', 'W', 'surprise', 'B', 'M', 'X', 'Z', 'G', 'P']	[1731, 2670, 986, 1587, 829, 1029, 1335, 2245, 2448, 'stimAuditory/all_stimAuditory/205.wav', 760, 1224, 4000, 2911, 944, 1456]	13	Present	NA	stimVisual/all_stimVisual/108.jpg	ABSENT	0.7976968288421631	422.0193269252777	424.0197010040283	425.1868770122528	425.53709506988525	428.1331698894501	4.113468885421753	[422.03536891937256, 422.1522309780121, 423.1364550590515, 423.3034870624542, 424.054270029068, 424.17092204093933, 424.2876579761505, 424.4045648574829, 424.52133297920227, 424.6382908821106, 424.7550480365753, 424.8717520236969, 424.9886109828949, 425.1053190231323, 425.2220208644867, 425.338947057724, 425.45586705207825, 425.5725269317627, 425.6893458366394, 425.80616784095764, 425.90620398521423, 426.1331698894501]	[422.0293009536794, 422.1459676203461, 423.1289676203461, 423.2956676203461, 424.0456676203461, 424.16233428701275, 424.27900095367943, 424.3956676203461, 424.5123342870128, 424.62900095367945, 424.7456676203461, 424.8623342870128, 424.9790009536795, 425.09566762034615, 425.2123342870128, 425.3290009536795, 425.44566762034617, 425.56233428701285, 425.6790009536795, 425.7956676203462, 425.91233428701287, 426.1456676203462]	2020_Nov_26_0957	59.93515354947864	1	1
3	71	FALSE	NN	v	['W', 'U', 'E', 'H', 'A', 'R', 'K', 'P', 'V', 'Z', 'Y', 'N', 'G', 'J', 'M', 'B']	[2448, 2059, 904, 986, 697, 1587, 1122, 1456, 2245, 2911, 2670, 1335, 944, 1029, 1224, 760]	14	Absent	NA	NA	ABSENT	0.3543701171875	428.1259229183197	430.1361639499664	431.41989398002625	431.77029299736023	434.2495369911194	4.113373041152954	[428.14196395874023, 428.2588698863983, 429.2431809902191, 429.4098529815674, 430.16057991981506, 430.2775490283966, 430.39433097839355, 430.51112699508667, 430.6279079914093, 430.7448220252991, 430.8615770339966, 430.9782569408417, 431.09502387046814, 431.21190094947815, 431.32875394821167, 431.4453549385071, 431.56233191490173, 431.6789720058441, 431.7958719730377, 431.9125180244446, 432.0295078754425, 432.24953603744507]	[428.1456676203462, 428.2623342870129, 429.2453342870129, 429.4120342870129, 430.1620342870129, 430.27870095367956, 430.39536762034624, 430.5120342870129, 430.6287009536796, 430.74536762034626, 430.86203428701293, 430.9787009536796, 431.0953676203463, 431.21203428701295, 431.32870095367963, 431.4453676203463, 431.562034287013, 431.67870095367965, 431.7953676203463, 431.912034287013, 432.0287009536797, 432.262034287013]	2020_Nov_26_0957	59.93515354947864	1	1
3	72	FALSE	NV	v	['E', 'J', 'A', 'B', 'H', 'M', 'U', 'Y', 'N', 'X', 'C', 'G', 'V', 'T', 'K', 'R']	[904, 1029, 697, 760, 986, 1224, 2059, 2670, 1335, 4000, 829, 944, 2245, 1888, 1122, 1587]	10	Present	NA	NA	PRESENT	0.3989279270172119	434.24916791915894	436.2525610923767	437.0699589252472	437.4196081161499	440.3659029006958	4.113341808319092	[434.26520895957947, 434.3819990158081, 435.36612486839294, 435.5331358909607, 436.2839889526367, 436.40064692497253, 436.5175440311432, 436.63448190689087, 436.75137090682983, 436.8679530620575, 436.9847500324249, 437.10162806510925, 437.21828603744507, 437.3350908756256, 437.4518699645996, 437.5686800479889, 437.6854269504547, 437.8023979663849, 437.9190409183502, 438.0358169078827, 438.1524829864502, 438.3659019470215]	[434.262034287013, 434.3787009536797, 435.3617009536797, 435.5284009536797, 436.2784009536797, 436.39506762034637, 436.51173428701304, 436.6284009536797, 436.7450676203464, 436.86173428701306, 436.97840095367974, 437.0950676203464, 437.2117342870131, 437.32840095367976, 437.44506762034644, 437.5617342870131, 437.6784009536798, 437.79506762034646, 437.91173428701313, 438.0284009536798, 438.1450676203465, 438.37840095367983]	2020_Nov_26_0957	59.93515354947864	1	1
3	73	FALSE	AV	v	['Z', 'R', 'W', 'T', 'V', 'H', 'B', 'G', 'K', 'surprise', 'E', 'Y', 'X', 'N', 'U', 'M']	[2911, 1587, 2448, 1888, 2245, 986, 760, 944, 1122, 'stimAuditory/all_stimAuditory/113.wav', 904, 2670, 4000, 1335, 2059, 1224]	13	Present	stimAuditory/all_stimAuditory/116.wav	stimVisual/all_stimVisual/206.jpg	ABSENT	0.49228906631469727	440.3723199367523	442.36883091926575	443.5363368988037	443.88593196868896	446.4822700023651	4.113439083099365	[440.38836002349854, 440.4883089065552, 441.4726619720459, 441.6395728588104, 442.40703201293945, 442.5070960521698, 442.6239449977875, 442.740749835968, 442.85752296447754, 442.97429895401, 443.0910999774933, 443.2081489562988, 443.3246569633484, 443.4582328796387, 443.55819296836853, 443.6750240325928, 443.7918908596039, 443.9087338447571, 444.0255219936371, 444.14232206344604, 444.2591528892517, 444.4822690486908]	[440.37840095367983, 440.4950676203465, 441.4780676203465, 441.6447676203465, 442.3947676203465, 442.5114342870132, 442.62810095367985, 442.7447676203465, 442.8614342870132, 442.97810095367987, 443.09476762034654, 443.2114342870132, 443.3281009536799, 443.44476762034657, 443.56143428701324, 443.6781009536799, 443.7947676203466, 443.91143428701326, 444.02810095367994, 444.1447676203466, 444.2614342870133, 444.49476762034664]	2020_Nov_26_0957	59.93515354947864	1	1
3	74	FALSE	NN	v	['Z', 'A', 'B', 'R', 'U', 'E', 'V', 'C', 'W', 'S', 'M', 'K', 'T', 'H', 'J', 'Y']	[2911, 697, 760, 1587, 2059, 904, 2245, 829, 2448, 1731, 1224, 1122, 1888, 986, 1029, 2670]	13	Absent	NA	NA	ABSENT	0.528778076171875	446.4786820411682	448.4851679801941	449.65227794647217	450.0023870468139	452.59863686561584	4.113468885421753	[446.49472403526306, 446.61163902282715, 447.5962300300598, 447.76282000541687, 448.51351499557495, 448.6303479671478, 448.7472939491272, 448.8639988899231, 448.98078298568726, 449.0974450111389, 449.2144899368286, 449.33126997947693, 449.4480650424957, 449.5647270679474, 449.68158984184265, 449.7983100414276, 449.91519498825073, 450.03194785118103, 450.14881205558777, 450.26545906066895, 450.3823928833008, 450.59863686561584]	[446.49476762034664, 446.6114342870133, 447.5944342870133, 447.7611342870133, 448.5111342870133, 448.62780095368, 448.74446762034665, 448.86113428701333, 448.97780095368, 449.0944676203467, 449.21113428701335, 449.32780095368, 449.4444676203467, 449.5611342870134, 449.67780095368005, 449.7944676203467, 449.9111342870134, 450.02780095368007, 450.14446762034675, 450.2611342870134, 450.3778009536801, 450.61113428701344]	2020_Nov_26_0957	59.93515354947864	1	1
3	75	FALSE	NN	v	['C', 'U', 'N', 'T', 'J', 'A', 'E', 'Y', 'G', 'M', 'W', 'B', 'K', 'P', 'H', 'S']	[829, 2059, 1335, 1888, 1029, 697, 904, 2670, 944, 1224, 2448, 760, 1122, 1456, 986, 1731]	8	Absent	NA	NA	ABSENT	0.3656599521636963	452.60198497772217	454.6016170978546	455.1858079433441	455.53549695014954	458.7150039672851	4.113386869430542	[452.6180250644684, 452.73483085632324, 453.71931505203247, 453.8861379623413, 454.63680601119995, 454.7535710334778, 454.87046790122986, 454.9871280193329, 455.10412096977234, 455.22091794013977, 455.33753085136414, 455.45450806617737, 455.5712239742279, 455.68812799453735, 455.80464005470276, 455.92151498794556, 456.0384449958801, 456.15513801574707, 456.27201986312866, 456.3885679244995, 456.48888206481934, 456.71500301361084]	[452.61113428701344, 452.7278009536801, 453.7108009536801, 453.8775009536801, 454.6275009536801, 454.7441676203468, 454.86083428701346, 454.97750095368013, 455.0941676203468, 455.2108342870135, 455.32750095368016, 455.44416762034683, 455.5608342870135, 455.6775009536802, 455.79416762034685, 455.91083428701353, 456.0275009536802, 456.1441676203469, 456.26083428701355, 456.3775009536802, 456.4941676203469, 456.72750095368025]	2020_Nov_26_0957	59.93515354947864	1	1
3	76	FALSE	NA	v	['U', 'T', 'R', 'H', 'B', 'A', 'E', 'G', 'C', 'X', 'V', 'S', 'K', 'N', 'Y', 'M']	[2059, 1888, 1587, 986, 760, 697, 904, 944, 829, 4000, 2245, 1731, 1122, 1335, 2670, 1224]	10	Present	NA	NA	PRESENT	0.2666618824005127	458.7085540294647	460.717896938324	461.5354359149933	461.8851230144501	464.8313698768616	4.113472938537598	[458.72459387779236, 458.8413259983063, 459.82579588890076, 459.9924418926239, 460.7432370185852, 460.86025500297546, 460.9769198894501, 461.0935969352722, 461.21060585975647, 461.327250957489, 461.4442210197449, 461.5608310699463, 461.6777379512787, 461.7945599555969, 461.9114098548889, 462.02797293663025, 462.1446979045868, 462.26146507263184, 462.37837505340576, 462.4952039718628, 462.6119999885559, 462.8313698768616]	[458.72750095368025, 458.8441676203469, 459.8271676203469, 459.9938676203469, 460.7438676203469, 460.8605342870136, 460.97720095368027, 461.09386762034694, 461.2105342870136, 461.3272009536803, 461.44386762034696, 461.56053428701364, 461.6772009536803, 461.793867620347, 461.91053428701366, 462.02720095368034, 462.143867620347, 462.2605342870137, 462.37720095368036, 462.49386762034703, 462.6105342870137, 462.84386762034705]	2020_Nov_26_0957	59.93515354947864	1	1
3	77	FALSE	NV	v	['V', 'G', 'H', 'Y', 'N', 'S', 'U', 'B', 'R', 'Z', 'X', 'M', 'T', 'E', 'K', 'J']	[2245, 944, 986, 2670, 1335, 1731, 2059, 760, 1587, 2911, 4000, 1224, 1888, 904, 1122, 1029]	11	Present	NA	NA	PRESENT	0.5673809051513672	464.83176493644714	466.8342869281769	467.7680659294128	468.1181230545044	470.9477369785309	4.113450050354004	[464.84780502319336, 464.964439868927, 465.9490249156952, 466.11592388153076, 466.8666989803314, 466.9834370613098, 467.10018706321716, 467.21681094169617, 467.33381390571594, 467.45047307014465, 467.567214012146, 467.6840560436249, 467.8007550239563, 467.9178509712219, 468.0345389842987, 468.15123891830444, 468.2678589820862, 468.3846800327301, 468.5014069080353, 468.61848306655884, 468.735249042511, 468.9477369785309]	[464.84386762034705, 464.96053428701373, 465.94353428701373, 466.1102342870137, 466.8602342870137, 466.9769009536804, 467.0935676203471, 467.21023428701375, 467.3269009536804, 467.4435676203471, 467.56023428701377, 467.67690095368044, 467.7935676203471, 467.9102342870138, 468.02690095368047, 468.14356762034714, 468.2602342870138, 468.3769009536805, 468.49356762034716, 468.61023428701384, 468.7269009536805, 468.96023428701386]	2020_Nov_26_0957	59.93515354947864	1	1
3	78	FALSE	NV	v	['K', 'W', 'A', 'B', 'Y', 'N', 'H', 'X', 'S', 'P', 'V', 'J', 'Z', 'R', 'U', 'M']	[1122, 2448, 697, 760, 2670, 1335, 986, 4000, 1731, 1456, 2245, 1029, 2911, 1587, 2059, 1224]	8	Present	NA	NA	PRESENT	0.2765500545501709	470.93810510635376	472.9507279396057	473.53449606895447	473.88437008857727	477.064101934433	4.1133739948272705	[470.9541449546814, 471.07096695899963, 472.0554909706116, 472.22219705581665, 472.989688873291, 473.0897150039673, 473.2064929008484, 473.32332706451416, 473.4402198791504, 473.557177066803, 473.6736960411072, 473.79065895080566, 473.90745091438293, 474.0242578983307, 474.14101791381836, 474.2578740119934, 474.37462997436523, 474.4913809299469, 474.6079099178314, 474.72480607032776, 474.84175300598145, 475.0641028881073]	[470.96023428701386, 471.07690095368054, 472.05990095368054, 472.22660095368053, 472.97660095368053, 473.0932676203472, 473.2099342870139, 473.32660095368055, 473.4432676203472, 473.5599342870139, 473.6766009536806, 473.79326762034725, 473.9099342870139, 474.0266009536806, 474.1432676203473, 474.25993428701395, 474.3766009536806, 474.4932676203473, 474.60993428701397, 474.72660095368065, 474.8432676203473, 475.07660095368067]	2020_Nov_26_0957	59.93515354947864	1	1
3	79	FALSE	AN	v	['Z', 'A', 'S', 'K', 'G', 'Y', 'surprise', 'M', 'V', 'P', 'H', 'C', 'N', 'E', 'J', 'U']	[2911, 697, 1731, 1122, 944, 2670, 'stimAuditory/all_stimAuditory/119.wav', 1224, 2245, 1456, 986, 829, 1335, 904, 1029, 2059]	10	Absent	stimAuditory/all_stimAuditory/219.wav	stimVisual/all_stimVisual/103.jpg	ABSENT	0.3530459403991699	477.0616090297699	479.06718611717224	479.8841769695282	480.2342231273651	483.1804699897766	4.11328387260437	[477.07765102386475, 477.19429302215576, 478.17864990234375, 478.3454520702362, 479.0962300300598, 479.2130310535431, 479.32983684539795, 479.4465899467468, 479.5634789466858, 479.680114030838, 479.79689598083496, 479.9138810634613, 480.0306758880615, 480.1473000049591, 480.2640929222107, 480.3809230327606, 480.4977729320526, 480.614609003067, 480.73112893104553, 480.84807205200195, 480.96480894088745, 481.1804699897766]	[477.07660095368067, 477.19326762034734, 478.17626762034735, 478.34296762034734, 479.09296762034734, 479.209634287014, 479.3263009536807, 479.44296762034736, 479.55963428701403, 479.6763009536807, 479.7929676203474, 479.90963428701406, 480.02630095368073, 480.1429676203474, 480.2596342870141, 480.37630095368075, 480.49296762034743, 480.6096342870141, 480.7263009536808, 480.84296762034745, 480.9596342870141, 481.1929676203475]	2020_Nov_26_0957	59.93515354947864	1	1
