participant	trial_num	practice	task	condition	RSVP	RAP	probePos	probe_presence	surprise_sound	surprise_img	probe_response	probe_resp_time	first_fixation_time	trial_start_time	surprise_start_time	probe_start_time	trial_end_time	trial_duration	actualEventTimes	plannedEventTimes	date	framerate	marker_vol	RAP_vol
3	1	FALSE	NN	a	['M', 'H', 'V', 'Z', 'C', 'R', 'B', 'J', 'P', 'Y', 'T', 'U', 'G', 'A', 'E', 'S']	[1224, 986, 2245, 2911, 829, 1587, 760, 1029, 1456, 2670, 1888, 2059, 944, 697, 904, 1731]	13	Absent	NA	NA	PRESENT	1.1858930587768557	1.9073486328125e-6	1.9962401390075684	3.1629177728622073	3.5129196801908402	6.103870868682861	4.107630729675293	[0.01349496841430664, 0.11316704750061035, 1.0871949195861816, 1.2644798755645752, 2.0152480602264404, 2.1322550773620605, 2.248971939086914, 2.3657710552215576, 2.4826619625091553, 2.599360942840576, 2.716033935546875, 2.8330399990081787, 2.949744939804077, 3.066361904144287, 3.18308687210083, 3.299875020980835, 3.416840076446533, 3.5334529876708984, 3.6503219604492188, 3.767132043838501, 3.8841469287872314, 4.103870868682861]	[1.9073486328125e-06, 0.11666857400863281, 1.0996685740086327, 1.2663685740086328, 2.0163685740086326, 2.1330352406686326, 2.2497019073286326, 2.3663685739886327, 2.4830352406486327, 2.5997019073086327, 2.7163685739686327, 2.8330352406286328, 2.949701907288633, 3.066368573948633, 3.183035240608633, 3.299701907268633, 3.416368573928633, 3.533035240588633, 3.649701907248633, 3.766368573908633, 3.883035240568633, 4.116368573901966]	2020_Nov_26_1017	59.93660955429486	1	0.375
3	2	FALSE	NV	a	['H', 'C', 'G', 'W', 'S', 'E', 'R', 'Y', 'B', 'V', 'J', 'X', 'P', 'M', 'K', 'A']	[986, 829, 944, 2448, 1731, 904, 1587, 2670, 760, 2245, 1029, 4000, 1456, 1224, 1122, 697]	12	Present	NA	NA	PRESENT	0.36641597747802734	6.106100082397461	8.109362125396729	9.15936999314984	9.509372138897051	12.220237016677856	4.110874891281128	[6.119592905044556, 6.236311912536621, 7.203561067581177, 7.387763977050781, 8.138499021530151, 8.255336046218872, 8.372063875198364, 8.488751888275146, 8.605767965316772, 8.722301959991455, 8.839447021484375, 8.95609998703003, 9.072831869125366, 9.18967604637146, 9.30653190612793, 9.423232078552246, 9.540348052978516, 9.656917095184326, 9.77378797531128, 9.890414953231812, 10.007025957107544, 10.220237970352173]	[6.116368573901966, 6.233035240561966, 7.216035240561966, 7.382735240561965, 8.132735240561965, 8.249401907221966, 8.366068573881966, 8.482735240541967, 8.599401907201967, 8.716068573861968, 8.832735240521968, 8.949401907181969, 9.066068573841969, 9.18273524050197, 9.29940190716197, 9.41606857382197, 9.532735240481971, 9.649401907141971, 9.766068573801972, 9.882735240461972, 9.999401907121973, 10.232735240455305]	2020_Nov_26_1017	59.93660955429486	1	0.375
3	3	FALSE	NN	a	['E', 'Z', 'N', 'Y', 'B', 'V', 'S', 'J', 'W', 'H', 'C', 'T', 'R', 'P', 'K', 'A']	[904, 2911, 1335, 2670, 760, 2245, 1731, 1029, 2448, 986, 829, 1888, 1587, 1456, 1122, 697]	12	Absent	NA	NA	ABSENT	1.0116498470306396	12.212548017501833	14.225680112838743	15.27568702691754	15.625688934246172	18.33660387992859	4.110923767089844	[12.22603988647461, 12.34281301498413, 13.319923877716064, 13.494014978408813, 14.244821071624756, 14.361847877502441, 14.478550910949707, 14.595215082168579, 14.712218046188354, 14.829009056091309, 14.945791006088257, 15.062404870986938, 15.179408073425293, 15.295993089675903, 15.413018941879272, 15.529541969299316, 15.646506071090698, 15.76314091682434, 15.880105972290039, 15.99680209159851, 16.11362099647522, 16.336602926254272]	[12.232735240455305, 12.349401907115306, 13.332401907115306, 13.499101907115307, 14.249101907115307, 14.365768573775307, 14.482435240435308, 14.599101907095308, 14.715768573755309, 14.83243524041531, 14.94910190707531, 15.06576857373531, 15.18243524039531, 15.299101907055311, 15.415768573715312, 15.532435240375312, 15.649101907035313, 15.765768573695313, 15.882435240355314, 15.999101907015314, 16.115768573675314, 16.34910190700865]	2020_Nov_26_1017	59.93660955429486	1	0.375
3	4	FALSE	NA	a	['A', 'E', 'K', 'Y', 'V', 'R', 'W', 'M', 'X', 'C', 'G', 'N', 'J', 'T', 'U', 'H']	[697, 904, 1122, 2670, 2245, 1587, 2448, 1224, 4000, 829, 944, 1335, 1029, 1888, 2059, 986]	9	Present	NA	NA	PRESENT	0.12023806571960448	18.33581304550171	20.341928958892822	21.04193706508451	21.391938972413143	24.452970027923584	4.111041069030762	[18.349304914474487, 18.46597909927368, 19.436291933059692, 19.61730408668518, 20.36851191520691, 20.484824895858765, 20.60167098045349, 20.71845293045044, 20.835201025009155, 20.952025890350342, 21.06900405883789, 21.18574595451355, 21.302608013153076, 21.419257879257202, 21.536362886428833, 21.65273904800415, 21.769490957260132, 21.886323928833008, 22.00306487083435, 22.119916915893555, 22.236721992492676, 22.452970027923584]	[18.34910190700865, 18.465768573668647, 19.448768573668648, 19.615468573668647, 20.365468573668647, 20.482135240328645, 20.598801906988644, 20.715468573648643, 20.83213524030864, 20.94880190696864, 21.06546857362864, 21.182135240288638, 21.298801906948636, 21.415468573608635, 21.532135240268634, 21.648801906928632, 21.76546857358863, 21.88213524024863, 21.99880190690863, 22.115468573568627, 22.232135240228626, 22.46546857356196]	2020_Nov_26_1017	59.93660955429486	1	0.375
3	5	FALSE	NA	a	['S', 'U', 'A', 'N', 'V', 'P', 'R', 'B', 'Z', 'X', 'E', 'G', 'Y', 'T', 'W', 'M']	[1731, 2059, 697, 1335, 2245, 1456, 1587, 760, 2911, 4000, 904, 944, 2670, 1888, 2448, 1224]	10	Present	NA	NA	PRESENT	0.3096280097961426	24.458928108215332	26.458559036254883	27.275233570687995	27.625235716435206	30.569338083267212	4.110779047012329	[24.47241997718811, 24.589214086532593, 25.552660942077637, 25.740324020385742, 26.491596937179565, 26.591262102127075, 26.70810604095459, 26.82484006881714, 26.941617965698242, 27.058603048324585, 27.175249099731445, 27.292187929153442, 27.408818006515503, 27.525825023651123, 27.64244508743286, 27.75917100906372, 27.876142978668213, 27.992783069610596, 28.10975408554077, 28.226258039474487, 28.343204021453857, 28.56933903694153]	[24.46546857356196, 24.58213524022196, 25.56513524022196, 25.731835240221958, 26.481835240221958, 26.598501906881957, 26.715168573541956, 26.831835240201954, 26.948501906861953, 27.06516857352195, 27.18183524018195, 27.29850190684195, 27.415168573501948, 27.531835240161946, 27.648501906821945, 27.765168573481944, 27.881835240141942, 27.99850190680194, 28.11516857346194, 28.23183524012194, 28.348501906781937, 28.58183524011527]	2020_Nov_26_1017	59.93660955429486	1	0.375
3	6	FALSE	AA	a	['G', 'P', 'S', 'A', 'C', 'M', 'E', 'surprise', 'B', 'Y', 'X', 'V', 'J', 'K', 'H', 'W']	[944, 1456, 1731, 697, 829, 1224, 904, 'stimAuditory/all_stimAuditory/220.wav', 760, 2670, 4000, 2245, 1029, 1122, 986, 2448]	11	Present	stimAuditory/all_stimAuditory/220.wav	NA	ABSENT	0.6261420249938965	30.565680980682373	32.57471990585327	33.50806134536496	33.8580632526936	36.68570303916931	4.11098313331604	[30.57917308807373, 30.69562602043152, 31.66902804374695, 31.84692406654358, 32.597694873809814, 32.714377880096436, 32.8313889503479, 32.94822096824646, 33.064915895462036, 33.181782960891724, 33.298633098602295, 33.41530203819275, 33.53212594985962, 33.64887309074402, 33.7658269405365, 33.882513999938965, 33.99931788444519, 34.11601400375366, 34.23276996612549, 34.34957695007324, 34.46641993522644, 34.68570399284363]	[30.58183524011527, 30.69850190677527, 31.68150190677527, 31.84820190677527, 32.59820190677527, 32.714868573435275, 32.83153524009528, 32.94820190675528, 33.06486857341528, 33.181535240075284, 33.29820190673529, 33.41486857339529, 33.53153524005529, 33.64820190671529, 33.764868573375296, 33.8815352400353, 33.9982019066953, 34.1148685733553, 34.231535240015305, 34.34820190667531, 34.46486857333531, 34.69820190666864]	2020_Nov_26_1017	59.93660955429486	1	0.375
3	7	FALSE	NA	a	['H', 'T', 'C', 'S', 'P', 'A', 'G', 'X', 'R', 'M', 'N', 'W', 'K', 'B', 'Z', 'Y']	[986, 1888, 829, 1731, 1456, 697, 944, 4000, 1587, 1224, 1335, 2448, 1122, 760, 2911, 2670]	8	Present	NA	NA	ABSENT	0.4867019653320313	36.68872404098511	38.69111514091492	39.27445538835371	39.62445824935666	42.80206990242005	4.110954761505127	[36.702215909957886, 36.818989992141724, 37.78539299964905, 37.97030806541443, 38.72094988822937, 38.83785700798035, 38.95460510253906, 39.07129502296448, 39.18823194503784, 39.304840087890625, 39.42177605628967, 39.538392066955566, 39.65540409088135, 39.77241492271423, 39.88867998123169, 40.00631499290466, 40.12248992919922, 40.23912000656128, 40.35595893859863, 40.472712993621826, 40.58945608139038, 40.802069902420044]	[36.69820190666864, 36.814868573328646, 37.79786857332864, 37.96456857332864, 38.71456857332864, 38.831235239988644, 38.947901906648646, 39.06456857330865, 39.18123523996865, 39.29790190662865, 39.414568573288655, 39.53123523994866, 39.64790190660866, 39.76456857326866, 39.881235239928664, 39.997901906588666, 40.11456857324867, 40.23123523990867, 40.34790190656867, 40.464568573228675, 40.58123523988868, 40.81456857322201]	2020_Nov_26_1017	59.93660955429486	1	0.375
3	8	FALSE	NA	a	['R', 'M', 'N', 'T', 'S', 'E', 'Z', 'A', 'P', 'V', 'X', 'W', 'G', 'B', 'Y', 'U']	[1587, 1224, 1335, 1888, 1731, 904, 2911, 697, 1456, 2245, 4000, 2448, 944, 760, 2670, 2059]	11	Present	NA	NA	ABSENT	1.172074794769287	42.794986963272095	44.80738306045532	45.74072426154843	46.09072640729565	48.91843795776367	4.11105489730835	[42.80847907066345, 42.925256967544556, 43.90176296234131, 44.07671403884888, 44.82722091674805, 44.94419002532959, 45.06101393699646, 45.177692890167236, 45.29445695877075, 45.411272048950195, 45.52814292907715, 45.645004987716675, 45.76181101799011, 45.87838292121887, 45.99544095993042, 46.11198592185974, 46.22894597053528, 46.345645904541016, 46.462488889694214, 46.579143047332764, 46.696040868759155, 46.918437004089355]	[42.81456857322201, 42.931235239882014, 43.91423523988201, 44.08093523988201, 44.83093523988201, 44.94760190654201, 45.064268573202014, 45.180935239862016, 45.29760190652202, 45.41426857318202, 45.53093523984202, 45.647601906502025, 45.76426857316203, 45.88093523982203, 45.99760190648203, 46.114268573142034, 46.23093523980204, 46.34760190646204, 46.46426857312204, 46.58093523978204, 46.697601906442046, 46.93093523977538]	2020_Nov_26_1017	59.93660955429486	1	0.375
3	9	FALSE	NV	a	['B', 'U', 'J', 'S', 'P', 'N', 'R', 'C', 'X', 'Y', 'M', 'T', 'A', 'G', 'W', 'K']	[760, 2059, 1029, 1731, 1456, 1335, 1587, 829, 4000, 2670, 1224, 1888, 697, 944, 2448, 1122]	9	Present	NA	NA	PRESENT	1.752479076385498	48.918272972106934	50.92377495765686	51.62378306384855	51.97378497117718	55.03480386734009	4.1110289096832275	[48.93176603317261, 49.0486159324646, 50.01812696456909, 50.20010995864868, 50.9505729675293, 51.06718993186951, 51.18418002128601, 51.30092787742615, 51.41757607460022, 51.53443098068237, 51.65136098861694, 51.7681360244751, 51.88494396209717, 52.00177502632141, 52.1184298992157, 52.23536491394043, 52.35213804244995, 52.46893286705017, 52.585566997528076, 52.70233607292175, 52.81924891471863, 53.03480386734009]	[48.93093523977538, 49.04760190643538, 50.03060190643538, 50.19730190643538, 50.94730190643538, 51.06396857309538, 51.18063523975538, 51.297301906415385, 51.41396857307539, 51.53063523973539, 51.64730190639539, 51.763968573055394, 51.880635239715396, 51.9973019063754, 52.1139685730354, 52.2306352396954, 52.347301906355405, 52.46396857301541, 52.58063523967541, 52.69730190633541, 52.813968572995414, 53.04730190632875]	2020_Nov_26_1017	59.93660955429486	1	0.375
3	10	FALSE	NN	a	['E', 'P', 'R', 'H', 'Y', 'T', 'C', 'B', 'N', 'K', 'J', 'S', 'V', 'Z', 'G', 'M']	[904, 1456, 1587, 986, 2670, 1888, 829, 760, 1335, 1122, 1029, 1731, 2245, 2911, 944, 1224]	10	Absent	NA	NA	ABSENT	0.6620180606842041	55.04142498970032	57.04036498069763	57.857038799875006	58.207041660877955	61.15117001533508	4.110805034637451	[55.05491805076599, 55.171700954437256, 56.13449501991272, 56.306082010269165, 57.07361102104187, 57.17368006706238, 57.29043889045715, 57.40737795829773, 57.52409601211548, 57.64101004600525, 57.75769305229187, 57.874470949172974, 57.991381883621216, 58.10815691947937, 58.22500801086426, 58.341598987579346, 58.45856189727783, 58.57524490356445, 58.692137002944946, 58.809004068374634, 58.925633907318115, 59.15117001533508]	[55.04730190632875, 55.16396857298875, 56.14696857298875, 56.313668572988746, 57.063668572988746, 57.18033523964875, 57.29700190630875, 57.41366857296875, 57.530335239628755, 57.64700190628876, 57.76366857294876, 57.88033523960876, 57.997001906268764, 58.113668572928766, 58.23033523958877, 58.34700190624877, 58.46366857290877, 58.580335239568775, 58.69700190622878, 58.81366857288878, 58.93033523954878, 59.163668572882116]	2020_Nov_26_1017	59.93660955429486	1	0.375
3	11	FALSE	NN	a	['G', 'Y', 'U', 'P', 'V', 'R', 'M', 'N', 'W', 'H', 'B', 'T', 'J', 'Z', 'S', 'C']	[944, 2670, 2059, 1456, 2245, 1587, 1224, 1335, 2448, 986, 760, 1888, 1029, 2911, 1731, 829]	14	Absent	NA	NA	ABSENT	0.30646395683288574	61.14779090881348	63.15659594535827	64.43993738484997	64.7899392921786	67.26753807067871	4.110942125320435	[61.16128492355347, 61.278265953063965, 62.25086307525635, 62.429516077041626, 63.18013286590576, 63.29698896408081, 63.41385102272034, 63.530380964279175, 63.647449016571045, 63.76400804519653, 63.881036043167114, 63.997694969177246, 64.11462497711182, 64.23134398460388, 64.34821200370789, 64.46481394767761, 64.58151292800903, 64.69844698905945, 64.81534194946289, 64.93203401565552, 65.04885601997375, 65.26753687858582]	[61.163668572882116, 61.28033523954212, 62.263335239542116, 62.430035239542114, 63.180035239542114, 63.29670190620212, 63.41336857286212, 63.53003523952212, 63.64670190618212, 63.763368572842126, 63.88003523950213, 63.99670190616213, 64.11336857282213, 64.23003523948212, 64.34670190614212, 64.46336857280211, 64.5800352394621, 64.6967019061221, 64.8133685727821, 64.93003523944209, 65.04670190610209, 65.28003523943542]	2020_Nov_26_1017	59.93660955429486	1	0.375
3	12	FALSE	NN	a	['Y', 'E', 'J', 'A', 'Z', 'K', 'T', 'G', 'C', 'W', 'S', 'V', 'P', 'B', 'U', 'N']	[2670, 904, 1029, 697, 2911, 1122, 1888, 944, 829, 2448, 1731, 2245, 1456, 760, 2059, 1335]	8	Absent	NA	NA	ABSENT	0.4558689594268799	67.27108812332153	69.27319192886353	69.85653336839522	70.20653432204954	73.38390302658081	4.110711097717285	[67.28457999229431, 67.40116500854492, 68.36722803115845, 68.55263209342957, 69.30313801765442, 69.42012095451355, 69.53672003746033, 69.65384101867676, 69.77084803581238, 69.88723397254944, 70.00433397293091, 70.12094306945801, 70.2376959323883, 70.35429906845093, 70.47131490707397, 70.58821487426758, 70.70491409301758, 70.82155394554138, 70.93854808807373, 71.05529689788818, 71.15514802932739, 71.38390302658081]	[67.28003523943542, 67.39670190609542, 68.37970190609542, 68.54640190609543, 69.29640190609543, 69.41306857275542, 69.52973523941542, 69.64640190607541, 69.7630685727354, 69.8797352393954, 69.9964019060554, 70.11306857271539, 70.22973523937539, 70.34640190603538, 70.46306857269538, 70.57973523935537, 70.69640190601537, 70.81306857267536, 70.92973523933536, 71.04640190599535, 71.16306857265535, 71.39640190598868]	2020_Nov_26_1017	59.93660955429486	1	0.375
3	13	FALSE	VA	a	['M', 'H', 'T', 'N', 'B', 'R', 'C', 'U', 'J', 'surprise', 'A', 'Z', 'X', 'V', 'G', 'W']	[1224, 986, 1888, 1335, 760, 1587, 829, 2059, 1029, 'stimAuditory/all_stimAuditory/216.wav', 697, 2911, 4000, 2245, 944, 2448]	13	Present	NA	NA	ABSENT	0.8363449573516846	73.37735104560852	75.38960003852844	76.55627361926723	76.90627671868876	79.50026988983154	4.110669851303101	[73.39084386825562, 73.50764799118042, 74.48359489440918, 74.65903806686401, 75.40975904464722, 75.5263900756836, 75.64344191551208, 75.76021599769592, 75.87703394889832, 75.9937310218811, 76.1105489730835, 76.22735595703125, 76.34417700767517, 76.46083188056946, 76.57768487930298, 76.69451689720154, 76.81146502494812, 76.92810702323914, 77.04474806785583, 77.16169309616089, 77.27851104736328, 77.50026988983154]	[73.39640190598868, 73.51306857264868, 74.49606857264868, 74.66276857264869, 75.41276857264869, 75.52943523930868, 75.64610190596868, 75.76276857262867, 75.87943523928867, 75.99610190594866, 76.11276857260866, 76.22943523926865, 76.34610190592865, 76.46276857258864, 76.57943523924864, 76.69610190590863, 76.81276857256863, 76.92943523922862, 77.04610190588862, 77.16276857254861, 77.27943523920861, 77.51276857254194]	2020_Nov_26_1017	59.93660955429486	1	0.375
3	14	FALSE	NA	a	['R', 'E', 'G', 'T', 'S', 'Z', 'U', 'C', 'P', 'J', 'K', 'X', 'Y', 'N', 'B', 'M']	[1587, 904, 944, 1888, 1731, 2911, 2059, 829, 1456, 1029, 1122, 4000, 2670, 1335, 760, 1224]	12	Present	NA	NA	PRESENT	0.9609079360961914	79.50068497657776	81.50606298446655	82.55607109063824	82.90607299796687	85.61663699150085	4.110574007034302	[79.51417994499207, 79.6309449672699, 80.59996199607849, 80.78244590759277, 81.53293490409851, 81.64973187446594, 81.76651501655579, 81.8832950592041, 82.00009298324585, 82.1168360710144, 82.23374700546265, 82.35032987594604, 82.46721887588501, 82.58420705795288, 82.70069193840027, 82.81775307655334, 82.93450403213501, 83.05126404762268, 83.16801595687866, 83.28494000434875, 83.4015109539032, 83.61663794517517]	[79.51276857254194, 79.62943523920194, 80.61243523920194, 80.77913523920195, 81.52913523920195, 81.64580190586194, 81.76246857252194, 81.87913523918193, 81.99580190584193, 82.11246857250192, 82.22913523916192, 82.34580190582192, 82.46246857248191, 82.5791352391419, 82.6958019058019, 82.8124685724619, 82.92913523912189, 83.04580190578189, 83.16246857244188, 83.27913523910188, 83.39580190576187, 83.6291352390952]	2020_Nov_26_1017	59.93660955429486	1	0.375
3	15	FALSE	NA	a	['Y', 'G', 'H', 'V', 'E', 'U', 'P', 'N', 'S', 'R', 'B', 'W', 'K', 'X', 'Z', 'C']	[2670, 944, 986, 2245, 904, 2059, 1456, 1335, 1731, 1587, 760, 2448, 1122, 4000, 2911, 829]	14	Present	NA	NA	PRESENT	0.3900420665740967	85.62389707565308	87.62218594551086	88.90552738500256	89.2555302460055	91.73300409317017	4.110818147659302	[85.63740110397339, 85.7541298866272, 86.71632790565491, 86.88855504989624, 87.65609502792358, 87.7561149597168, 87.87304306030273, 87.98960709571838, 88.10659098625183, 88.22335290908813, 88.34020900726318, 88.45685696601868, 88.57380795478821, 88.69061493873596, 88.8071620464325, 88.92403388023376, 89.04097604751587, 89.15764498710632, 89.27459502220154, 89.39124393463135, 89.50793504714966, 89.73300290107727]	[85.6291352390952, 85.7458019057552, 86.7288019057552, 86.89550190575521, 87.64550190575521, 87.7621685724152, 87.8788352390752, 87.9955019057352, 88.11216857239519, 88.22883523905519, 88.34550190571518, 88.46216857237518, 88.57883523903517, 88.69550190569517, 88.81216857235516, 88.92883523901516, 89.04550190567515, 89.16216857233515, 89.27883523899514, 89.39550190565514, 89.51216857231513, 89.74550190564847]	2020_Nov_26_1017	59.93660955429486	1	0.375
3	16	FALSE	NV	a	['P', 'R', 'A', 'J', 'M', 'V', 'N', 'Z', 'Y', 'C', 'H', 'S', 'X', 'T', 'E', 'B']	[1456, 1587, 697, 1029, 1224, 2245, 1335, 2911, 2670, 829, 986, 1731, 4000, 1888, 904, 760]	13	Present	NA	NA	PRESENT	0.3386240005493164	91.73072290420532	93.73868703842165	94.90536157283474	95.25536371858196	97.8493709564209	4.110683917999268	[91.744215965271, 91.86063289642334, 92.83269500732422, 93.01192998886108, 93.76268291473389, 93.8794949054718, 93.99601793289185, 94.11294507980347, 94.22983193397522, 94.3466169834137, 94.46331310272217, 94.58000707626343, 94.69691801071167, 94.81363201141357, 94.93056797981262, 95.04727697372437, 95.16388988494873, 95.28079986572266, 95.39765787124634, 95.5144100189209, 95.6312460899353, 95.84937000274658]	[91.74550190564847, 91.86216857230846, 92.84516857230847, 93.01186857230847, 93.76186857230847, 93.87853523896847, 93.99520190562846, 94.11186857228846, 94.22853523894845, 94.34520190560845, 94.46186857226844, 94.57853523892844, 94.69520190558843, 94.81186857224843, 94.92853523890842, 95.04520190556842, 95.16186857222841, 95.27853523888841, 95.3952019055484, 95.5118685722084, 95.6285352388684, 95.86186857220173]	2020_Nov_26_1017	59.93660955429486	1	0.375
3	17	FALSE	NN	a	['A', 'U', 'H', 'B', 'Y', 'K', 'R', 'N', 'J', 'P', 'C', 'Z', 'G', 'W', 'E', 'V']	[697, 2059, 986, 760, 2670, 1122, 1587, 1335, 1029, 1456, 829, 2911, 944, 2448, 904, 2245]	9	Absent	NA	NA	ABSENT	0.9680461883544922	97.85344290733336	99.8546531200409	100.554660987814	100.9046631335612	103.9657380580902	4.111084938049316	[97.86693596839905, 97.98367094993591, 98.94906187057495, 99.13495707511902, 99.88564395904541, 100.00241804122925, 100.11922407150269, 100.23617887496948, 100.35296392440796, 100.46975898742676, 100.58652400970459, 100.70328497886658, 100.81999588012695, 100.9369568824768, 101.05352401733398, 101.1703929901123, 101.27042508125305, 101.3872458934784, 101.50403094291687, 101.62073588371277, 101.73787689208984, 101.96573686599731]	[97.86186857220173, 97.97853523886172, 98.96153523886173, 99.12823523886173, 99.87823523886173, 99.99490190552173, 100.11156857218172, 100.22823523884172, 100.34490190550171, 100.46156857216171, 100.5782352388217, 100.6949019054817, 100.8115685721417, 100.92823523880169, 101.04490190546169, 101.16156857212168, 101.27823523878168, 101.39490190544167, 101.51156857210167, 101.62823523876166, 101.74490190542166, 101.97823523875499]	2020_Nov_26_1017	59.93660955429486	1	0.375
3	18	FALSE	VV	a	['B', 'H', 'C', 'T', 'E', 'S', 'surprise', 'P', 'V', 'X', 'K', 'M', 'Z', 'G', 'W', 'U']	[760, 986, 829, 1888, 904, 1731, 'stimAuditory/all_stimAuditory/224.wav', 1456, 2245, 4000, 1122, 1224, 2911, 944, 2448, 2059]	10	Present	NA	NA	ABSENT	0.6524930000305176	103.95987200737	105.97140312194824	106.78807670270704	107.13807861003566	110.08210396766664	4.110700845718384	[103.97336506843567, 104.0902669429779, 105.06542801856995, 105.24143290519714, 105.99219703674316, 106.10903191566467, 106.22583603858948, 106.34267902374268, 106.45937299728394, 106.57615804672241, 106.69278907775879, 106.80965209007263, 106.92651700973511, 107.04322504997253, 107.16001987457275, 107.27685499191284, 107.39377093315125, 107.51048398017883, 107.62719106674194, 107.74418687820435, 107.86084699630737, 108.08210396766663]	[103.97823523875499, 104.09490190541499, 105.07790190541499, 105.244601905415, 105.994601905415, 106.11126857207499, 106.22793523873499, 106.34460190539498, 106.46126857205498, 106.57793523871497, 106.69460190537497, 106.81126857203496, 106.92793523869496, 107.04460190535495, 107.16126857201495, 107.27793523867494, 107.39460190533494, 107.51126857199493, 107.62793523865493, 107.74460190531492, 107.86126857197492, 108.09460190530825]	2020_Nov_26_1017	59.93660955429486	1	0.375
3	19	FALSE	NA	a	['K', 'V', 'E', 'Z', 'U', 'B', 'J', 'P', 'M', 'A', 'G', 'Y', 'X', 'R', 'C', 'W']	[1122, 2245, 904, 2911, 2059, 760, 1029, 1456, 1224, 697, 944, 2670, 4000, 1587, 829, 2448]	13	Present	NA	NA	PRESENT	0.4570760726928711	110.08316397666933	112.08771800994872	113.2543927827804	113.60439469010905	116.19846987724304	4.1107518672943115	[110.09666800498962, 110.21318197250366, 111.18179607391357, 111.36464810371399, 112.1155469417572, 112.23219203948975, 112.3490960597992, 112.46580600738525, 112.58241891860962, 112.69927597045898, 112.81599998474121, 112.93295502662659, 113.04972791671753, 113.16652703285217, 113.28316688537598, 113.40006399154663, 113.51684308052063, 113.63355207443237, 113.7505259513855, 113.86728405952454, 113.98399996757507, 114.19847106933594]	[110.09460190530825, 110.21126857196825, 111.19426857196825, 111.36096857196826, 112.11096857196826, 112.22763523862825, 112.34430190528825, 112.46096857194824, 112.57763523860824, 112.69430190526823, 112.81096857192823, 112.92763523858822, 113.04430190524822, 113.16096857190821, 113.27763523856821, 113.3943019052282, 113.5109685718882, 113.6276352385482, 113.74430190520819, 113.86096857186818, 113.97763523852818, 114.21096857186151]	2020_Nov_26_1017	59.93660955429486	1	0.375
3	20	FALSE	NN	a	['G', 'M', 'N', 'V', 'R', 'A', 'E', 'P', 'T', 'Z', 'B', 'W', 'S', 'Y', 'K', 'U']	[944, 1224, 1335, 2245, 1587, 697, 904, 1456, 1888, 2911, 760, 2448, 1731, 2670, 1122, 2059]	12	Absent	NA	NA	ABSENT	0.41434693336486816	116.20633006095886	118.20428204536438	119.25428991311747	119.6042920588647	122.31483793258668	4.11055588722229	[116.21982192993164, 116.3366310596466, 117.29816198348999, 117.47094106674194, 118.23846697807312, 118.3385329246521, 118.45556592941284, 118.57233095169067, 118.68909192085266, 118.80558109283447, 118.92245602607727, 119.03922009468079, 119.15626287460327, 119.27307987213135, 119.38981509208679, 119.50641894340515, 119.62337803840637, 119.74013090133667, 119.85695886611938, 119.97370791435242, 120.09036087989807, 120.31483697891235]	[116.21096857186151, 116.32763523852151, 117.31063523852151, 117.47733523852152, 118.22733523852152, 118.34400190518151, 118.46066857184151, 118.5773352385015, 118.6940019051615, 118.8106685718215, 118.92733523848149, 119.04400190514149, 119.16066857180148, 119.27733523846148, 119.39400190512147, 119.51066857178147, 119.62733523844146, 119.74400190510146, 119.86066857176145, 119.97733523842145, 120.09400190508144, 120.32733523841478]	2020_Nov_26_1017	59.93660955429486	1	0.375
3	21	FALSE	NV	a	['T', 'R', 'Z', 'C', 'E', 'Y', 'H', 'X', 'P', 'A', 'M', 'W', 'U', 'J', 'N', 'B']	[1888, 1587, 2911, 829, 904, 2670, 986, 4000, 1456, 697, 1224, 2448, 2059, 1029, 1335, 760]	8	Present	NA	NA	PRESENT	0.2348918914794922	122.31305694580078	124.32031798362732	124.903659423159	125.25366133048765	128.43120288848877	4.11088490486145	[122.32655000686646, 122.44285988807678, 123.4145278930664, 123.59427499771118, 124.3449490070343, 124.4618330001831, 124.5784330368042, 124.69531106948853, 124.81210803985596, 124.92894792556763, 125.04579496383667, 125.16247200965881, 125.27916097640991, 125.39611005783081, 125.5128710269928, 125.62977600097656, 125.74646186828613, 125.86319589614868, 125.98000192642212, 126.09685802459717, 126.21363997459412, 126.43120288848877]	[122.32733523841478, 122.44400190507477, 123.42700190507477, 123.59370190507478, 124.34370190507478, 124.46036857173478, 124.57703523839477, 124.69370190505477, 124.81036857171476, 124.92703523837476, 125.04370190503475, 125.16036857169475, 125.27703523835474, 125.39370190501474, 125.51036857167473, 125.62703523833473, 125.74370190499472, 125.86036857165472, 125.97703523831471, 126.09370190497471, 126.2103685716347, 126.44370190496804]	2020_Nov_26_1017	59.93660955429486	1	0.375
3	22	FALSE	NN	a	['Y', 'T', 'W', 'B', 'E', 'P', 'V', 'U', 'C', 'H', 'G', 'A', 'R', 'Z', 'S', 'K']	[2670, 1888, 2448, 760, 904, 1456, 2245, 2059, 829, 986, 944, 697, 1587, 2911, 1731, 1122]	10	Absent	NA	NA	ABSENT	0.4803769588470459	128.43586993217468	130.43686413764954	131.25353962575696	131.6035405794113	134.5475709438324	4.110706806182861	[128.44936203956604, 128.5660879611969, 129.53089690208435, 129.71737694740295, 130.46817708015442, 130.5850260257721, 130.7017719745636, 130.81837606430054, 130.93528294563293, 131.05204892158508, 131.1689329147339, 131.28575205802917, 131.38556599617004, 131.50243401527405, 131.61914992332458, 131.7362539768219, 131.85285687446594, 131.9695999622345, 132.08639192581177, 132.20313906669617, 132.31999802589417, 132.54756999015808]	[128.44370190496804, 128.56036857162803, 129.54336857162804, 129.71006857162803, 130.46006857162803, 130.57673523828802, 130.69340190494802, 130.810068571608, 130.926735238268, 131.043401904928, 131.160068571588, 131.276735238248, 131.393401904908, 131.51006857156798, 131.62673523822798, 131.74340190488797, 131.86006857154797, 131.97673523820797, 132.09340190486796, 132.21006857152796, 132.32673523818795, 132.56006857152127]	2020_Nov_26_1017	59.93660955429486	1	0.375
3	23	FALSE	NV	a	['W', 'P', 'V', 'H', 'K', 'T', 'Z', 'U', 'N', 'M', 'C', 'Y', 'X', 'G', 'J', 'B']	[2448, 1456, 2245, 986, 1122, 1888, 2911, 2059, 1335, 1224, 829, 2670, 4000, 944, 1029, 760]	13	Present	NA	NA	PRESENT	0.25279903411865234	134.5423140525818	136.55318307876587	137.71985665950467	138.06985880525187	140.6639380455017	4.11075496673584	[134.55580687522888, 134.67276000976562, 135.64726305007935, 135.82388997077942, 136.57457089424133, 136.69129395484924, 136.80832290649414, 136.9248878955841, 137.04186010360718, 137.15861701965332, 137.27546906471252, 137.39215207099915, 137.508887052536, 137.62573289871216, 137.74241995811462, 137.859356880188, 137.97610902786255, 138.0929319858551, 138.2094919681549, 138.32651090621948, 138.44322109222412, 138.6639380455017]	[134.56006857152127, 134.67673523818127, 135.65973523818127, 135.82643523818126, 136.57643523818126, 136.69310190484126, 136.80976857150125, 136.92643523816125, 137.04310190482124, 137.15976857148124, 137.27643523814123, 137.39310190480123, 137.50976857146122, 137.62643523812122, 137.7431019047812, 137.8597685714412, 137.9764352381012, 138.0931019047612, 138.2097685714212, 138.3264352380812, 138.44310190474118, 138.6764352380745]	2020_Nov_26_1017	59.93660955429486	1	0.375
3	24	FALSE	AV	a	['W', 'Z', 'E', 'H', 'C', 'V', 'K', 'S', 'U', 'Y', 'surprise', 'M', 'B', 'X', 'G', 'J']	[2448, 2911, 904, 986, 829, 2245, 1122, 1731, 2059, 2670, 'stimAuditory/all_stimAuditory/206.wav', 1224, 760, 4000, 944, 1029]	14	Present	stimAuditory/all_stimAuditory/216.wav	NA	ABSENT	0.625234842300415	140.66562604904175	142.66964292526245	143.95298436475414	144.30298627208276	146.7803030014038	4.110660076141357	[140.67913103103638, 140.7957570552826, 141.76362895965576, 141.9472758769989, 142.69770789146423, 142.81468200683594, 142.93149209022522, 143.04820108413696, 143.164813041687, 143.281800031662, 143.39850187301636, 143.5157458782196, 143.63214588165283, 143.74887108802795, 143.8657259941101, 143.98242807388306, 144.0993049144745, 144.21609497070312, 144.3328878879547, 144.44974303245544, 144.566477060318, 144.7803030014038]	[140.6764352380745, 140.7931019047345, 141.7761019047345, 141.9428019047345, 142.6928019047345, 142.8094685713945, 142.92613523805448, 143.04280190471448, 143.15946857137448, 143.27613523803447, 143.39280190469447, 143.50946857135446, 143.62613523801446, 143.74280190467445, 143.85946857133445, 143.97613523799444, 144.09280190465444, 144.20946857131443, 144.32613523797443, 144.44280190463442, 144.55946857129442, 144.79280190462774]	2020_Nov_26_1017	59.93660955429486	1	0.375
3	25	FALSE	NA	a	['K', 'V', 'W', 'U', 'R', 'C', 'Z', 'H', 'E', 'B', 'J', 'S', 'X', 'Y', 'P', 'A']	[1122, 2245, 2448, 2059, 1587, 829, 2911, 986, 904, 760, 1029, 1731, 4000, 2670, 1456, 697]	13	Present	NA	NA	PRESENT	0.4386410713195801	146.7885160446167	148.7858190536499	149.95249358806302	150.30249573381022	152.89667105674744	4.110852003097534	[146.8020088672638, 146.9020938873291, 147.87999486923218, 148.05358409881592, 148.8040509223938, 148.9209189414978, 149.03790497779846, 149.1544849872589, 149.27151489257812, 149.38814187049866, 149.50578904151917, 149.62171602249146, 149.73836302757263, 149.8553750514984, 149.97213506698608, 150.08895206451416, 150.20553398132324, 150.3225998878479, 150.43922996520996, 150.55616688728333, 150.67300391197205, 150.89667010307312]	[146.79280190462774, 146.90946857128773, 147.89246857128774, 148.05916857128773, 148.80916857128773, 148.92583523794772, 149.04250190460772, 149.1591685712677, 149.2758352379277, 149.3925019045877, 149.5091685712477, 149.6258352379077, 149.7425019045677, 149.85916857122768, 149.97583523788768, 150.09250190454767, 150.20916857120767, 150.32583523786766, 150.44250190452766, 150.55916857118766, 150.67583523784765, 150.90916857118097]	2020_Nov_26_1017	59.93660955429486	1	0.375
3	26	FALSE	NA	a	['P', 'U', 'R', 'C', 'B', 'E', 'K', 'Y', 'X', 'W', 'T', 'V', 'N', 'J', 'H', 'A']	[1456, 2059, 1587, 829, 760, 904, 1122, 2670, 4000, 2448, 1888, 2245, 1335, 1029, 986, 697]	9	Present	NA	NA	PRESENT	0.02732205390930175	152.8954679965973	154.90225791931152	155.6022660255032	155.95226793283186	159.01303791999817	4.1107800006866455	[152.90896105766296, 153.02524995803833, 153.9963619709015, 154.17665004730225, 154.92719888687134, 155.04416799545288, 155.1608760356903, 155.27783107757568, 155.3944308757782, 155.51145601272583, 155.62814092636108, 155.74503302574158, 155.8617250919342, 155.97857689857483, 156.09522008895874, 156.2120978832245, 156.32889199256897, 156.44570899009705, 156.56244802474976, 156.67928099632263, 156.79616403579712, 157.01303791999817]	[152.90916857118097, 153.02583523784097, 154.00883523784097, 154.17553523784096, 154.92553523784096, 155.04220190450096, 155.15886857116095, 155.27553523782095, 155.39220190448094, 155.50886857114094, 155.62553523780093, 155.74220190446093, 155.85886857112092, 155.97553523778092, 156.0922019044409, 156.2088685711009, 156.3255352377609, 156.4422019044209, 156.5588685710809, 156.6755352377409, 156.79220190440088, 157.0255352377342]	2020_Nov_26_1017	59.93660955429486	1	0.375
3	27	FALSE	NV	a	['H', 'Z', 'S', 'J', 'Y', 'U', 'R', 'N', 'X', 'B', 'M', 'A', 'C', 'E', 'K', 'W']	[986, 2911, 1731, 1029, 2670, 2059, 1587, 1335, 4000, 760, 1224, 697, 829, 904, 1122, 2448]	9	Present	NA	NA	PRESENT	0.15252900123596191	159.01826405525208	161.01866793632507	161.71867604251676	162.0686779498454	165.12940287590027	4.110734939575195	[159.03175687789917, 159.14854192733765, 160.11273002624512, 160.29981994628906, 161.0505928993225, 161.1504249572754, 161.26725506782532, 161.38415503501892, 161.50105595588684, 161.61776995658875, 161.73448991775513, 161.8512840270996, 161.96810007095337, 162.08488392829895, 162.20155096054077, 162.31839609146118, 162.4352068901062, 162.55198192596436, 162.66876602172852, 162.78605389595032, 162.902587890625, 163.12940406799316]	[159.0255352377342, 159.1422019043942, 160.1252019043942, 160.2919019043942, 161.0419019043942, 161.1585685710542, 161.27523523771418, 161.39190190437418, 161.50856857103417, 161.62523523769417, 161.74190190435417, 161.85856857101416, 161.97523523767416, 162.09190190433415, 162.20856857099415, 162.32523523765414, 162.44190190431414, 162.55856857097413, 162.67523523763413, 162.79190190429412, 162.90856857095412, 163.14190190428744]	2020_Nov_26_1017	59.93660955429486	1	0.375
3	28	FALSE	AV	a	['W', 'M', 'K', 'N', 'P', 'Z', 'V', 'T', 'H', 'U', 'surprise', 'G', 'A', 'X', 'E', 'Y']	[2448, 1224, 1122, 1335, 1456, 2911, 2245, 1888, 986, 2059, 'stimAuditory/all_stimAuditory/117.wav', 944, 697, 4000, 904, 2670]	14	Present	stimAuditory/all_stimAuditory/224.wav	NA	ABSENT	0.31714296340942383	165.1247730255127	167.13511991500854	168.41846040082592	168.76846326182886	171.2457709312439	4.110651016235352	[165.13826489448547, 165.25495100021362, 166.2290940284729, 166.40629887580872, 167.15704488754272, 167.27370500564575, 167.3905439376831, 167.50746607780457, 167.62430500984192, 167.7410650253296, 167.85785293579102, 167.97469997406006, 168.09142899513245, 168.20808291435242, 168.32497787475586, 168.4416630268097, 168.55837488174438, 168.675302028656, 168.79193687438965, 168.90891194343567, 169.02563309669495, 169.24576997756958]	[165.14190190428744, 165.25856857094743, 166.24156857094744, 166.40826857094743, 167.15826857094743, 167.27493523760742, 167.39160190426742, 167.5082685709274, 167.6249352375874, 167.7416019042474, 167.8582685709074, 167.9749352375674, 168.0916019042274, 168.20826857088738, 168.32493523754738, 168.44160190420737, 168.55826857086737, 168.67493523752736, 168.79160190418736, 168.90826857084735, 169.02493523750735, 169.25826857084067]	2020_Nov_26_1017	59.93660955429486	1	0.375
3	29	FALSE	NN	a	['Y', 'T', 'R', 'B', 'J', 'S', 'M', 'V', 'P', 'E', 'H', 'W', 'U', 'G', 'Z', 'C']	[2670, 1888, 1587, 760, 1029, 1731, 1224, 2245, 1456, 904, 986, 2448, 2059, 944, 2911, 829]	13	Absent	NA	NA	ABSENT	0.3935809135437012	171.24785709381104	173.25126004219055	174.41793457660367	174.76793672235087	177.3621380329132	4.110877990722656	[171.2613489627838, 171.37813901901245, 172.34546303749084, 172.52934098243713, 173.28041005134583, 173.39703798294067, 173.51403903961182, 173.63043808937073, 173.74718499183655, 173.86417603492737, 173.98100590705872, 174.09777402877808, 174.2145140171051, 174.331237077713, 174.44812488555908, 174.56494092941284, 174.6816840171814, 174.7983500957489, 174.915265083313, 175.03187108039856, 175.14893889427185, 175.3621370792389]	[171.25826857084067, 171.37493523750067, 172.35793523750067, 172.52463523750066, 173.27463523750066, 173.39130190416066, 173.50796857082065, 173.62463523748065, 173.74130190414064, 173.85796857080064, 173.97463523746063, 174.09130190412063, 174.20796857078062, 174.32463523744062, 174.4413019041006, 174.5579685707606, 174.6746352374206, 174.7913019040806, 174.9079685707406, 175.0246352374006, 175.14130190406058, 175.3746352373939]	2020_Nov_26_1017	59.93660955429486	1	0.375
3	30	FALSE	NV	a	['C', 'J', 'G', 'Z', 'W', 'P', 'A', 'U', 'K', 'S', 'M', 'X', 'V', 'N', 'T', 'B']	[829, 1029, 944, 2911, 2448, 1456, 697, 2059, 1122, 1731, 1224, 4000, 2245, 1335, 1888, 760]	12	Present	NA	NA	PRESENT	0.5829389095306396	177.37110805511475	179.36743211746216	180.41743903154097	180.7674409388696	183.4785039424896	4.111071825027466	[177.38460087776184, 177.48448300361633, 178.46182894706726, 178.63591289520264, 179.38645100593567, 179.5033700466156, 179.62031388282776, 179.73693704605103, 179.85387897491455, 179.9705879688263, 180.08746695518494, 180.20427894592285, 180.32108187675476, 180.4378559589386, 180.5547480583191, 180.6713969707489, 180.78804206848145, 180.9049289226532, 181.02169799804688, 181.13861203193665, 181.2553460597992, 181.4785029888153]	[177.3746352373939, 177.4913019040539, 178.4743019040539, 178.6410019040539, 179.3910019040539, 179.5076685707139, 179.62433523737388, 179.74100190403388, 179.85766857069387, 179.97433523735387, 180.09100190401386, 180.20766857067386, 180.32433523733386, 180.44100190399385, 180.55766857065385, 180.67433523731384, 180.79100190397384, 180.90766857063383, 181.02433523729383, 181.14100190395382, 181.25766857061382, 181.49100190394714]	2020_Nov_26_1017	59.93660955429486	1	0.375
3	31	FALSE	NN	a	['W', 'K', 'B', 'T', 'H', 'Y', 'U', 'N', 'S', 'M', 'Z', 'E', 'P', 'J', 'V', 'R']	[2448, 1122, 760, 1888, 986, 2670, 2059, 1335, 1731, 1224, 2911, 904, 1456, 1029, 2245, 1587]	12	Absent	NA	NA	ABSENT	0.6675350666046143	183.4777519702911	185.48408699035645	186.53409390443525	186.88409605018245	189.59487009048465	4.110783100128174	[183.4912440776825, 183.60780692100525, 184.57819390296936, 184.75916409492493, 185.50983786582947, 185.62659287452698, 185.7433099746704, 185.86019587516785, 185.9770588874817, 186.09382104873657, 186.21065497398376, 186.32738304138184, 186.44411706924438, 186.56099200248718, 186.67762088775635, 186.7946379184723, 186.9111099243164, 187.02802300453186, 187.14485096931458, 187.2616240978241, 187.3784999847412, 187.59487104415894]	[183.49100190394714, 183.60766857060713, 184.59066857060714, 184.75736857060713, 185.50736857060713, 185.62403523726712, 185.74070190392712, 185.8573685705871, 185.9740352372471, 186.0907019039071, 186.2073685705671, 186.3240352372271, 186.4407019038871, 186.55736857054708, 186.67403523720708, 186.79070190386707, 186.90736857052707, 187.02403523718706, 187.14070190384706, 187.25736857050705, 187.37403523716705, 187.60736857050037]	2020_Nov_26_1017	59.93660955429486	1	0.375
3	32	FALSE	NN	a	['S', 'M', 'K', 'C', 'H', 'Z', 'U', 'T', 'Y', 'V', 'A', 'G', 'B', 'N', 'J', 'R']	[1731, 1224, 1122, 829, 986, 2911, 2059, 1888, 2670, 2245, 697, 944, 760, 1335, 1029, 1587]	10	Absent	NA	NA	ABSENT	0.6008541584014893	189.60071301460263	191.60062408447263	192.41729766523144	192.7672995725601	195.71123790740967	4.110613822937012	[189.61420488357544, 189.7310528755188, 190.69456005096436, 190.88220596313477, 191.63289499282837, 191.73297595977783, 191.84969305992126, 191.96656107902527, 192.08335995674133, 192.20005702972412, 192.3169538974762, 192.4337830543518, 192.5504961013794, 192.66734290122986, 192.78450989723206, 192.90097999572754, 193.0176920890808, 193.13451194763184, 193.25137591362, 193.36809492111206, 193.48486495018005, 193.71123790740967]	[189.60736857050037, 189.72403523716036, 190.70703523716037, 190.87373523716036, 191.62373523716036, 191.74040190382036, 191.85706857048035, 191.97373523714035, 192.09040190380034, 192.20706857046034, 192.32373523712033, 192.44040190378033, 192.55706857044032, 192.67373523710032, 192.7904019037603, 192.9070685704203, 193.0237352370803, 193.1404019037403, 193.2570685704003, 193.3737352370603, 193.49040190372028, 193.7237352370536]	2020_Nov_26_1017	59.93660955429486	1	0.375
3	33	FALSE	NA	a	['T', 'A', 'R', 'S', 'V', 'W', 'E', 'G', 'K', 'Z', 'X', 'M', 'U', 'H', 'C', 'N']	[1888, 697, 1587, 1731, 2245, 2448, 904, 944, 1122, 2911, 4000, 1224, 2059, 986, 829, 1335]	11	Present	NA	NA	PRESENT	0.39722585678100586	195.7072069644928	197.71675992012024	198.65010231330623	199.00010541272775	201.82760405540463	4.110844135284424	[195.72070002555847, 195.83741402626038, 196.8109269142151, 196.98849296569824, 197.73943495750427, 197.85632991790771, 197.97307205200195, 198.0899019241333, 198.20645809173584, 198.32347798347473, 198.44025707244873, 198.55701303482056, 198.673672914505, 198.7906301021576, 198.90741896629333, 199.02448892593384, 199.14095497131348, 199.2578558921814, 199.3745141029358, 199.49119687080383, 199.60816192626953, 199.82760310173035]	[195.7237352370536, 195.8404019037136, 196.8234019037136, 196.9901019037136, 197.7401019037136, 197.8567685703736, 197.97343523703358, 198.09010190369358, 198.20676857035357, 198.32343523701357, 198.44010190367356, 198.55676857033356, 198.67343523699356, 198.79010190365355, 198.90676857031355, 199.02343523697354, 199.14010190363354, 199.25676857029353, 199.37343523695353, 199.49010190361352, 199.60676857027352, 199.84010190360684]	2020_Nov_26_1017	59.93660955429486	1	0.375
3	34	FALSE	AN	a	['E', 'S', 'P', 'B', 'V', 'Z', 'T', 'M', 'surprise', 'R', 'J', 'Y', 'U', 'A', 'G', 'K']	[904, 1731, 1456, 760, 2245, 2911, 1888, 1224, 'stimAuditory/all_stimAuditory/123.wav', 1587, 1029, 2670, 2059, 697, 944, 1122]	12	Absent	stimAuditory/all_stimAuditory/206.wav	NA	ABSENT	0.14608192443847656	201.83010697364807	203.83289003372192	204.88289813989363	205.23290004722224	207.9439709186554	4.111080884933472	[201.84360003471375, 201.96066808700562, 202.92729306221008, 203.11201190948486, 203.86253905296326, 203.97943687438965, 204.09614896774292, 204.21303296089172, 204.32974410057068, 204.44667792320251, 204.56321907043457, 204.67999386787415, 204.79699397087097, 204.91373705863953, 205.03051805496216, 205.14732789993286, 205.26420903205872, 205.38088202476501, 205.4977240562439, 205.6142590045929, 205.73110103607178, 205.94396996498108]	[201.84010190360684, 201.95676857026683, 202.93976857026684, 203.10646857026683, 203.85646857026683, 203.97313523692682, 204.08980190358682, 204.2064685702468, 204.3231352369068, 204.4398019035668, 204.5564685702268, 204.6731352368868, 204.7898019035468, 204.90646857020678, 205.02313523686678, 205.13980190352677, 205.25646857018677, 205.37313523684676, 205.48980190350676, 205.60646857016675, 205.72313523682675, 205.95646857016007]	2020_Nov_26_1017	59.93660955429486	1	0.375
3	35	FALSE	NV	a	['H', 'P', 'E', 'M', 'S', 'K', 'Y', 'X', 'R', 'A', 'J', 'W', 'Z', 'G', 'T', 'N']	[986, 1456, 904, 1224, 1731, 1122, 2670, 4000, 1587, 697, 1029, 2448, 2911, 944, 1888, 1335]	8	Present	NA	NA	PRESENT	0.7832372188568115	207.93661308288577	209.9494149684906	210.532755454348	210.8827573616766	214.0603380203247	4.1109230518341064	[207.95010495185852, 208.06698489189148, 209.04366302490234, 209.21816301345825, 209.9688858985901, 210.08584809303284, 210.20262598991394, 210.31936287879944, 210.43632888793945, 210.55302906036377, 210.6699230670929, 210.78666806221008, 210.90333199501038, 211.02017188072205, 211.13709592819214, 211.25391101837158, 211.37052392959595, 211.4875409603119, 211.6040849685669, 211.72087788581848, 211.83772706985474, 212.0603380203247]	[207.95646857016007, 208.07313523682006, 209.05613523682007, 209.22283523682006, 209.97283523682006, 210.08950190348006, 210.20616857014005, 210.32283523680005, 210.43950190346004, 210.55616857012004, 210.67283523678003, 210.78950190344003, 210.90616857010002, 211.02283523676002, 211.13950190342, 211.25616857008, 211.37283523674, 211.4895019034, 211.60616857006, 211.72283523672, 211.83950190337998, 212.0728352367133]	2020_Nov_26_1017	59.93660955429486	1	0.375
3	36	FALSE	NV	a	['G', 'S', 'W', 'N', 'T', 'M', 'C', 'X', 'Z', 'P', 'U', 'E', 'J', 'K', 'A', 'H']	[944, 1731, 2448, 1335, 1888, 1224, 829, 4000, 2911, 1456, 2059, 904, 1029, 1122, 697, 986]	8	Present	NA	NA	PRESENT	0.13186883926391602	214.0599420070648	216.0659711360931	216.64931329088057	216.99931543662777	220.17670392990112	4.110732793807983	[214.0734350681305, 214.19020891189575, 215.16002798080444, 215.341392993927, 216.09213495254517, 216.20893502235413, 216.32589197158813, 216.44250297546387, 216.55938506126404, 216.6760609149933, 216.79291200637817, 216.91002202033997, 217.0266089439392, 217.14334392547607, 217.26013207435608, 217.37701201438904, 217.49383091926575, 217.6103789806366, 217.7272870540619, 217.84424209594727, 217.9608769416809, 218.17670392990112]	[214.0728352367133, 214.1895019033733, 215.1725019033733, 215.3392019033733, 216.0892019033733, 216.2058685700333, 216.32253523669328, 216.43920190335328, 216.55586857001327, 216.67253523667327, 216.78920190333326, 216.90586856999326, 217.02253523665325, 217.13920190331325, 217.25586856997325, 217.37253523663324, 217.48920190329324, 217.60586856995323, 217.72253523661323, 217.83920190327322, 217.95586856993322, 218.18920190326654]	2020_Nov_26_1017	59.93660955429486	1	0.375
3	37	FALSE	VV	a	['B', 'C', 'Y', 'A', 'S', 'J', 'surprise', 'M', 'T', 'X', 'U', 'H', 'P', 'R', 'G', 'Z']	[760, 829, 2670, 697, 1731, 1029, 'stimAuditory/all_stimAuditory/120.wav', 1224, 1888, 4000, 2059, 986, 1456, 1587, 944, 2911]	10	Present	NA	NA	ABSENT	0.1210801601409912	220.18305706977844	222.18225598335263	222.99893075620437	223.348932663533	226.29307007789612	4.110814094543457	[220.19654989242554, 220.31324791908264, 221.27639508247375, 221.44787693023682, 222.21532201766968, 222.31531691551208, 222.43216609954834, 222.54890298843384, 222.6657269001007, 222.7829349040985, 222.89932298660278, 223.01617789268494, 223.1328160762787, 223.24992203712463, 223.36647605895996, 223.48351097106934, 223.60008692741394, 223.7171070575714, 223.83385396003723, 223.95057201385498, 224.06745290756226, 224.29307007789612]	[220.18920190326654, 220.30586856992653, 221.28886856992654, 221.45556856992653, 222.20556856992653, 222.32223523658652, 222.43890190324652, 222.5555685699065, 222.6722352365665, 222.7889019032265, 222.9055685698865, 223.0222352365465, 223.1389019032065, 223.25556856986648, 223.37223523652648, 223.48890190318647, 223.60556856984647, 223.72223523650646, 223.83890190316646, 223.95556856982645, 224.07223523648645, 224.30556856981977]	2020_Nov_26_1017	59.93660955429486	1	0.375
3	38	FALSE	NA	a	['S', 'H', 'W', 'B', 'Y', 'T', 'M', 'C', 'N', 'X', 'V', 'G', 'E', 'P', 'K', 'A']	[1731, 986, 2448, 760, 2670, 1888, 1224, 829, 1335, 4000, 2245, 944, 904, 1456, 1122, 697]	10	Present	NA	NA	PRESENT	0.18965411186218264	226.28965210914612	228.2984380722046	229.1151126066377	229.46511475238492	232.40943694114685	4.110998868942261	[226.3031439781189, 226.41972088813782, 227.3927628993988, 227.57117199897766, 228.32163000106812, 228.4385530948639, 228.55548000335693, 228.672189950943, 228.78905987739563, 228.90593004226685, 229.02267599105835, 229.1395139694214, 229.2560920715332, 229.37307786941528, 229.48979592323303, 229.60649991035461, 229.72343587875366, 229.84003591537476, 229.9570288658142, 230.07377886772156, 230.19052600860596, 230.40943694114685]	[226.30556856981977, 226.42223523647976, 227.40523523647977, 227.57193523647976, 228.32193523647976, 228.43860190313976, 228.55526856979975, 228.67193523645975, 228.78860190311974, 228.90526856977974, 229.02193523643973, 229.13860190309973, 229.25526856975972, 229.37193523641972, 229.4886019030797, 229.6052685697397, 229.7219352363997, 229.8386019030597, 229.9552685697197, 230.0719352363797, 230.18860190303968, 230.421935236373]	2020_Nov_26_1017	59.93660955429486	1	0.375
3	39	FALSE	NN	a	['T', 'S', 'K', 'U', 'A', 'Z', 'Y', 'C', 'P', 'V', 'E', 'G', 'H', 'M', 'J', 'R']	[1888, 1731, 1122, 2059, 697, 2911, 2670, 829, 1456, 2245, 904, 944, 986, 1224, 1029, 1587]	8	Absent	NA	NA	ABSENT	0.1699509620666504	232.4127681255341	234.415137052536	234.998479445742	235.34848135307064	238.52580499649048	4.110667943954468	[232.42626094818115, 232.54307103157043, 233.50913095474243, 233.69452500343323, 234.4448790550232, 234.56185603141785, 234.67854189872742, 234.79546093940735, 234.9122350215912, 235.02878308296204, 235.14584398269653, 235.26255702972412, 235.37931489944458, 235.49601006507874, 235.61293005943298, 235.72956705093384, 235.8466498851776, 235.9631838798523, 236.0799798965454, 236.19696187973022, 236.31359601020813, 236.52580499649048]	[232.421935236373, 232.538601903033, 233.521601903033, 233.688301903033, 234.438301903033, 234.554968569693, 234.67163523635298, 234.78830190301298, 234.90496856967297, 235.02163523633297, 235.13830190299296, 235.25496856965296, 235.37163523631295, 235.48830190297295, 235.60496856963294, 235.72163523629294, 235.83830190295294, 235.95496856961293, 236.07163523627293, 236.18830190293292, 236.30496856959292, 236.53830190292624]	2020_Nov_26_1017	59.93660955429486	1	0.375
3	40	FALSE	VV	a	['W', 'V', 'H', 'J', 'T', 'S', 'E', 'U', 'P', 'N', 'surprise', 'R', 'C', 'X', 'M', 'B']	[2448, 2245, 986, 1029, 1888, 1731, 904, 2059, 1456, 1335, 'stimAuditory/all_stimAuditory/109.wav', 1587, 829, 4000, 1224, 760]	14	Present	NA	NA	ABSENT	0.6153130531311035	238.5190930366516	240.53155398368835	241.81489446950573	242.16489637683435	244.6421709060669	4.11061692237854	[238.5325849056244, 238.64939904212952, 239.62549591064453, 239.8008210659027, 240.55133891105652, 240.66826605796814, 240.78516006469727, 240.90191507339478, 241.01848793029785, 241.13549399375916, 241.2523329257965, 241.3690378665924, 241.4857940673828, 241.60267305374146, 241.719379901886, 241.83617210388184, 241.95285391807556, 242.0696759223938, 242.18656492233276, 242.30340099334717, 242.42020797729492, 242.64216995239258]	[238.53830190292624, 238.65496856958623, 239.63796856958623, 239.80466856958623, 240.55466856958623, 240.67133523624622, 240.78800190290622, 240.9046685695662, 241.0213352362262, 241.1380019028862, 241.2546685695462, 241.3713352362062, 241.4880019028662, 241.60466856952618, 241.72133523618618, 241.83800190284617, 241.95466856950617, 242.07133523616616, 242.18800190282616, 242.30466856948615, 242.42133523614615, 242.65466856947947]	2020_Nov_26_1017	59.93660955429486	1	0.375
3	41	FALSE	NA	a	['R', 'H', 'U', 'K', 'P', 'M', 'G', 'C', 'J', 'X', 'Y', 'S', 'A', 'V', 'N', 'E']	[1587, 986, 2059, 1122, 1456, 1224, 944, 829, 1029, 4000, 2670, 1731, 697, 2245, 1335, 904]	10	Present	NA	NA	PRESENT	0.5077841281890869	244.64238810539248	246.6476809978485	247.4643557707002	247.81435767802884	250.7585380077362	4.110857009887695	[244.65587997436523, 244.77260398864746, 245.74186086654663, 245.92383909225464, 246.67464900016785, 246.79166793823242, 246.9080889225006, 247.02484488487244, 247.14184999465942, 247.25865006446838, 247.37537097930908, 247.49209904670715, 247.60906410217285, 247.72557091712952, 247.84259605407715, 247.95922994613647, 248.07614088058472, 248.19304299354553, 248.30971097946167, 248.42633891105652, 248.5432870388031, 248.7585380077362]	[244.65466856947947, 244.77133523613946, 245.75433523613947, 245.92103523613946, 246.67103523613946, 246.78770190279945, 246.90436856945945, 247.02103523611945, 247.13770190277944, 247.25436856943944, 247.37103523609943, 247.48770190275943, 247.60436856941942, 247.72103523607942, 247.8377019027394, 247.9543685693994, 248.0710352360594, 248.1877019027194, 248.3043685693794, 248.4210352360394, 248.53770190269938, 248.7710352360327]	2020_Nov_26_1017	59.93660955429486	1	0.375
3	42	FALSE	NA	a	['V', 'N', 'E', 'A', 'Y', 'P', 'T', 'X', 'Z', 'S', 'U', 'R', 'H', 'C', 'K', 'B']	[2245, 1335, 904, 697, 2670, 1456, 1888, 4000, 2911, 1731, 2059, 1587, 986, 829, 1122, 760]	8	Present	NA	NA	PRESENT	0.6413049697875977	250.76552200317383	252.76422095298767	253.34756239251936	253.697564299848	256.8749029636383	4.110682010650635	[250.77901601791382, 250.89592790603638, 251.85822796821594, 252.03021907806396, 252.79820108413696, 252.8980040550232, 253.01474905014038, 253.13143301010132, 253.2482578754425, 253.36502695083618, 253.48184609413147, 253.59850096702576, 253.71544098854065, 253.83226490020752, 253.94906997680664, 254.06573104858398, 254.1825110912323, 254.29945397377014, 254.41609406471252, 254.53303289413452, 254.64980697631836, 254.8749029636383]	[250.7710352360327, 250.8877019026927, 251.8707019026927, 252.0374019026927, 252.7874019026927, 252.9040685693527, 253.02073523601268, 253.13740190267268, 253.25406856933267, 253.37073523599267, 253.48740190265266, 253.60406856931266, 253.72073523597265, 253.83740190263265, 253.95406856929264, 254.07073523595264, 254.18740190261263, 254.30406856927263, 254.42073523593263, 254.53740190259262, 254.65406856925262, 254.88740190258594]	2020_Nov_26_1017	59.93660955429486	1	0.375
3	43	FALSE	NV	a	['P', 'E', 'J', 'A', 'N', 'K', 'U', 'R', 'S', 'M', 'T', 'H', 'X', 'C', 'W', 'G']	[1456, 904, 1029, 697, 1335, 1122, 2059, 1587, 1731, 1224, 1888, 986, 4000, 829, 2448, 944]	13	Present	NA	NA	PRESENT	0.4295921325683594	256.87201404571533	258.88035798072815	260.04703275355985	260.3970346608885	262.9912700653076	4.110912084579468	[256.8855068683624, 257.0023789405823, 257.97459292411804, 258.1535589694977, 258.904305934906, 259.02113008499146, 259.13790702819824, 259.25461196899414, 259.37141489982605, 259.488156080246, 259.6049180030823, 259.7218680381775, 259.8386080265045, 259.9554719924927, 260.07220005989075, 260.18886399269104, 260.30574107170105, 260.4224920272827, 260.5393419265747, 260.65615701675415, 260.77289509773254, 260.9912700653076]	[256.8874019025859, 257.00406856924593, 257.98706856924593, 258.1537685692459, 258.9037685692459, 259.02043523590595, 259.137101902566, 259.253768569226, 259.370435235886, 259.48710190254604, 259.60376856920607, 259.7204352358661, 259.8371019025261, 259.95376856918614, 260.07043523584616, 260.1871019025062, 260.3037685691662, 260.42043523582623, 260.53710190248626, 260.6537685691463, 260.7704352358063, 261.00376856913965]	2020_Nov_26_1017	59.93660955429486	1	0.375
3	44	FALSE	NA	a	['U', 'N', 'P', 'H', 'R', 'C', 'T', 'X', 'A', 'J', 'V', 'M', 'G', 'Z', 'Y', 'W']	[2059, 1335, 1456, 986, 1587, 829, 1888, 4000, 697, 1029, 2245, 1224, 944, 2911, 2670, 2448]	8	Present	NA	NA	PRESENT	0.6192920207977295	262.9954330921173	264.99700593948364	265.58034737901534	265.930349286344	269.10763692855835	4.110630989074707	[263.0089268684387, 263.12530303001404, 264.090961933136, 264.2766799926758, 265.02734208106995, 265.1441969871521, 265.2610330581665, 265.3779249191284, 265.494549036026, 265.61143708229065, 265.7280480861664, 265.84488010406494, 265.9617440700531, 266.07862091064453, 266.19522500038147, 266.31216406822205, 266.42903995513916, 266.54582810401917, 266.64562702178955, 266.7624499797821, 266.8792359828949, 267.10763692855835]	[263.00376856913965, 263.1204352357997, 264.1034352357997, 264.27013523579967, 265.02013523579967, 265.1368019024597, 265.2534685691197, 265.37013523577974, 265.48680190243977, 265.6034685690998, 265.7201352357598, 265.83680190241984, 265.95346856907986, 266.0701352357399, 266.1868019023999, 266.30346856905993, 266.42013523571995, 266.53680190238, 266.65346856904, 266.7701352357, 266.88680190236005, 267.1201352356934]	2020_Nov_26_1017	59.93660955429486	1	0.375
3	45	FALSE	AV	a	['Y', 'Z', 'C', 'J', 'P', 'N', 'M', 'W', 'V', 'H', 'surprise', 'G', 'B', 'X', 'R', 'E']	[2670, 2911, 829, 1029, 1456, 1335, 1224, 2448, 2245, 986, 'stimAuditory/all_stimAuditory/103.wav', 944, 760, 4000, 1587, 904]	14	Present	stimAuditory/all_stimAuditory/117.wav	NA	PRESENT	0.9914801120758056	269.10156512260437	271.1131589412689	272.3965003807606	272.74650228808923	275.224004983902	4.110846042633057	[269.11505699157715, 269.2317659854889, 270.2073290348053, 270.38309693336487, 271.1338200569153, 271.25087094306946, 271.36743903160095, 271.4844219684601, 271.60091495513916, 271.7178590297699, 271.8345310688019, 271.9512848854065, 272.0683169364929, 272.18503403663635, 272.30179500579834, 272.4186770915985, 272.5353229045868, 272.65231704711914, 272.76919889450073, 272.88586592674255, 273.002552986145, 273.22400403022766]	[269.1201352356934, 269.2368019023534, 270.2198019023534, 270.3865019023534, 271.1365019023534, 271.25316856901344, 271.36983523567346, 271.4865019023335, 271.6031685689935, 271.71983523565353, 271.83650190231356, 271.9531685689736, 272.0698352356336, 272.1865019022936, 272.30316856895365, 272.4198352356137, 272.5365019022737, 272.6531685689337, 272.76983523559375, 272.88650190225377, 273.0031685689138, 273.23650190224714]	2020_Nov_26_1017	59.93660955429486	1	0.375
3	46	FALSE	NA	a	['M', 'A', 'G', 'U', 'R', 'P', 'K', 'B', 'Z', 'N', 'X', 'E', 'V', 'Y', 'H', 'C']	[1224, 697, 944, 2059, 1587, 1456, 1122, 760, 2911, 1335, 4000, 904, 2245, 2670, 986, 829]	11	Present	NA	NA	PRESENT	0.26024699211120605	275.22471499443054	277.22970700263977	278.1630484421515	278.51305034948007	281.3403699398041	4.110662937164307	[275.23820900917053, 275.3551170825958, 276.3236939907074, 276.5063409805298, 277.2571840286255, 277.3739640712738, 277.490758895874, 277.60751605033875, 277.7242078781128, 277.8409209251404, 277.9577989578247, 278.07469391822815, 278.19139790534973, 278.3080599308014, 278.42487692832947, 278.54175305366516, 278.65869903564453, 278.77530789375305, 278.8921699523926, 279.0093820095062, 279.12582206726074, 279.34036898612976]	[275.23650190224714, 275.35316856890717, 276.33616856890717, 276.50286856890716, 277.25286856890716, 277.3695352355672, 277.4862019022272, 277.60286856888723, 277.71953523554726, 277.8362019022073, 277.9528685688673, 278.0695352355273, 278.18620190218735, 278.3028685688474, 278.4195352355074, 278.5362019021674, 278.65286856882744, 278.76953523548747, 278.8862019021475, 279.0028685688075, 279.11953523546754, 279.3528685688009]	2020_Nov_26_1017	59.93660955429486	1	0.375
3	47	FALSE	NV	a	['M', 'S', 'V', 'K', 'U', 'G', 'W', 'X', 'H', 'J', 'A', 'N', 'C', 'B', 'R', 'Y']	[1224, 1731, 2245, 1122, 2059, 944, 2448, 4000, 986, 1029, 697, 1335, 829, 760, 1587, 2670]	8	Present	NA	NA	PRESENT	0.09743785858154295	281.34800910949707	283.34588503837585	283.92922623948897	284.2792283852362	287.4567379951477	4.110852956771851	[281.36150097846985, 281.478364944458, 282.440062046051, 282.6126480102539, 283.38052797317505, 283.4804530143738, 283.59704399108887, 283.7139780521393, 283.8306419849396, 283.94755697250366, 284.06417894363403, 284.18108892440796, 284.29796290397644, 284.4146568775177, 284.5313539505005, 284.6482810974121, 284.7649829387665, 284.8816990852356, 284.9985010623932, 285.11548590660095, 285.23216009140015, 285.4567370414734]	[281.3528685688009, 281.4695352354609, 282.4525352354609, 282.6192352354609, 283.3692352354609, 283.48590190212093, 283.60256856878095, 283.719235235441, 283.835901902101, 283.952568568761, 284.06923523542105, 284.18590190208107, 284.3025685687411, 284.4192352354011, 284.53590190206114, 284.65256856872116, 284.7692352353812, 284.8859019020412, 285.00256856870124, 285.11923523536126, 285.2359019020213, 285.46923523535463]	2020_Nov_26_1017	59.93660955429486	1	0.375
3	48	FALSE	NV	a	['E', 'W', 'K', 'R', 'U', 'Z', 'T', 'Y', 'X', 'N', 'G', 'C', 'B', 'J', 'P', 'A']	[904, 2448, 1122, 1587, 2059, 2911, 1888, 2670, 4000, 1335, 944, 829, 760, 1029, 1456, 697]	9	Present	NA	NA	PRESENT	0.04609894752502441	287.4543490409851	289.4624021053314	290.16240901943024	290.51241092675883	293.5731039047241	4.1107017993927	[287.4678409099579, 287.5848388671875, 288.5564270019531, 288.7358510494232, 289.4866008758545, 289.60354709625244, 289.720321893692, 289.8371958732605, 289.95391297340393, 290.07072401046753, 290.18736505508423, 290.30425000190735, 290.4209260940552, 290.53773403167725, 290.6546149253845, 290.7713289260864, 290.88823199272156, 291.00497794151306, 291.1218478679657, 291.2384879589081, 291.35534405708313, 291.5731039047241]	[287.46923523535463, 287.58590190201465, 288.56890190201466, 288.73560190201465, 289.48560190201465, 289.6022685686747, 289.7189352353347, 289.8356019019947, 289.95226856865474, 290.06893523531477, 290.1856019019748, 290.3022685686348, 290.41893523529484, 290.53560190195486, 290.6522685686149, 290.7689352352749, 290.88560190193493, 291.00226856859496, 291.118935235255, 291.235601901915, 291.352268568575, 291.5856019019084]	2020_Nov_26_1017	59.93660955429486	1	0.375
3	49	FALSE	AA	a	['Y', 'E', 'P', 'Z', 'N', 'surprise', 'A', 'H', 'X', 'C', 'J', 'M', 'K', 'W', 'T', 'B']	[2670, 904, 1456, 2911, 1335, 'stimAuditory/all_stimAuditory/122.wav', 697, 986, 4000, 829, 1029, 1224, 1122, 2448, 1888, 760]	9	Present	stimAuditory/all_stimAuditory/123.wav	NA	ABSENT	0.4675271511077881	293.5777621269226	295.5785140991211	296.27852196689423	296.6285229205485	299.68947100639343	4.110956907272339	[293.5912539958954, 293.7078859806061, 294.67279601097107, 294.859179019928, 295.60980796813965, 295.7266879081726, 295.84339904785156, 295.96017599105835, 296.07707691192627, 296.19398307800293, 296.3106849193573, 296.42731499671936, 296.54425501823425, 296.644170999527, 296.7608618736267, 296.8776800632477, 296.99461007118225, 297.11135506629944, 297.22809290885925, 297.3448920249939, 297.4616959095001, 297.68947100639343]	[293.5856019019084, 293.7022685685684, 294.6852685685684, 294.8519685685684, 295.6019685685684, 295.7186352352284, 295.83530190188844, 295.95196856854847, 296.0686352352085, 296.1853019018685, 296.30196856852854, 296.41863523518856, 296.5353019018486, 296.6519685685086, 296.76863523516863, 296.88530190182865, 297.0019685684887, 297.1186352351487, 297.2353019018087, 297.35196856846875, 297.4686352351288, 297.7019685684621]	2020_Nov_26_1017	59.93660955429486	1	0.375
3	50	FALSE	NV	a	['B', 'H', 'J', 'W', 'V', 'Z', 'U', 'R', 'P', 'E', 'X', 'Y', 'G', 'N', 'T', 'K']	[760, 986, 1029, 2448, 2245, 2911, 2059, 1587, 1456, 904, 4000, 2670, 944, 1335, 1888, 1122]	11	Present	NA	NA	PRESENT	0.735990047454834	299.6839179992676	301.69511103630066	302.6284522373938	302.97845438314096	305.80583691596985	4.1107258796691895	[299.69741106033325, 299.8143980503082, 300.7891628742218, 300.9653220176697, 301.71622610092163, 301.8331480026245, 301.9498698711395, 302.0668258666992, 302.18352794647217, 302.3003840446472, 302.41706800460815, 302.5337860584259, 302.6506369113922, 302.76765489578247, 302.88418793678284, 303.00105690956116, 303.1179139614105, 303.2346169948578, 303.35150694847107, 303.46812987327576, 303.58505392074585, 303.80583691596985]	[299.7019685684621, 299.81863523512214, 300.80163523512215, 300.96833523512214, 301.71833523512214, 301.83500190178216, 301.9516685684422, 302.0683352351022, 302.18500190176223, 302.30166856842226, 302.4183352350823, 302.5350019017423, 302.65166856840233, 302.76833523506235, 302.8850019017224, 303.0016685683824, 303.1183352350424, 303.23500190170245, 303.35166856836247, 303.4683352350225, 303.5850019016825, 303.81833523501587]	2020_Nov_26_1017	59.93660955429486	1	0.375
3	51	FALSE	NV	a	['R', 'G', 'T', 'H', 'K', 'C', 'E', 'M', 'X', 'N', 'B', 'S', 'Z', 'U', 'A', 'J']	[1587, 944, 1888, 986, 1122, 829, 904, 1224, 4000, 1335, 760, 1731, 2911, 2059, 697, 1029]	9	Present	NA	NA	PRESENT	0.30849599838256836	305.8071620464325	307.81146693229675	308.51147408481415	308.86147599214274	311.92220401763916	4.110737085342407	[305.8206560611725, 305.93741106987, 306.9055290222168, 307.0887439250946, 307.8394799232483, 307.9563019275665, 308.0731770992279, 308.1898190975189, 308.30667090415955, 308.42352199554443, 308.54035091400146, 308.6571080684662, 308.7739050388336, 308.8905019760132, 309.0073330402374, 309.12417793273926, 309.2409439086914, 309.35792803764343, 309.4746239185333, 309.5914030075073, 309.70818400382996, 309.92220401763916]	[305.81833523501587, 305.9350019016759, 306.9180019016759, 307.0847019016759, 307.8347019016759, 307.9513685683359, 308.06803523499593, 308.18470190165596, 308.301368568316, 308.418035234976, 308.534701901636, 308.65136856829605, 308.7680352349561, 308.8847019016161, 309.0013685682761, 309.11803523493614, 309.23470190159617, 309.3513685682562, 309.4680352349162, 309.58470190157624, 309.70136856823626, 309.9347019015696]	2020_Nov_26_1017	59.93660955429486	1	0.375
3	52	FALSE	NA	a	['E', 'W', 'R', 'J', 'Y', 'G', 'V', 'S', 'T', 'U', 'C', 'K', 'X', 'A', 'N', 'H']	[904, 2448, 1587, 1029, 2670, 944, 2245, 1731, 1888, 2059, 829, 1122, 4000, 697, 1335, 986]	13	Present	NA	NA	PRESENT	0.3617439270019531	311.93046402931213	313.9279351234436	315.09461061153104	315.44461275727826	318.0385699272156	4.110634803771973	[311.9439558982849, 312.04387402534485, 313.02189588546753, 313.19555497169495, 313.96265292167664, 314.0627670288086, 314.17946195602417, 314.2962188720703, 314.4131090641022, 314.52994990348816, 314.64659309387207, 314.76361989974976, 314.8803360462189, 314.99694204330444, 315.1139769554138, 315.2305009365082, 315.34740591049194, 315.46424198150635, 315.5811140537262, 315.6977059841156, 315.81465888023376, 316.0385699272156]	[311.9347019015696, 312.05136856822963, 313.03436856822964, 313.20106856822963, 313.95106856822963, 314.06773523488965, 314.1844019015497, 314.3010685682097, 314.4177352348697, 314.53440190152975, 314.65106856818977, 314.7677352348498, 314.8844019015098, 315.00106856816984, 315.11773523482987, 315.2344019014899, 315.3510685681499, 315.46773523480994, 315.58440190146996, 315.70106856813, 315.81773523479, 316.05106856812336]	2020_Nov_26_1017	59.93660955429486	1	0.375
3	53	FALSE	NV	a	['Z', 'W', 'Y', 'E', 'K', 'G', 'P', 'V', 'X', 'U', 'H', 'S', 'B', 'T', 'M', 'N']	[2911, 2448, 2670, 904, 1122, 944, 1456, 2245, 4000, 2059, 986, 1731, 760, 1888, 1224, 1335]	9	Present	NA	NA	PRESENT	0.7504889965057373	318.0367901325226	320.0442419052124	320.7442500114041	321.0942519187327	324.1549370288849	4.110695123672485	[318.05028200149536, 318.1670880317688, 319.1382620334625, 319.31825709342957, 320.06912207603455, 320.1857841014862, 320.3026850223541, 320.4195659160614, 320.53628492355347, 320.653107881546, 320.7699680328369, 320.8866620063782, 321.00376987457275, 321.12023401260376, 321.2368838787079, 321.3538990020752, 321.47062492370605, 321.58733201026917, 321.70409989356995, 321.8209738731384, 321.93783593177795, 322.1549379825592]	[318.05106856812336, 318.1677352347834, 319.1507352347834, 319.3174352347834, 320.0674352347834, 320.1841019014434, 320.3007685681034, 320.41743523476345, 320.53410190142347, 320.6507685680835, 320.7674352347435, 320.88410190140354, 321.00076856806356, 321.1174352347236, 321.2341019013836, 321.35076856804363, 321.46743523470366, 321.5841019013637, 321.7007685680237, 321.8174352346837, 321.93410190134375, 322.1674352346771]	2020_Nov_26_1017	59.93660955429486	1	0.375
3	54	FALSE	NN	a	['A', 'Z', 'H', 'E', 'U', 'M', 'N', 'S', 'J', 'K', 'W', 'B', 'Y', 'V', 'C', 'P']	[697, 2911, 986, 904, 2059, 1224, 1335, 1731, 1029, 1122, 2448, 760, 2670, 2245, 829, 1456]	12	Absent	NA	NA	ABSENT	0.21163415908813477	324.15999007225037	326.16021513938904	327.21022300714213	327.5602249144708	330.2713029384613	4.111087799072266	[324.17348408699036, 324.29016494750977, 325.25462794303894, 325.44156193733215, 326.19227504730225, 326.29222893714905, 326.42583107948303, 326.52584409713745, 326.64262104034424, 326.75938987731934, 326.87623596191406, 326.99315190315247, 327.1098198890686, 327.22668290138245, 327.3433930873871, 327.46012592315674, 327.5768949985504, 327.69369101524353, 327.8104979991913, 327.92729091644287, 328.04419207572937, 328.2713038921356]	[324.1674352346771, 324.2841019013371, 325.2671019013371, 325.4338019013371, 326.1838019013371, 326.30046856799714, 326.41713523465717, 326.5338019013172, 326.6504685679772, 326.76713523463724, 326.88380190129726, 327.0004685679573, 327.1171352346173, 327.23380190127733, 327.35046856793736, 327.4671352345974, 327.5838019012574, 327.7004685679174, 327.81713523457745, 327.9338019012375, 328.0504685678975, 328.28380190123085]	2020_Nov_26_1017	59.93660955429486	1	0.375
3	55	FALSE	AN	a	['J', 'E', 'V', 'Z', 'surprise', 'G', 'M', 'P', 'R', 'S', 'C', 'H', 'W', 'N', 'B', 'T']	[1029, 904, 2245, 2911, 'stimAuditory/all_stimAuditory/110.wav', 944, 1224, 1456, 1587, 1731, 829, 986, 2448, 1335, 760, 1888]	8	Absent	stimAuditory/all_stimAuditory/120.wav	NA	ABSENT	0.28008008003234863	330.26649594306946	332.27671909332275	332.86006029443587	333.2100624401831	336.38767099380493	4.110951900482178	[330.27998900413513, 330.39678287506104, 331.37099504470825, 331.54789900779724, 332.29863595962524, 332.4156348705292, 332.53222608566284, 332.6492369174957, 332.7662799358368, 332.88282108306885, 332.99961709976196, 333.1163339614868, 333.23324608802795, 333.34984493255615, 333.4667589664459, 333.5833580493927, 333.7001760005951, 333.81690192222595, 333.9338049888611, 334.0504529476166, 334.1674048900604, 334.3876700401306]	[330.28380190123085, 330.40046856789087, 331.3834685678909, 331.55016856789086, 332.30016856789086, 332.4168352345509, 332.5335019012109, 332.65016856787094, 332.76683523453096, 332.883501901191, 333.000168567851, 333.11683523451103, 333.23350190117105, 333.3501685678311, 333.4668352344911, 333.5835019011511, 333.70016856781115, 333.81683523447117, 333.9335019011312, 334.0501685677912, 334.16683523445124, 334.4001685677846]	2020_Nov_26_1017	59.93660955429486	1	0.375
3	56	FALSE	NA	a	['G', 'T', 'V', 'U', 'R', 'H', 'S', 'Z', 'E', 'P', 'J', 'X', 'C', 'B', 'N', 'A']	[944, 1888, 2245, 2059, 1587, 986, 1731, 2911, 904, 1456, 1029, 4000, 829, 760, 1335, 697]	12	Present	NA	NA	PRESENT	0.42891979217529297	336.3895881175995	338.39325499534607	339.44326310151774	339.7932650088464	342.50403690338135	4.110781908035278	[336.40307998657227, 336.5200390815735, 337.487361907959, 337.67113995552063, 338.4219779968262, 338.5386688709259, 338.6556270122528, 338.77234506607056, 338.8892080783844, 339.0061149597168, 339.12272000312805, 339.2394468784332, 339.356360912323, 339.47299098968506, 339.5899419784546, 339.7068588733673, 339.82324409484863, 339.9400770664215, 340.0571119785309, 340.17377495765686, 340.2905058860779, 340.50403904914856]	[336.4001685677846, 336.5168352344446, 337.4998352344446, 337.6665352344446, 338.4165352344446, 338.53320190110463, 338.64986856776466, 338.7665352344247, 338.8832019010847, 338.9998685677447, 339.11653523440475, 339.2332019010648, 339.3498685677248, 339.4665352343848, 339.58320190104484, 339.69986856770487, 339.8165352343649, 339.9332019010249, 340.04986856768494, 340.16653523434496, 340.283201901005, 340.51653523433833]	2020_Nov_26_1017	59.93660955429486	1	0.375
3	57	FALSE	NA	a	['E', 'V', 'J', 'S', 'K', 'G', 'B', 'Y', 'W', 'Z', 'T', 'X', 'N', 'C', 'R', 'P']	[904, 2245, 1029, 1731, 1122, 944, 760, 2670, 2448, 2911, 1888, 4000, 1335, 829, 1587, 1456]	12	Present	NA	NA	ABSENT	0.6180050373077393	342.49593806266785	344.50950813293457	345.55951504701335	345.909516954342	348.62040400505066	4.110895872116089	[342.50943088531494, 342.62622594833374, 343.603728055954, 343.7779529094696, 344.5282139778137, 344.64525604248047, 344.76186990737915, 344.87867498397827, 344.99547600746155, 345.11221289634705, 345.2291100025177, 345.34599709510803, 345.4627048969269, 345.57955598831177, 345.6963379383087, 345.81306195259094, 345.9298269748688, 346.046767950058, 346.16351795196533, 346.2802939414978, 346.39709997177124, 346.620404958725]	[342.51653523433833, 342.63320190099836, 343.61620190099836, 343.78290190099835, 344.53290190099835, 344.6495685676584, 344.7662352343184, 344.8829019009784, 344.99956856763845, 345.1162352342985, 345.2329019009585, 345.3495685676185, 345.46623523427854, 345.58290190093857, 345.6995685675986, 345.8162352342586, 345.93290190091864, 346.04956856757866, 346.1662352342387, 346.2829019008987, 346.39956856755873, 346.6329019008921]	2020_Nov_26_1017	59.93660955429486	1	0.375
3	58	FALSE	NN	a	['H', 'B', 'M', 'V', 'C', 'G', 'R', 'T', 'K', 'J', 'W', 'S', 'A', 'Y', 'Z', 'P']	[986, 760, 1224, 2245, 829, 944, 1587, 1888, 1122, 1029, 2448, 1731, 697, 2670, 2911, 1456]	14	Absent	NA	NA	ABSENT	0.4306190013885498	348.6193051338196	350.6261639595032	351.90950539899484	352.25950635264917	354.7367699146271	4.110605955123901	[348.63279700279236, 348.74952602386475, 349.7200949192047, 349.9008870124817, 350.65147495269775, 350.7682180404663, 350.8852798938751, 351.00198006629944, 351.11873292922974, 351.235533952713, 351.35234689712524, 351.4690508842468, 351.5859909057617, 351.70277404785156, 351.8194959163666, 351.9361369609833, 352.0532350540161, 352.16975808143616, 352.28668308258057, 352.40338706970215, 352.5202898979187, 352.7367699146271]	[348.6329019008921, 348.7495685675521, 349.7325685675521, 349.8992685675521, 350.6492685675521, 350.7659352342121, 350.88260190087215, 350.99926856753217, 351.1159352341922, 351.2326019008522, 351.34926856751224, 351.46593523417226, 351.5826019008323, 351.6992685674923, 351.81593523415233, 351.93260190081236, 352.0492685674724, 352.1659352341324, 352.28260190079243, 352.39926856745245, 352.5159352341125, 352.7492685674458]	2020_Nov_26_1017	59.93660955429486	1	0.375
3	59	FALSE	AA	a	['S', 'E', 'C', 'W', 'A', 'Y', 'Z', 'G', 'U', 'surprise', 'N', 'P', 'X', 'B', 'K', 'V']	[1731, 904, 829, 2448, 697, 2670, 2911, 944, 2059, 'stimAuditory/all_stimAuditory/210.wav', 1335, 1456, 4000, 760, 1122, 2245]	13	Present	stimAuditory/all_stimAuditory/109.wav	NA	ABSENT	0.5079689025878906	354.74274802207947	356.7421340942383	357.9088086286514	358.2588107743986	360.8531379699707	4.111003875732422	[354.75624203681946, 354.8725800514221, 355.8364610671997, 356.02416586875916, 356.7747230529785, 356.87467098236084, 356.99169993400574, 357.10825300216675, 357.2250249385834, 357.3418960571289, 357.45864486694336, 357.57542610168457, 357.6923589706421, 357.8090269565582, 357.92595291137695, 358.04262709617615, 358.1595289707184, 358.276221036911, 358.39288997650146, 358.5098099708557, 358.6267330646515, 358.8531370162964]	[354.7492685674458, 354.86593523410585, 355.84893523410585, 356.01563523410584, 356.76563523410584, 356.88230190076587, 356.9989685674259, 357.1156352340859, 357.23230190074594, 357.34896856740596, 357.465635234066, 357.582301900726, 357.69896856738603, 357.81563523404606, 357.9323019007061, 358.0489685673661, 358.1656352340261, 358.28230190068615, 358.3989685673462, 358.5156352340062, 358.6323019006662, 358.86563523399957]	2020_Nov_26_1017	59.93660955429486	1	0.375
3	60	FALSE	NV	a	['T', 'U', 'P', 'G', 'K', 'A', 'W', 'R', 'Z', 'X', 'B', 'V', 'Y', 'S', 'E', 'J']	[1888, 2059, 1456, 944, 1122, 697, 2448, 1587, 2911, 4000, 760, 2245, 2670, 1731, 904, 1029]	10	Present	NA	NA	PRESENT	0.26450395584106445	360.8487799167633	362.85851311683655	363.67518765126965	364.0251897970169	366.9695038795471	4.110990762710571	[360.862272977829, 360.9792449474335, 361.9528260231018, 362.13046407699585, 362.8811628818512, 362.99790692329407, 363.11462688446045, 363.231605052948, 363.3484799861908, 363.4652440547943, 363.582053899765, 363.69871187210083, 363.8155040740967, 363.9323809146881, 364.04910802841187, 364.16590690612793, 364.28279399871826, 364.3995189666748, 364.5162100791931, 364.6330509185791, 364.7501518726349, 364.9695029258728]	[360.86563523399957, 360.9823019006596, 361.9653019006596, 362.1320019006596, 362.8820019006596, 362.9986685673196, 363.11533523397964, 363.23200190063966, 363.3486685672997, 363.4653352339597, 363.58200190061973, 363.69866856727975, 363.8153352339398, 363.9320019005998, 364.0486685672598, 364.16533523391985, 364.28200190057987, 364.3986685672399, 364.5153352338999, 364.63200190055994, 364.74866856721997, 364.9820019005533]	2020_Nov_26_1017	59.93660955429486	1	0.375
3	61	FALSE	NN	a	['A', 'Y', 'G', 'T', 'J', 'R', 'H', 'K', 'S', 'Z', 'B', 'V', 'W', 'N', 'P', 'C']	[697, 2670, 944, 1888, 1029, 1587, 986, 1122, 1731, 2911, 760, 2245, 2448, 1335, 1456, 829]	10	Absent	NA	NA	ABSENT	0.38900303840637207	366.9721519947052	368.97500801086426	369.79168159162305	370.1416837373703	373.0858700275421	4.110862016677856	[366.98564410209656, 367.1021158695221, 368.06919598579407, 368.2536549568176, 369.004380941391, 369.12108993530273, 369.2378799915314, 369.3547809123993, 369.47158789634705, 369.5881550312042, 369.7051100730896, 369.821888923645, 369.93863010406494, 370.055517911911, 370.17226791381836, 370.2891969680786, 370.4057950973511, 370.5226149559021, 370.63939595222473, 370.75637102127075, 370.87293791770935, 371.08587098121643]	[366.9820019005533, 367.09866856721334, 368.08166856721334, 368.24836856721333, 368.99836856721333, 369.11503523387336, 369.2317019005334, 369.3483685671934, 369.4650352338534, 369.58170190051345, 369.6983685671735, 369.8150352338335, 369.9317019004935, 370.04836856715355, 370.16503523381357, 370.2817019004736, 370.3983685671336, 370.51503523379364, 370.63170190045366, 370.7483685671137, 370.8650352337737, 371.09836856710706]	2020_Nov_26_1017	59.93660955429486	1	0.375
3	62	FALSE	NV	a	['M', 'H', 'E', 'N', 'V', 'J', 'Y', 'P', 'Z', 'S', 'R', 'B', 'T', 'X', 'A', 'G']	[1224, 986, 904, 1335, 2245, 1029, 2670, 1456, 2911, 1731, 1587, 760, 1888, 4000, 697, 944]	14	Present	NA	NA	PRESENT	0.986400842666626	373.0783700942993	375.0914809703827	376.3748224098743	376.724824317203	379.2022368907929	4.110755920410156	[373.0918619632721, 373.2086238861084, 374.18556094169617, 374.35999608039856, 375.11094188690186, 375.22762393951416, 375.3443670272827, 375.46112990379333, 375.57801699638367, 375.69482588768005, 375.81153297424316, 375.92838406562805, 376.0451829433441, 376.1619870662689, 376.27881693840027, 376.39543104171753, 376.51237988471985, 376.6290919780731, 376.746062040329, 376.8626890182495, 376.97944498062134, 377.20223808288574]	[373.09836856710706, 373.2150352337671, 374.1980352337671, 374.3647352337671, 375.1147352337671, 375.2314019004271, 375.3480685670871, 375.46473523374715, 375.5814019004072, 375.6980685670672, 375.8147352337272, 375.93140190038724, 376.04806856704727, 376.1647352337073, 376.2814019003673, 376.39806856702734, 376.51473523368736, 376.6314019003474, 376.7480685670074, 376.86473523366743, 376.98140190032746, 377.2147352336608]	2020_Nov_26_1017	59.93660955429486	1	0.375
3	63	FALSE	NV	a	['T', 'G', 'A', 'C', 'V', 'U', 'Z', 'H', 'B', 'W', 'Y', 'R', 'P', 'X', 'K', 'N']	[1888, 944, 697, 829, 2245, 2059, 2911, 986, 760, 2448, 2670, 1587, 1456, 4000, 1122, 1335]	14	Present	NA	NA	PRESENT	0.8708109855651855	379.2015480995178	381.20779299736023	382.4911344368519	382.84113634418054	385.31860399246216	4.110810995101929	[379.2150409221649, 379.3320200443268, 380.3019280433655, 380.4832880496979, 381.23393201828003, 381.3506329059601, 381.46751403808594, 381.58444905281067, 381.70119190216064, 381.8178029060364, 381.9348108768463, 382.0514838695526, 382.16817903518677, 382.2851870059967, 382.4020218849182, 382.5187900066376, 382.6353940963745, 382.7521650791168, 382.86917209625244, 382.985848903656, 383.10245394706726, 383.31860303878784]	[379.2147352336608, 379.3314019003208, 380.31440190032083, 380.4811019003208, 381.2311019003208, 381.34776856698085, 381.46443523364087, 381.5811019003009, 381.6977685669609, 381.81443523362094, 381.93110190028096, 382.047768566941, 382.164435233601, 382.28110190026104, 382.39776856692106, 382.5144352335811, 382.6311019002411, 382.74776856690113, 382.86443523356115, 382.9811019002212, 383.0977685668812, 383.33110190021455]	2020_Nov_26_1017	59.93660955429486	1	0.375
3	64	FALSE	NN	a	['K', 'A', 'M', 'P', 'Z', 'T', 'W', 'R', 'C', 'G', 'H', 'N', 'E', 'S', 'U', 'B']	[1122, 697, 1224, 1456, 2911, 1888, 2448, 1587, 829, 944, 986, 1335, 904, 1731, 2059, 760]	14	Absent	NA	NA	ABSENT	0.49223995208740234	385.32523703575134	387.3242120742798	388.60755232167855	388.9575544674258	391.4349710941314	4.110759019851685	[385.338730096817, 385.45502400398254, 386.41829204559326, 386.6064260005951, 387.3571240901947, 387.45706605911255, 387.57390093803406, 387.6906940937042, 387.80754709243774, 387.9242548942566, 388.0412049293518, 388.15807604789734, 388.27473497390747, 388.39141488075256, 388.50837087631226, 388.6250739097595, 388.7420129776001, 388.8587329387665, 388.9755918979645, 389.09228706359863, 389.20921087265015, 389.4349699020386]	[385.33110190021455, 385.4477685668746, 386.4307685668746, 386.59746856687457, 387.34746856687457, 387.4641352335346, 387.5808019001946, 387.69746856685464, 387.81413523351466, 387.9308019001747, 388.0474685668347, 388.16413523349473, 388.28080190015476, 388.3974685668148, 388.5141352334748, 388.6308019001348, 388.74746856679485, 388.8641352334549, 388.9808019001149, 389.0974685667749, 389.21413523343494, 389.4474685667683]	2020_Nov_26_1017	59.93660955429486	1	0.375
3	65	FALSE	NV	a	['E', 'W', 'U', 'M', 'S', 'C', 'T', 'X', 'G', 'P', 'B', 'V', 'A', 'J', 'H', 'R']	[904, 2448, 2059, 1224, 1731, 829, 1888, 4000, 944, 1456, 760, 2245, 697, 1029, 986, 1587]	8	Present	NA	NA	PRESENT	0.10489416122436523	391.4313781261444	393.4404470920563	394.0237882931694	394.373791392591	397.5513379573822	4.110890865325928	[391.4448699951172, 391.5615990161896, 392.53466296195984, 392.7128119468689, 393.46347188949585, 393.58048486709595, 393.6972219944, 393.8138659000397, 393.93076395988464, 394.04741501808167, 394.16449308395386, 394.28109788894653, 394.39795899391174, 394.5147490501404, 394.63160490989685, 394.74864387512207, 394.86515402793884, 394.98195600509644, 395.09876108169556, 395.2154290676117, 395.3324279785156, 395.5513379573822]	[391.4474685667683, 391.5641352334283, 392.5471352334283, 392.7138352334283, 393.4638352334283, 393.58050190008834, 393.69716856674836, 393.8138352334084, 393.9305019000684, 394.04716856672843, 394.16383523338845, 394.2805019000485, 394.3971685667085, 394.5138352333685, 394.63050190002855, 394.7471685666886, 394.8638352333486, 394.9805019000086, 395.09716856666864, 395.21383523332867, 395.3305018999887, 395.56383523332204]	2020_Nov_26_1017	59.93660955429486	1	0.375
3	66	FALSE	NA	a	['A', 'R', 'S', 'Z', 'K', 'U', 'G', 'X', 'N', 'Y', 'C', 'P', 'B', 'E', 'H', 'V']	[697, 1587, 1731, 2911, 1122, 2059, 944, 4000, 1335, 2670, 829, 1456, 760, 904, 986, 2245]	8	Present	NA	NA	PRESENT	0.14128994941711426	397.554239988327	399.55662393569946	400.1399653752312	400.4899672825598	403.6677029132843	4.111078977584839	[397.5677320957184, 397.68471598625183, 398.6510260105133, 398.8358590602875, 399.58705592155457, 399.703360080719, 399.82019805908203, 399.9370460510254, 400.0538139343262, 400.1707398891449, 400.2873148918152, 400.40415692329407, 400.52091789245605, 400.63799595832825, 400.7547860145569, 400.8713610172272, 400.9881319999695, 401.1051959991455, 401.22181010246277, 401.33866906166077, 401.45542001724243, 401.6677029132843]	[397.56383523332204, 397.68050189998206, 398.66350189998207, 398.83020189998206, 399.58020189998206, 399.6968685666421, 399.8135352333021, 399.9302018999621, 400.04686856662215, 400.1635352332822, 400.2802018999422, 400.3968685666022, 400.51353523326225, 400.63020189992227, 400.7468685665823, 400.8635352332423, 400.98020189990234, 401.09686856656236, 401.2135352332224, 401.3302018998824, 401.44686856654243, 401.6802018998758]	2020_Nov_26_1017	59.93660955429486	1	0.375
3	67	FALSE	AA	a	['E', 'J', 'B', 'Z', 'T', 'surprise', 'S', 'Y', 'X', 'R', 'N', 'V', 'K', 'P', 'W', 'C']	[904, 1029, 760, 2911, 1888, 'stimAuditory/all_stimAuditory/202.wav', 1731, 2670, 4000, 1587, 1335, 2245, 1122, 1456, 2448, 829]	9	Present	stimAuditory/all_stimAuditory/103.wav	NA	PRESENT	0.7465260028839111	403.66082406044006	405.67308807373047	406.3730959415036	406.7230980872508	409.7840700149536	4.1109819412231445	[403.67431592941284, 403.7910039424896, 404.76739287376404, 404.9426839351654, 405.6933128833771, 405.80981492996216, 405.9266519546509, 406.0436758995056, 406.1604869365692, 406.2769980430603, 406.39378905296326, 406.5106670856476, 406.62775588035583, 406.74429392814636, 406.86108207702637, 406.9778890609741, 407.09468698501587, 407.21146392822266, 407.3284978866577, 407.4450180530548, 407.5619270801544, 407.7840700149536]	[403.6802018998758, 403.7968685665358, 404.7798685665358, 404.9465685665358, 405.6965685665358, 405.8132352331958, 405.92990189985585, 406.0465685665159, 406.1632352331759, 406.2799018998359, 406.39656856649594, 406.51323523315597, 406.629901899816, 406.746568566476, 406.86323523313604, 406.97990189979606, 407.0965685664561, 407.2132352331161, 407.32990189977613, 407.44656856643616, 407.5632352330962, 407.7965685664295]	2020_Nov_26_1017	59.93660955429486	1	0.375
3	68	FALSE	NV	a	['H', 'N', 'T', 'Y', 'K', 'R', 'B', 'G', 'J', 'V', 'U', 'E', 'M', 'X', 'S', 'C']	[986, 1335, 1888, 2670, 1122, 1587, 760, 944, 1029, 2245, 2059, 904, 1224, 4000, 1731, 829]	14	Present	NA	NA	PRESENT	0.33517909049987793	409.7842800617218	411.7894730567932	413.0728142578663	413.4228164036135	415.90043687820435	4.110963821411133	[409.7977728843689, 409.9143099784851, 410.8837580680847, 411.0656270980835, 411.8164029121399, 411.93324089050293, 412.0498869419098, 412.16674995422363, 412.2836298942566, 412.40024399757385, 412.5171859264374, 412.6339581012726, 412.7506639957428, 412.86753392219543, 412.98421692848206, 413.1009728908539, 413.21793389320374, 413.33465099334717, 413.4513158798218, 413.5681879520416, 413.68510389328003, 413.90043687820435]	[409.7965685664295, 409.91323523308955, 410.89623523308956, 411.06293523308955, 411.81293523308955, 411.92960189974957, 412.0462685664096, 412.1629352330696, 412.27960189972964, 412.39626856638967, 412.5129352330497, 412.6296018997097, 412.74626856636974, 412.86293523302976, 412.9796018996898, 413.0962685663498, 413.21293523300983, 413.32960189966985, 413.4462685663299, 413.5629352329899, 413.6796018996499, 413.9129352329833]	2020_Nov_26_1017	59.93660955429486	1	0.375
3	69	FALSE	NA	a	['P', 'K', 'G', 'Y', 'E', 'W', 'C', 'X', 'R', 'M', 'S', 'Z', 'N', 'H', 'T', 'J']	[1456, 1122, 944, 2670, 904, 2448, 829, 4000, 1587, 1224, 1731, 2911, 1335, 986, 1888, 1029]	8	Present	NA	NA	PRESENT	0.16454577445983887	415.9075229167938	417.9058120250702	418.4891534646019	418.8391563256049	422.01680397987366	4.110991954803467	[415.9210159778595, 416.03773403167725, 417.0001289844513, 417.1719880104065, 417.9398829936981, 418.03955602645874, 418.15624809265137, 418.27306509017944, 418.3900671005249, 418.5066590309143, 418.6234838962555, 418.7405149936676, 418.8571970462799, 418.9738528728485, 419.09084010124207, 419.20745491981506, 419.32445788383484, 419.44106793403625, 419.5579969882965, 419.6746280193329, 419.79163694381714, 420.016804933548]	[415.9129352329833, 416.0296018996433, 417.0126018996433, 417.1793018996433, 417.9293018996433, 418.0459685663033, 418.16263523296334, 418.27930189962336, 418.3959685662834, 418.5126352329434, 418.62930189960343, 418.74596856626346, 418.8626352329235, 418.9793018995835, 419.0959685662435, 419.21263523290355, 419.3293018995636, 419.4459685662236, 419.5626352328836, 419.67930189954365, 419.79596856620367, 420.029301899537]	2020_Nov_26_1017	59.93660955429486	1	0.375
3	70	FALSE	NV	a	['V', 'A', 'W', 'P', 'Y', 'E', 'Z', 'T', 'N', 'X', 'R', 'J', 'C', 'H', 'B', 'G']	[2245, 697, 2448, 1456, 2670, 904, 2911, 1888, 1335, 4000, 1587, 1029, 829, 986, 760, 944]	10	Present	NA	NA	PRESENT	0.22496700286865232	422.0136630535126	424.0222189426422	424.8388937154939	425.18889562282254	428.1331698894501	4.110950946807861	[422.02715492248535, 422.1441159248352, 423.1164970397949, 423.29535603523254, 424.046010017395, 424.1628489494324, 424.2797360420227, 424.3963499069214, 424.5133020877838, 424.6298780441284, 424.74681305885315, 424.86357593536377, 424.9802579879761, 425.0971510410309, 425.2137780189514, 425.3307318687439, 425.44767808914185, 425.5642240047455, 425.68102288246155, 425.79835391044617, 425.91461992263794, 426.13317108154297]	[422.029301899537, 422.14596856619704, 423.12896856619705, 423.29566856619704, 424.04566856619704, 424.16233523285706, 424.2790018995171, 424.3956685661771, 424.51233523283713, 424.62900189949715, 424.7456685661572, 424.8623352328172, 424.9790018994772, 425.09566856613725, 425.2123352327973, 425.3290018994573, 425.4456685661173, 425.56233523277734, 425.67900189943737, 425.7956685660974, 425.9123352327574, 426.14566856609076]	2020_Nov_26_1017	59.93660955429486	1	0.375
3	71	FALSE	NN	a	['S', 'E', 'K', 'C', 'A', 'P', 'H', 'N', 'T', 'U', 'M', 'W', 'Z', 'B', 'V', 'G']	[1731, 904, 1122, 829, 697, 1456, 986, 1335, 1888, 2059, 1224, 2448, 2911, 760, 2245, 944]	11	Absent	NA	NA	ABSENT	0.8383538722991943	428.1368551254273	430.1386671066284	431.07200926139586	431.42201140714303	434.2495369911194	4.110869884490967	[428.15034794807434, 428.2673170566559, 429.2328600883484, 429.4184830188751, 430.1692349910736, 430.28589701652527, 430.4028890132904, 430.5196120738983, 430.6364459991455, 430.753231048584, 430.86994910240173, 430.9866740703583, 431.10359597206116, 431.2205328941345, 431.33700704574585, 431.4537670612335, 431.57081604003906, 431.6875469684601, 431.7874438762665, 431.9042398929596, 432.0211250782013, 432.2495369911194]	[428.14566856609076, 428.2623352327508, 429.2453352327508, 429.4120352327508, 430.1620352327508, 430.2787018994108, 430.39536856607083, 430.51203523273085, 430.6287018993909, 430.7453685660509, 430.8620352327109, 430.97870189937095, 431.09536856603097, 431.212035232691, 431.328701899351, 431.44536856601104, 431.56203523267106, 431.6787018993311, 431.7953685659911, 431.91203523265114, 432.02870189931116, 432.2620352326445]	2020_Nov_26_1017	59.93660955429486	1	0.375
3	72	FALSE	VA	a	['E', 'M', 'K', 'B', 'W', 'C', 'S', 'N', 'surprise', 'H', 'V', 'X', 'R', 'G', 'P', 'Y']	[904, 1224, 1122, 760, 2448, 829, 1731, 1335, 'stimAuditory/all_stimAuditory/222.wav', 986, 2245, 4000, 1587, 944, 1456, 2670]	12	Present	NA	NA	ABSENT	0.4589560031890869	434.24333095550537	436.2551701068878	437.3051779746409	437.6551789282952	440.3659029006958	4.110732793807983	[434.25682306289673, 434.373703956604, 435.34922790527344, 435.52486991882324, 436.27598690986633, 436.3924379348755, 436.5094630718231, 436.626179933548, 436.74293303489685, 436.8597090244293, 436.9764280319214, 437.0931670665741, 437.2100419998169, 437.32675790786743, 437.44363498687744, 437.5603621006012, 437.67728900909424, 437.7938439846039, 437.91078305244446, 438.0275309085846, 438.14440393447876, 438.3659029006958]	[434.2620352326445, 434.37870189930453, 435.36170189930453, 435.5284018993045, 436.2784018993045, 436.39506856596455, 436.5117352326246, 436.6284018992846, 436.7450685659446, 436.86173523260464, 436.97840189926467, 437.0950685659247, 437.2117352325847, 437.32840189924474, 437.44506856590476, 437.5617352325648, 437.6784018992248, 437.79506856588483, 437.91173523254486, 438.0284018992049, 438.1450685658649, 438.37840189919825]	2020_Nov_26_1017	59.93660955429486	1	0.375
3	73	FALSE	NV	a	['H', 'B', 'C', 'M', 'W', 'P', 'K', 'G', 'J', 'A', 'S', 'X', 'T', 'N', 'E', 'U']	[986, 760, 829, 1224, 2448, 1456, 1122, 944, 1029, 697, 1731, 4000, 1888, 1335, 904, 2059]	12	Present	NA	NA	PRESENT	0.22348523139953613	440.36679697036743	442.37131810188293	443.42132692331035	443.7713290690576	446.4822700023651	4.110951900482178	[440.3802890777588, 440.4972450733185, 441.4655930995941, 441.64790296554565, 442.3989109992981, 442.5157001018524, 442.63227701187134, 442.74920105934143, 442.86590600013733, 442.9826889038086, 443.09967708587646, 443.21632289886475, 443.3329920768738, 443.4499559402466, 443.5666449069977, 443.6835870742798, 443.8002269268036, 443.917023897171, 444.0340690612793, 444.15079402923584, 444.2673330307007, 444.4822700023651]	[440.37840189919825, 440.4950685658583, 441.4780685658583, 441.64476856585827, 442.39476856585827, 442.5114352325183, 442.6281018991783, 442.74476856583834, 442.86143523249837, 442.9781018991584, 443.0947685658184, 443.21143523247844, 443.32810189913846, 443.4447685657985, 443.5614352324585, 443.67810189911853, 443.79476856577855, 443.9114352324386, 444.0281018990986, 444.1447685657586, 444.26143523241865, 444.494768565752]	2020_Nov_26_1017	59.93660955429486	1	0.375
3	74	FALSE	NA	a	['C', 'K', 'J', 'N', 'T', 'M', 'Y', 'G', 'S', 'Z', 'X', 'P', 'A', 'H', 'B', 'W']	[829, 1122, 1029, 1335, 1888, 1224, 2670, 944, 1731, 2911, 4000, 1456, 697, 986, 760, 2448]	11	Present	NA	NA	PRESENT	0.1487879753112793	446.4899079799652	448.4875469207764	449.4208883602881	449.77088931394235	452.5986371040344	4.111090183258057	[446.5034010410309, 446.62010288238525, 447.58195900917053, 447.75433707237244, 448.52186703681946, 448.62225008010864, 448.7390639781952, 448.8557479381561, 448.9725589752197, 449.08931398391724, 449.2058708667755, 449.32288098335266, 449.43967390060425, 449.5562629699707, 449.6732850074768, 449.7898690700531, 449.9069049358368, 450.02352809906006, 450.1401689052582, 450.25718998908997, 450.37381386756897, 450.59863901138306]	[446.494768565752, 446.611435232412, 447.594435232412, 447.761135232412, 448.511135232412, 448.62780189907204, 448.74446856573206, 448.8611352323921, 448.9778018990521, 449.09446856571213, 449.21113523237216, 449.3278018990322, 449.4444685656922, 449.5611352323522, 449.67780189901225, 449.7944685656723, 449.9111352323323, 450.0278018989923, 450.14446856565235, 450.26113523231237, 450.3778018989724, 450.61113523230574]	2020_Nov_26_1017	59.93660955429486	1	0.375
3	75	FALSE	NV	a	['G', 'W', 'Y', 'U', 'N', 'A', 'H', 'T', 'M', 'B', 'V', 'K', 'X', 'S', 'Z', 'C']	[944, 2448, 2670, 2059, 1335, 697, 986, 1888, 1224, 760, 2245, 1122, 4000, 1731, 2911, 829]	13	Present	NA	NA	PRESENT	0.23320484161376953	452.5960700511933	454.60401701927185	455.77069060001065	456.1206936994322	458.7150039672851	4.110986948013306	[452.60956287384033, 452.72648096084595, 453.69832706451416, 453.87764406204224, 454.62848687171936, 454.74519205093384, 454.861937046051, 454.97897505760193, 455.0955328941345, 455.21251106262207, 455.3293209075928, 455.44597005844116, 455.56290793418884, 455.67962098121643, 455.7966139316559, 455.9130299091339, 456.0298309326172, 456.14683389663696, 456.26337790489197, 456.38026690483093, 456.4970669746399, 456.71500396728516]	[452.61113523230574, 452.72780189896577, 453.71080189896577, 453.87750189896576, 454.62750189896576, 454.7441685656258, 454.8608352322858, 454.97750189894583, 455.09416856560586, 455.2108352322659, 455.3275018989259, 455.4441685655859, 455.56083523224595, 455.677501898906, 455.794168565566, 455.910835232226, 456.02750189888604, 456.14416856554607, 456.2608352322061, 456.3775018988661, 456.49416856552614, 456.7275018988595]	2020_Nov_26_1017	59.93660955429486	1	0.375
3	76	FALSE	NV	a	['T', 'N', 'Y', 'G', 'V', 'E', 'B', 'C', 'A', 'Z', 'U', 'X', 'W', 'H', 'J', 'P']	[1888, 1335, 2670, 944, 2245, 904, 760, 829, 697, 2911, 2059, 4000, 2448, 986, 1029, 1456]	12	Present	NA	NA	PRESENT	0.31870198249816895	458.71944999694824	460.7203459739685	461.7703540801402	462.1203559874688	464.83137106895447	4.111025094985962	[458.73294401168823, 458.8496730327606, 459.8146948814392, 460.00086307525635, 460.7516860961914, 460.8684310913086, 460.9854118824005, 461.1021180152893, 461.21868896484375, 461.3356099128723, 461.4522829055786, 461.5692090988159, 461.6860160827637, 461.8027880191803, 461.9027519226074, 462.0194818973541, 462.13632106781006, 462.2530999183655, 462.36985087394714, 462.48685908317566, 462.60345792770386, 462.8313698768616]	[458.7275018988595, 458.8441685655195, 459.8271685655195, 459.9938685655195, 460.7438685655195, 460.86053523217953, 460.97720189883955, 461.0938685654996, 461.2105352321596, 461.3272018988196, 461.44386856547965, 461.56053523213967, 461.6772018987997, 461.7938685654597, 461.91053523211974, 462.02720189877977, 462.1438685654398, 462.2605352320998, 462.37720189875984, 462.49386856541986, 462.6105352320799, 462.84386856541323]	2020_Nov_26_1017	59.93660955429486	1	0.375
3	77	FALSE	NA	a	['W', 'N', 'M', 'P', 'Y', 'K', 'T', 'X', 'H', 'C', 'J', 'U', 'G', 'V', 'A', 'E']	[2448, 1335, 1224, 1456, 2670, 1122, 1888, 4000, 986, 829, 1029, 2059, 944, 2245, 697, 904]	8	Present	NA	NA	PRESENT	0.15498709678649902	464.8257789611816	466.8369710445404	467.4203134377464	467.77031534507506	470.9477379322052	4.110766887664795	[464.83927297592163, 464.9561519622803, 465.9310610294342, 466.10763692855835, 466.85819005966187, 466.9750220775604, 467.0917799472809, 467.20848393440247, 467.32535195350647, 467.4421761035919, 467.55902004241943, 467.67556595802307, 467.79249906539917, 467.90918803215027, 468.0258860588074, 468.14287304878235, 468.25962805747986, 468.3764441013336, 468.49310398101807, 468.60990595817566, 468.7268559932709, 468.9477369785309]	[464.84386856541323, 464.96053523207325, 465.94353523207326, 466.11023523207325, 466.86023523207325, 466.9769018987333, 467.0935685653933, 467.2102352320533, 467.32690189871334, 467.44356856537337, 467.5602352320334, 467.6769018986934, 467.79356856535344, 467.91023523201346, 468.0269018986735, 468.1435685653335, 468.26023523199353, 468.37690189865356, 468.4935685653136, 468.6102352319736, 468.7269018986336, 468.960235231967]	2020_Nov_26_1017	59.93660955429486	1	0.375
3	78	FALSE	NV	a	['K', 'V', 'N', 'Y', 'B', 'A', 'W', 'X', 'R', 'E', 'G', 'H', 'Z', 'C', 'U', 'J']	[1122, 2245, 1335, 2670, 760, 697, 2448, 4000, 1587, 904, 944, 986, 2911, 829, 2059, 1029]	8	Present	NA	NA	PRESENT	0.1435530185699463	470.94900393486023	472.95332503318787	473.5366664727195	473.8866683800482	477.0641040802002	4.110779047012329	[470.9624969959259, 471.07935309410095, 472.04742789268494, 472.2305369377136, 472.9812889099121, 473.09822607040405, 473.2149519920349, 473.3316900730133, 473.44853806495667, 473.5653429031372, 473.6820139884949, 473.79899287223816, 473.91562509536743, 474.03241300582886, 474.1491129398346, 474.26602506637573, 474.3827369213104, 474.49974298477173, 474.61625599861145, 474.73323702812195, 474.8498010635376, 475.0641040802002]	[470.960235231967, 471.076901898627, 472.059901898627, 472.226601898627, 472.976601898627, 473.093268565287, 473.20993523194704, 473.32660189860707, 473.4432685652671, 473.5599352319271, 473.67660189858714, 473.79326856524716, 473.9099352319072, 474.0266018985672, 474.14326856522723, 474.25993523188725, 474.3766018985473, 474.4932685652073, 474.6099352318673, 474.72660189852735, 474.8432685651874, 475.0766018985207]	2020_Nov_26_1017	59.93660955429486	1	0.375
3	79	FALSE	NN	a	['B', 'R', 'H', 'J', 'G', 'C', 'T', 'V', 'P', 'Y', 'M', 'E', 'A', 'S', 'W', 'Z']	[760, 1587, 986, 1029, 944, 829, 1888, 2245, 1456, 2670, 1224, 904, 697, 1731, 2448, 2911]	10	Absent	NA	NA	ABSENT	0.501054048538208	477.07239413261414	479.0696251392365	479.8862996736695	480.2363015809982	483.1804699897766	4.110844850540161	[477.08588695526123, 477.18556904792786, 478.16379594802856, 478.33685398101807, 479.0875370502472, 479.20440793037415, 479.3213269710541, 479.43816208839417, 479.5550060272217, 479.671590089798, 479.7885880470276, 479.9052269458771, 480.0221960544586, 480.13886189460754, 480.25549387931824, 480.37247109413147, 480.48927307128906, 480.6060791015625, 480.72286009788513, 480.83975195884705, 480.95645403862, 481.1804709434509]	[477.0766018985207, 477.19326856518074, 478.17626856518075, 478.34296856518074, 479.09296856518074, 479.20963523184076, 479.3263018985008, 479.4429685651608, 479.55963523182083, 479.67630189848086, 479.7929685651409, 479.9096352318009, 480.02630189846093, 480.14296856512095, 480.259635231781, 480.376301898441, 480.492968565101, 480.60963523176105, 480.72630189842107, 480.8429685650811, 480.9596352317411, 481.19296856507447]	2020_Nov_26_1017	59.93660955429486	1	0.375
